ExperimentName,Subject,Group,Block,Trial,STIM,TASK,Switch,Congruent,CVOE,PCVstim.RESP,PCVstim.RT,PCVstim.RTTime,POEstim.RESP,POEstim.RT,POEstim.RTTime,ShStim.RESP,ShStim.RT,ShStim.RTTime,ARStim1.RESP,ARStim1.RT,ARStim1.RTTime
CVOE updated,25,1,1,11,A 71,,,FALSE,CV,p,3505,273172,,,,,,,,,
CVOE updated,25,1,1,12,I 66,,,TRUE,CV,p,752,274435,,,,,,,,,
CVOE updated,25,1,1,13,S 30,,,FALSE,CV,q,797,275746,,,,,,,,,
CVOE updated,25,1,1,14,D 20,,,FALSE,CV,q,661,276926,,,,,,,,,
CVOE updated,25,1,1,15,I 31,,,FALSE,CV,p,688,278136,,,,,,,,,
CVOE updated,25,1,1,16,P 16,,,FALSE,CV,q,479,279127,,,,,,,,,
CVOE updated,25,1,1,17,A 49,,,FALSE,CV,p,517,280165,,,,,,,,,
CVOE updated,25,1,1,18,O 64,,,TRUE,CV,p,585,281266,,,,,,,,,
CVOE updated,25,1,1,19,D 02,,,FALSE,CV,q,611,282392,,,,,,,,,
CVOE updated,25,1,1,20,P 81,,,TRUE,CV,q,559,283473,,,,,,,,,
CVOE updated,25,1,1,21,J 58,,,FALSE,CV,q,610,284607,,,,,,,,,
CVOE updated,25,1,1,22,A 22,,,TRUE,CV,p,496,285626,,,,,,,,,
CVOE updated,25,1,1,23,J 72,,,FALSE,CV,q,513,286659,,,,,,,,,
CVOE updated,25,1,1,24,P 91,,,TRUE,CV,q,471,287650,,,,,,,,,
CVOE updated,25,1,1,25,E 19,,,FALSE,CV,p,481,288643,,,,,,,,,
CVOE updated,25,1,1,26,I 30,,,TRUE,CV,p,486,289648,,,,,,,,,
CVOE updated,25,1,1,27,D 91,,,TRUE,CV,q,524,290686,,,,,,,,,
CVOE updated,25,1,1,28,O 48,,,TRUE,CV,p,497,291692,,,,,,,,,
CVOE updated,25,1,1,29,A 89,,,FALSE,CV,p,498,292709,,,,,,,,,
CVOE updated,25,1,1,30,U 11,,,FALSE,CV,p,486,293714,,,,,,,,,
CVOE updated,25,1,1,31,I 76,,,TRUE,CV,p,454,294682,,,,,,,,,
CVOE updated,25,1,1,32,U 89,,,FALSE,CV,p,525,295719,,,,,,,,,
CVOE updated,25,1,1,33,D 63,,,TRUE,CV,q,531,296758,,,,,,,,,
CVOE updated,25,1,1,34,H 70,,,FALSE,CV,q,576,297853,,,,,,,,,
CVOE updated,25,1,1,35,D 48,,,FALSE,CV,q,421,298798,,,,,,,,,
CVOE updated,25,1,1,36,P 56,,,FALSE,CV,q,444,299754,,,,,,,,,
CVOE updated,25,1,1,37,O 77,,,FALSE,CV,p,408,300684,,,,,,,,,
CVOE updated,25,1,1,38,P 42,,,FALSE,CV,q,491,301684,,,,,,,,,
CVOE updated,25,1,1,39,H 22,,,FALSE,CV,q,553,302745,,,,,,,,,
CVOE updated,25,1,1,40,E 42,,,TRUE,CV,p,487,303746,,,,,,,,,
CVOE updated,25,1,1,41,J 28,,,FALSE,CV,q,449,304708,,,,,,,,,
CVOE updated,25,1,1,42,E 95,,,FALSE,CV,p,460,305685,,,,,,,,,
CVOE updated,25,1,1,43,S 63,,,TRUE,CV,q,498,306706,,,,,,,,,
CVOE updated,25,1,1,44,H 50,,,FALSE,CV,q,494,307719,,,,,,,,,
CVOE updated,25,1,1,45,S 33,,,TRUE,CV,q,456,308697,,,,,,,,,
CVOE updated,25,1,1,46,P 57,,,TRUE,CV,q,395,309602,,,,,,,,,
CVOE updated,25,1,1,47,E 23,,,FALSE,CV,p,416,310540,,,,,,,,,
CVOE updated,25,1,1,48,S 61,,,TRUE,CV,q,456,311513,,,,,,,,,
CVOE updated,25,1,1,49,U 67,,,FALSE,CV,p,421,312444,,,,,,,,,
CVOE updated,25,1,1,50,H 32,,,FALSE,CV,q,494,313450,,,,,,,,,
CVOE updated,25,1,1,51,U 50,,,TRUE,CV,p,602,314575,,,,,,,,,
CVOE updated,25,1,1,52,O 49,,,FALSE,CV,p,714,315803,,,,,,,,,
CVOE updated,25,1,1,53,U 32,,,TRUE,CV,p,512,316834,,,,,,,,,
CVOE updated,25,1,1,54,J 78,,,FALSE,CV,q,494,317849,,,,,,,,,
CVOE updated,25,1,1,55,S 54,,,FALSE,CV,q,596,318968,,,,,,,,,
CVOE updated,25,1,1,56,J 27,,,TRUE,CV,q,649,320137,,,,,,,,,
CVOE updated,25,1,1,57,S 06,,,FALSE,CV,q,453,321108,,,,,,,,,
CVOE updated,25,1,1,58,D 67,,,TRUE,CV,q,463,322084,,,,,,,,,
CVOE updated,25,1,1,59,A 79,,,FALSE,CV,p,408,323012,,,,,,,,,
CVOE updated,25,1,1,60,S 52,,,FALSE,CV,q,394,323915,,,,,,,,,
CVOE updated,25,1,1,61,U 16,,,TRUE,CV,p,455,324892,,,,,,,,,
CVOE updated,25,1,1,62,O 82,,,TRUE,CV,p,491,325895,,,,,,,,,
CVOE updated,25,1,1,63,H 87,,,TRUE,CV,q,491,326894,,,,,,,,,
CVOE updated,25,1,1,64,I 32,,,TRUE,CV,p,434,327837,,,,,,,,,
CVOE updated,25,1,1,65,U 37,,,FALSE,CV,p,458,328811,,,,,,,,,
CVOE updated,25,1,1,66,I 42,,,TRUE,CV,p,438,329757,,,,,,,,,
CVOE updated,25,1,1,67,D 65,,,TRUE,CV,q,382,330651,,,,,,,,,
CVOE updated,25,1,1,68,U 77,,,FALSE,CV,p,533,331702,,,,,,,,,
CVOE updated,25,1,1,69,E 12,,,TRUE,CV,p,494,332713,,,,,,,,,
CVOE updated,25,1,1,70,I 60,,,TRUE,CV,p,460,333695,,,,,,,,,
CVOE updated,25,1,1,71,J 36,,,FALSE,CV,q,633,334851,,,,,,,,,
CVOE updated,25,1,1,72,H 75,,,TRUE,CV,q,496,335864,,,,,,,,,
CVOE updated,25,1,1,73,I 50,,,TRUE,CV,p,469,336853,,,,,,,,,
CVOE updated,25,1,1,74,E 99,,,FALSE,CV,p,472,337839,,,,,,,,,
CVOE updated,25,1,1,75,A 86,,,TRUE,CV,p,465,338815,,,,,,,,,
CVOE updated,25,1,1,76,U 48,,,TRUE,CV,p,450,339784,,,,,,,,,
CVOE updated,25,1,1,77,E 01,,,FALSE,CV,p,459,340759,,,,,,,,,
CVOE updated,25,1,1,78,A 78,,,TRUE,CV,p,545,341828,,,,,,,,,
CVOE updated,25,1,1,79,P 60,,,FALSE,CV,q,518,342867,,,,,,,,,
CVOE updated,25,1,1,80,E 43,,,FALSE,CV,p,452,343835,,,,,,,,,
CVOE updated,25,1,1,81,D 69,,,TRUE,CV,q,484,344833,,,,,,,,,
CVOE updated,25,1,1,82,H 11,,,TRUE,CV,q,565,345914,,,,,,,,,
CVOE updated,25,1,1,83,P 43,,,TRUE,CV,q,471,346903,,,,,,,,,
CVOE updated,25,1,1,84,O 67,,,FALSE,CV,p,478,347893,,,,,,,,,
CVOE updated,25,1,1,85,S 91,,,FALSE,CV,q,441,348856,,,,,,,,,
CVOE updated,25,1,1,86,J 68,,,TRUE,CV,q,593,349957,,,,,,,,,
CVOE updated,25,1,1,87,S 47,,,FALSE,CV,q,487,350968,,,,,,,,,
CVOE updated,25,1,1,88,I 81,,,TRUE,CV,p,431,351912,,,,,,,,,
CVOE updated,25,1,1,89,J 39,,,FALSE,CV,q,471,352901,,,,,,,,,
CVOE updated,25,1,1,90,A 11,,,TRUE,CV,p,410,353823,,,,,,,,,
CVOE updated,25,1,1,91,O 76,,,FALSE,CV,p,537,354884,,,,,,,,,
CVOE updated,25,1,1,92,A 62,,,FALSE,CV,p,527,355923,,,,,,,,,
CVOE updated,25,1,1,93,O 27,,,TRUE,CV,p,377,356823,,,,,,,,,
CVOE updated,25,1,1,94,E 66,,,FALSE,CV,p,436,357782,,,,,,,,,
CVOE updated,25,1,1,95,J 62,,,TRUE,CV,q,413,358709,,,,,,,,,
CVOE updated,25,1,1,96,H 72,,,TRUE,CV,p,429,359658,,,,,,,,,
CVOE updated,25,1,1,97,E 49,,,TRUE,CV,p,809,360988,,,,,,,,,
CVOE updated,25,1,1,98,D 52,,,TRUE,CV,q,588,362083,,,,,,,,,
CVOE updated,25,1,1,99,H 62,,,TRUE,CV,q,562,363157,,,,,,,,,
CVOE updated,25,1,1,100,I 11,,,TRUE,CV,p,556,364234,,,,,,,,,
CVOE updated,25,1,1,101,A 98,,,FALSE,CV,p,554,365298,,,,,,,,,
CVOE updated,25,1,1,102,H 29,,,FALSE,CV,q,452,366263,,,,,,,,,
CVOE updated,25,1,1,103,E 83,,,TRUE,CV,p,568,367345,,,,,,,,,
CVOE updated,25,1,1,104,D 43,,,FALSE,CV,q,549,368409,,,,,,,,,
CVOE updated,25,1,1,105,P 45,,,TRUE,CV,q,529,369455,,,,,,,,,
CVOE updated,25,1,1,106,J 17,,,TRUE,CV,q,800,370776,,,,,,,,,
CVOE updated,25,1,2,11,A 24,,,TRUE,OE,p,1015,411348,,,,,,,,,
CVOE updated,25,1,2,12,O 83,,,FALSE,OE,q,555,412421,,,,,,,,,
CVOE updated,25,1,2,13,H 55,,,TRUE,OE,q,745,413678,,,,,,,,,
CVOE updated,25,1,2,14,P 10,,,FALSE,OE,p,533,414732,,,,,,,,,
CVOE updated,25,1,2,15,D 30,,,FALSE,OE,p,560,415809,,,,,,,,,
CVOE updated,25,1,2,16,U 62,,,TRUE,OE,p,601,416933,,,,,,,,,
CVOE updated,25,1,2,17,P 95,,,TRUE,OE,q,627,418075,,,,,,,,,
CVOE updated,25,1,2,18,U 06,,,TRUE,OE,p,549,419147,,,,,,,,,
CVOE updated,25,1,2,19,E 75,,,FALSE,OE,q,517,420181,,,,,,,,,
CVOE updated,25,1,2,20,I 67,,,FALSE,OE,q,693,421390,,,,,,,,,
CVOE updated,25,1,2,21,S 13,,,TRUE,OE,q,510,422424,,,,,,,,,
CVOE updated,25,1,2,22,P 78,,,FALSE,OE,p,490,423437,,,,,,,,,
CVOE updated,25,1,2,23,I 15,,,FALSE,OE,q,569,424516,,,,,,,,,
CVOE updated,25,1,2,24,D 27,,,TRUE,OE,q,697,425727,,,,,,,,,
CVOE updated,25,1,2,25,O 94,,,TRUE,OE,p,571,426817,,,,,,,,,
CVOE updated,25,1,2,26,A 65,,,FALSE,OE,q,604,427933,,,,,,,,,
CVOE updated,25,1,2,27,I 42,,,TRUE,OE,p,545,428991,,,,,,,,,
CVOE updated,25,1,2,28,E 25,,,FALSE,OE,q,584,430096,,,,,,,,,
CVOE updated,25,1,2,29,H 49,,,TRUE,OE,p,513,431125,,,,,,,,,
CVOE updated,25,1,2,30,S 18,,,FALSE,OE,p,607,432252,,,,,,,,,
CVOE updated,25,1,2,31,H 51,,,TRUE,OE,q,505,433266,,,,,,,,,
CVOE updated,25,1,2,32,U 14,,,TRUE,OE,p,605,434383,,,,,,,,,
CVOE updated,25,1,2,33,E 02,,,TRUE,OE,p,639,435533,,,,,,,,,
CVOE updated,25,1,2,34,J 26,,,FALSE,OE,p,615,436659,,,,,,,,,
CVOE updated,25,1,2,35,D 24,,,FALSE,OE,p,520,437697,,,,,,,,,
CVOE updated,25,1,2,36,O 50,,,TRUE,OE,p,610,438820,,,,,,,,,
CVOE updated,25,1,2,37,U 16,,,TRUE,OE,p,620,439963,,,,,,,,,
CVOE updated,25,1,2,38,O 15,,,FALSE,OE,q,535,441011,,,,,,,,,
CVOE updated,25,1,2,39,D 32,,,FALSE,OE,p,666,442192,,,,,,,,,
CVOE updated,25,1,2,40,S 67,,,TRUE,OE,q,473,443182,,,,,,,,,
CVOE updated,25,1,2,41,J 74,,,FALSE,OE,p,593,444285,,,,,,,,,
CVOE updated,25,1,2,42,D 92,,,FALSE,OE,p,596,445404,,,,,,,,,
CVOE updated,25,1,2,43,A 65,,,FALSE,OE,q,485,446410,,,,,,,,,
CVOE updated,25,1,2,44,I 87,,,FALSE,OE,q,711,447635,,,,,,,,,
CVOE updated,25,1,2,45,H 61,,,TRUE,OE,q,540,448698,,,,,,,,,
CVOE updated,25,1,2,46,E 59,,,FALSE,OE,q,525,449732,,,,,,,,,
CVOE updated,25,1,2,47,I 33,,,FALSE,OE,q,649,450889,,,,,,,,,
CVOE updated,25,1,2,48,O 90,,,TRUE,OE,p,553,451960,,,,,,,,,
CVOE updated,25,1,2,49,U 51,,,FALSE,OE,q,495,452968,,,,,,,,,
CVOE updated,25,1,2,50,A 10,,,TRUE,OE,p,465,453955,,,,,,,,,
CVOE updated,25,1,2,51,E 50,,,TRUE,OE,p,531,455004,,,,,,,,,
CVOE updated,25,1,2,52,D 92,,,FALSE,OE,p,501,456023,,,,,,,,,
CVOE updated,25,1,2,53,E 60,,,TRUE,OE,p,494,457033,,,,,,,,,
CVOE updated,25,1,2,54,A 95,,,FALSE,OE,q,578,458133,,,,,,,,,
CVOE updated,25,1,2,55,E 64,,,TRUE,OE,p,582,459237,,,,,,,,,
CVOE updated,25,1,2,56,P 20,,,FALSE,OE,p,584,460339,,,,,,,,,
CVOE updated,25,1,2,57,S 06,,,FALSE,OE,p,576,461430,,,,,,,,,
CVOE updated,25,1,2,58,P 64,,,FALSE,OE,p,507,462461,,,,,,,,,
CVOE updated,25,1,2,59,U 70,,,TRUE,OE,p,546,463517,,,,,,,,,
CVOE updated,25,1,2,60,S 16,,,FALSE,OE,p,505,464542,,,,,,,,,
CVOE updated,25,1,2,61,E 35,,,FALSE,OE,q,434,465487,,,,,,,,,
CVOE updated,25,1,2,62,I 93,,,FALSE,OE,q,531,466534,,,,,,,,,
CVOE updated,25,1,2,63,D 63,,,TRUE,OE,q,487,467540,,,,,,,,,
CVOE updated,25,1,2,64,U 89,,,FALSE,OE,p,544,468597,,,,,,,,,
CVOE updated,25,1,2,65,E 91,,,FALSE,OE,q,651,469770,,,,,,,,,
CVOE updated,25,1,2,66,A 12,,,TRUE,OE,p,592,470878,,,,,,,,,
CVOE updated,25,1,2,67,P 56,,,FALSE,OE,p,627,472029,,,,,,,,,
CVOE updated,25,1,2,68,S 65,,,TRUE,OE,q,623,473175,,,,,,,,,
CVOE updated,25,1,2,69,P 07,,,TRUE,OE,q,731,474416,,,,,,,,,
CVOE updated,25,1,2,70,I 77,,,FALSE,OE,q,642,475576,,,,,,,,,
CVOE updated,25,1,2,71,J 19,,,TRUE,OE,q,529,476613,,,,,,,,,
CVOE updated,25,1,2,72,O 59,,,FALSE,OE,q,472,477606,,,,,,,,,
CVOE updated,25,1,2,73,J 15,,,TRUE,OE,q,680,478797,,,,,,,,,
CVOE updated,25,1,2,74,I 89,,,FALSE,OE,q,597,479914,,,,,,,,,
CVOE updated,25,1,2,75,O 97,,,FALSE,OE,q,625,481058,,,,,,,,,
CVOE updated,25,1,2,76,A 92,,,TRUE,OE,p,623,482189,,,,,,,,,
CVOE updated,25,1,2,77,J 90,,,FALSE,OE,p,563,483262,,,,,,,,,
CVOE updated,25,1,2,78,H 65,,,TRUE,OE,q,451,484233,,,,,,,,,
CVOE updated,25,1,2,79,H 17,,,TRUE,OE,q,581,485330,,,,,,,,,
CVOE updated,25,1,2,80,S 26,,,FALSE,OE,p,663,486512,,,,,,,,,
CVOE updated,25,1,2,81,D 56,,,FALSE,OE,p,536,487568,,,,,,,,,
CVOE updated,25,1,2,82,I 91,,,FALSE,OE,q,490,488571,,,,,,,,,
CVOE updated,25,1,2,83,J 11,,,TRUE,OE,q,568,489649,,,,,,,,,
CVOE updated,25,1,2,84,O 28,,,TRUE,OE,p,503,490667,,,,,,,,,
CVOE updated,25,1,2,85,H 29,,,TRUE,OE,q,547,491728,,,,,,,,,
CVOE updated,25,1,2,86,J 25,,,TRUE,OE,q,501,492748,,,,,,,,,
CVOE updated,25,1,2,87,A 73,,,FALSE,OE,q,605,493868,,,,,,,,,
CVOE updated,25,1,2,88,J 63,,,TRUE,OE,q,546,494926,,,,,,,,,
CVOE updated,25,1,2,89,U 84,,,TRUE,OE,p,559,496005,,,,,,,,,
CVOE updated,25,1,2,90,A 58,,,TRUE,OE,p,622,497151,,,,,,,,,
CVOE updated,25,1,2,91,S 43,,,TRUE,OE,q,523,498185,,,,,,,,,
CVOE updated,25,1,2,92,H 54,,,FALSE,OE,p,585,499280,,,,,,,,,
CVOE updated,25,1,2,93,D 4,,,FALSE,OE,p,586,500381,,,,,,,,,
CVOE updated,25,1,2,94,J 75,,,TRUE,OE,q,1621,502516,,,,,,,,,
CVOE updated,25,1,2,95,D 19,,,TRUE,OE,q,625,503653,,,,,,,,,
CVOE updated,25,1,2,96,J 38,,,FALSE,OE,p,1040,505201,,,,,,,,,
CVOE updated,25,1,2,97,I 56,,,TRUE,OE,p,696,506406,,,,,,,,,
CVOE updated,25,1,2,98,P 87,,,TRUE,OE,q,509,507436,,,,,,,,,
CVOE updated,25,1,2,99,O 80,,,TRUE,OE,p,530,508490,,,,,,,,,
CVOE updated,25,1,2,100,U 60,,,TRUE,OE,p,547,509557,,,,,,,,,
CVOE updated,25,1,2,101,P 48,,,FALSE,OE,p,653,510729,,,,,,,,,
CVOE updated,25,1,2,102,H 64,,,FALSE,OE,p,503,511745,,,,,,,,,
CVOE updated,25,1,2,103,A 13,,,FALSE,OE,q,630,512889,,,,,,,,,
CVOE updated,25,1,2,104,H 68,,,FALSE,OE,p,483,513892,,,,,,,,,
CVOE updated,25,1,2,105,E 16,,,TRUE,OE,p,585,514993,,,,,,,,,
CVOE updated,25,1,2,106,S 71,,,TRUE,OE,q,504,516012,,,,,,,,,
CVOE updated,25,1,3,11,A 44,Letter,N,TRUE,CV,p,1842,588900,,,,,,,,,
CVOE updated,25,1,3,12,D 94,Letter,N,FALSE,CV,q,883,590307,,,,,,,,,
CVOE updated,25,1,3,13,E 75,Number,Y,FALSE,OE,q,1091,591914,,,,,,,,,
CVOE updated,25,1,3,14,H 81,Number,N,TRUE,OE,q,893,593316,,,,,,,,,
CVOE updated,25,1,3,15,I 64,Letter,Y,TRUE,CV,p,1061,594900,,,,,,,,,
CVOE updated,25,1,3,16,J 54,Letter,N,FALSE,CV,q,920,596342,,,,,,,,,
CVOE updated,25,1,3,17,O 23,Number,Y,FALSE,OE,q,886,597741,,,,,,,,,
CVOE updated,25,1,3,18,P 05,Number,N,TRUE,OE,q,1014,599269,,,,,,,,,
CVOE updated,25,1,3,19,S 34,Letter,Y,FALSE,CV,q,1646,601434,,,,,,,,,
CVOE updated,25,1,3,20,U 88,Letter,N,TRUE,CV,p,945,602899,,,,,,,,,
CVOE updated,25,1,3,21,A 70,Number,Y,TRUE,OE,p,918,604338,,,,,,,,,
CVOE updated,25,1,3,22,D 12,Number,N,FALSE,OE,p,906,605759,,,,,,,,,
CVOE updated,25,1,3,23,E 79,Letter,Y,FALSE,CV,p,1265,607535,,,,,,,,,
CVOE updated,25,1,3,24,H 72,Letter,N,FALSE,CV,q,1040,609093,,,,,,,,,
CVOE updated,25,1,3,25,I 41,Number,Y,FALSE,OE,q,999,610601,,,,,,,,,
CVOE updated,25,1,3,26,J 63,Number,N,TRUE,OE,q,995,612114,,,,,,,,,
CVOE updated,25,1,3,27,O 03,Letter,Y,FALSE,CV,p,1197,613832,,,,,,,,,
CVOE updated,25,1,3,28,P 75,Letter,N,TRUE,CV,q,982,615333,,,,,,,,,
CVOE updated,25,1,3,29,S 61,Number,Y,TRUE,OE,q,1299,617150,,,,,,,,,
CVOE updated,25,1,3,30,U 28,Number,N,TRUE,OE,p,911,618578,,,,,,,,,
CVOE updated,25,1,3,31,A 21,Letter,Y,FALSE,CV,p,1136,620236,,,,,,,,,
CVOE updated,25,1,3,32,D 18,Letter,N,FALSE,CV,q,900,621650,,,,,,,,,
CVOE updated,25,1,3,33,E 35,Number,Y,FALSE,OE,q,1231,623397,,,,,,,,,
CVOE updated,25,1,3,34,H 62,Number,N,FALSE,OE,p,858,624774,,,,,,,,,
CVOE updated,25,1,3,35,I 82,Letter,Y,TRUE,CV,p,1199,626498,,,,,,,,,
CVOE updated,25,1,3,36,J 78,Letter,N,FALSE,CV,q,856,627871,,,,,,,,,
CVOE updated,25,1,3,37,O 12,Number,Y,TRUE,OE,p,875,629256,,,,,,,,,
CVOE updated,25,1,3,38,P 13,Number,N,TRUE,OE,q,966,630730,,,,,,,,,
CVOE updated,25,1,3,39,S 07,Letter,Y,TRUE,CV,q,1494,632741,,,,,,,,,
CVOE updated,25,1,3,40,U 36,Letter,N,TRUE,CV,p,910,634173,,,,,,,,,
CVOE updated,25,1,3,41,A 96,Number,Y,TRUE,OE,p,1258,635954,,,,,,,,,
CVOE updated,25,1,3,42,D 04,Number,N,FALSE,OE,p,925,637388,,,,,,,,,
CVOE updated,25,1,3,43,E 60,Letter,Y,TRUE,CV,p,1338,639250,,,,,,,,,
CVOE updated,25,1,3,44,H 83,Letter,N,TRUE,CV,q,761,640523,,,,,,,,,
CVOE updated,25,1,3,45,I 64,Number,Y,TRUE,OE,p,1524,642569,,,,,,,,,
CVOE updated,25,1,3,46,J 76,Number,N,FALSE,OE,q,837,643915,,,,,,,,,
CVOE updated,25,1,3,47,O 78,Letter,Y,TRUE,CV,p,3979,648406,,,,,,,,,
CVOE updated,25,1,3,48,P 09,Letter,N,TRUE,CV,q,1730,650656,,,,,,,,,
CVOE updated,25,1,3,49,S 72,Number,Y,FALSE,OE,p,1166,652342,,,,,,,,,
CVOE updated,25,1,3,50,U 47,Number,N,FALSE,OE,q,930,653789,,,,,,,,,
CVOE updated,25,1,3,51,A 31,Letter,Y,FALSE,CV,p,1175,655483,,,,,,,,,
CVOE updated,25,1,3,52,D 96,Letter,N,FALSE,CV,q,750,656741,,,,,,,,,
CVOE updated,25,1,3,53,E 40,Number,Y,TRUE,OE,p,1006,658264,,,,,,,,,
CVOE updated,25,1,3,54,H 79,Number,N,TRUE,OE,q,829,659603,,,,,,,,,
CVOE updated,25,1,3,55,I 15,Letter,Y,FALSE,CV,p,1156,661280,,,,,,,,,
CVOE updated,25,1,3,56,J 07,Letter,N,TRUE,CV,q,1518,663308,,,,,,,,,
CVOE updated,25,1,3,57,O 61,Number,Y,FALSE,OE,q,1206,665029,,,,,,,,,
CVOE updated,25,1,3,58,P 58,Number,N,FALSE,OE,p,2292,667831,,,,,,,,,
CVOE updated,25,1,3,59,S 37,Letter,Y,TRUE,CV,q,2105,670460,,,,,,,,,
CVOE updated,25,1,3,60,U 61,Letter,N,FALSE,CV,p,2075,673046,,,,,,,,,
CVOE updated,25,1,3,61,A 17,Number,Y,FALSE,OE,q,1443,675013,,,,,,,,,
CVOE updated,25,1,3,62,D 85,Number,N,TRUE,OE,q,1534,677071,,,,,,,,,
CVOE updated,25,1,3,63,E 20,Letter,Y,TRUE,CV,p,836,678422,,,,,,,,,
CVOE updated,25,1,3,64,H 86,Letter,N,FALSE,CV,q,786,679722,,,,,,,,,
CVOE updated,25,1,3,65,I 21,Number,Y,FALSE,OE,q,894,681129,,,,,,,,,
CVOE updated,25,1,3,66,J 29,Number,N,TRUE,OE,q,857,682509,,,,,,,,,
CVOE updated,25,1,3,67,O 13,Letter,Y,FALSE,CV,p,1121,684139,,,,,,,,,
CVOE updated,25,1,3,68,P 82,Letter,N,FALSE,CV,q,922,685573,,,,,,,,,
CVOE updated,25,1,3,69,S 72,Number,Y,FALSE,OE,p,917,687001,,,,,,,,,
CVOE updated,25,1,3,70,U 84,Number,N,TRUE,OE,p,1038,688555,,,,,,,,,
CVOE updated,25,1,3,71,A 49,Letter,Y,FALSE,CV,q,2103,691170,,,,,,,,,
CVOE updated,25,1,3,72,D 91,Letter,N,TRUE,CV,q,3556,695239,,,,,,,,,
CVOE updated,25,1,3,73,E 99,Number,Y,FALSE,OE,q,1963,697711,,,,,,,,,
CVOE updated,25,1,3,74,H 16,Number,N,FALSE,OE,p,1456,699687,,,,,,,,,
CVOE updated,25,1,3,75,I 45,Letter,Y,FALSE,CV,p,1113,701310,,,,,,,,,
CVOE updated,25,1,3,76,J 70,Letter,N,FALSE,CV,q,1809,703639,,,,,,,,,
CVOE updated,25,1,3,77,O 22,Number,Y,TRUE,OE,p,1617,705780,,,,,,,,,
CVOE updated,25,1,3,78,P 41,Number,N,TRUE,OE,q,3131,709427,,,,,,,,,
CVOE updated,25,1,3,79,S 93,Letter,Y,TRUE,CV,q,1544,711489,,,,,,,,,
CVOE updated,25,1,3,80,U 70,Letter,N,TRUE,CV,p,1373,713384,,,,,,,,,
CVOE updated,25,1,3,81,A 42,Number,Y,TRUE,OE,p,885,714779,,,,,,,,,
CVOE updated,25,1,3,82,D 85,Number,N,TRUE,OE,q,901,716195,,,,,,,,,
CVOE updated,25,1,3,83,E 68,Letter,Y,TRUE,CV,p,1102,717812,,,,,,,,,
CVOE updated,25,1,3,84,H 17,Letter,N,TRUE,CV,q,1165,719491,,,,,,,,,
CVOE updated,25,1,3,85,I 70,Number,Y,TRUE,OE,p,1299,721308,,,,,,,,,
CVOE updated,25,1,3,86,J 88,Number,N,FALSE,OE,p,1108,722933,,,,,,,,,
CVOE updated,25,1,3,87,O 32,Letter,Y,TRUE,CV,p,1268,724710,,,,,,,,,
CVOE updated,25,1,3,88,P 95,Letter,N,TRUE,CV,q,1089,726314,,,,,,,,,
CVOE updated,25,1,3,89,S 98,Number,Y,FALSE,OE,p,1201,728025,,,,,,,,,
CVOE updated,25,1,3,90,U 37,Number,N,FALSE,OE,q,1200,729741,,,,,,,,,
CVOE updated,25,1,3,91,A 56,Letter,Y,TRUE,CV,p,1148,731405,,,,,,,,,
CVOE updated,25,1,3,92,D 57,Letter,N,TRUE,CV,q,1195,733118,,,,,,,,,
CVOE updated,25,1,3,93,E 93,Number,Y,FALSE,OE,q,1115,734754,,,,,,,,,
CVOE updated,25,1,3,94,H 27,Number,N,TRUE,OE,q,1079,736351,,,,,,,,,
CVOE updated,25,1,3,95,I 35,Letter,Y,FALSE,CV,p,1189,738061,,,,,,,,,
CVOE updated,25,1,3,96,J 03,Letter,N,TRUE,CV,q,1045,739616,,,,,,,,,
CVOE updated,25,1,3,97,O 28,Number,Y,TRUE,OE,p,1107,741245,,,,,,,,,
CVOE updated,25,1,3,98,P 59,Number,N,TRUE,OE,q,1056,742810,,,,,,,,,
CVOE updated,25,1,3,99,S 77,Letter,Y,TRUE,CV,q,1099,744419,,,,,,,,,
CVOE updated,25,1,3,100,U 05,Letter,N,FALSE,CV,p,1041,745978,,,,,,,,,
CVOE updated,25,1,3,101,A 56,Number,Y,TRUE,OE,p,1010,747496,,,,,,,,,
CVOE updated,25,1,3,102,D 01,Number,N,TRUE,OE,q,1632,749651,,,,,,,,,
CVOE updated,25,1,3,103,E 02,Letter,Y,TRUE,CV,p,1174,751343,,,,,,,,,
CVOE updated,25,1,3,104,H 68,Letter,N,FALSE,CV,q,929,752781,,,,,,,,,
CVOE updated,25,1,3,105,I 05,Number,Y,FALSE,OE,q,1241,754542,,,,,,,,,
CVOE updated,25,1,3,106,J 55,Number,N,TRUE,OE,q,1065,756116,,,,,,,,,
CVOE updated,25,1,3,107,O 73,Letter,Y,FALSE,CV,p,1023,757657,,,,,,,,,
CVOE updated,25,1,3,108,P 41,Letter,N,TRUE,CV,q,967,759134,,,,,,,,,
CVOE updated,25,1,3,109,S 92,Number,Y,FALSE,OE,p,986,760636,,,,,,,,,
CVOE updated,25,1,3,110,U 34,Number,N,TRUE,OE,p,1037,762186,,,,,,,,,
CVOE updated,25,1,3,111,A 09,Letter,Y,FALSE,CV,p,1011,763710,,,,,,,,,
CVOE updated,25,1,3,112,D 92,Letter,N,FALSE,CV,q,1268,765500,,,,,,,,,
CVOE updated,25,1,3,113,E 48,Number,Y,TRUE,OE,p,1915,767930,,,,,,,,,
CVOE updated,25,1,3,114,H 76,Number,N,FALSE,OE,q,1132,769580,,,,,,,,,
CVOE updated,25,1,3,115,I 44,Letter,Y,TRUE,CV,p,2453,772550,,,,,,,,,
CVOE updated,25,1,3,116,J 67,Letter,N,TRUE,CV,q,1433,774496,,,,,,,,,
CVOE updated,25,1,3,117,O 48,Number,Y,TRUE,OE,p,1545,776558,,,,,,,,,
CVOE updated,25,1,3,118,P 22,Number,N,FALSE,OE,p,2014,779093,,,,,,,,,
CVOE updated,25,1,3,119,S 86,Letter,Y,FALSE,CV,q,1849,781461,,,,,,,,,
CVOE updated,25,1,3,120,U 35,Letter,N,FALSE,CV,p,1249,783227,,,,,,,,,
CVOE updated,25,1,3,121,A 91,Number,Y,FALSE,OE,q,1051,784795,,,,,,,,,
CVOE updated,25,1,3,122,D 78,Number,N,FALSE,OE,p,1377,786687,,,,,,,,,
CVOE updated,25,1,3,123,E 91,Letter,Y,FALSE,CV,p,975,788185,,,,,,,,,
CVOE updated,25,1,3,124,H 54,Letter,N,FALSE,CV,q,958,789668,,,,,,,,,
CVOE updated,25,1,3,125,I 65,Number,Y,FALSE,OE,q,2191,792383,,,,,,,,,
CVOE updated,25,1,3,126,J 52,Number,N,FALSE,OE,p,1211,794103,,,,,,,,,
CVOE updated,25,1,3,127,O 19,Letter,Y,FALSE,CV,p,894,795519,,,,,,,,,
CVOE updated,25,1,3,128,P 48,Letter,N,FALSE,CV,q,845,796886,,,,,,,,,
CVOE updated,25,1,3,129,S 45,Number,Y,TRUE,OE,q,1202,798609,,,,,,,,,
CVOE updated,25,1,3,130,U 26,Number,N,TRUE,OE,p,876,800000,,,,,,,,,
CVOE updated,25,1,4,1,U 38,Number,N,TRUE,OE,p,3172,812327,,,,,,,,,
CVOE updated,25,1,4,2,P 73,Number,N,TRUE,OE,q,917,813754,,,,,,,,,
CVOE updated,25,1,4,3,U 95,Letter,Y,FALSE,CV,q,1098,815368,,,,,,,,,
CVOE updated,25,1,4,4,J 61,Number,Y,TRUE,OE,q,1744,817630,,,,,,,,,
CVOE updated,25,1,4,5,D 51,Number,N,TRUE,OE,q,1160,819312,,,,,,,,,
CVOE updated,25,1,4,6,S 28,Number,N,FALSE,OE,p,1260,821095,,,,,,,,,
CVOE updated,25,1,4,7,A 56,Letter,Y,TRUE,CV,p,909,822527,,,,,,,,,
CVOE updated,25,1,4,8,H 78,Letter,N,FALSE,CV,q,902,823937,,,,,,,,,
CVOE updated,25,1,4,9,P 92,Letter,N,FALSE,CV,q,1158,825609,,,,,,,,,
CVOE updated,25,1,4,10,E 05,Number,Y,FALSE,OE,q,1206,827323,,,,,,,,,
CVOE updated,25,1,4,11,P 57,Letter,Y,TRUE,CV,q,1010,828843,,,,,,,,,
CVOE updated,25,1,4,12,D 88,Number,Y,FALSE,OE,p,2229,831595,,,,,,,,,
CVOE updated,25,1,4,13,O 89,Letter,Y,FALSE,CV,p,1278,833394,,,,,,,,,
CVOE updated,25,1,4,14,U 43,Number,Y,FALSE,OE,q,1035,834950,,,,,,,,,
CVOE updated,25,1,4,15,H 10,Number,N,FALSE,OE,p,1127,836592,,,,,,,,,
CVOE updated,25,1,4,16,S 07,Letter,Y,TRUE,CV,q,967,838082,,,,,,,,,
CVOE updated,25,1,4,17,J 10,Letter,N,FALSE,CV,q,1035,839633,,,,,,,,,
CVOE updated,25,1,4,18,H 54,Number,Y,FALSE,OE,p,1055,841202,,,,,,,,,
CVOE updated,25,1,4,19,E 99,Number,N,FALSE,OE,q,1440,843154,,,,,,,,,
CVOE updated,25,1,4,20,J 36,Letter,Y,FALSE,CV,q,1292,844955,,,,,,,,,
CVOE updated,25,1,4,21,I 94,Letter,N,TRUE,CV,p,966,846429,,,,,,,,,
CVOE updated,25,1,4,22,A 82,Letter,N,TRUE,CV,p,984,847930,,,,,,,,,
CVOE updated,25,1,4,23,H 79,Number,Y,TRUE,OE,q,1397,849842,,,,,,,,,
CVOE updated,25,1,4,24,J 60,Number,N,FALSE,OE,p,905,851266,,,,,,,,,
CVOE updated,25,1,4,25,S 28,Letter,Y,FALSE,CV,q,1527,853305,,,,,,,,,
CVOE updated,25,1,4,26,P 11,Number,Y,TRUE,OE,q,1119,854946,,,,,,,,,
CVOE updated,25,1,4,27,D 39,Number,N,TRUE,OE,q,948,856408,,,,,,,,,
CVOE updated,25,1,4,28,E 90,Number,N,TRUE,OE,p,1031,857958,,,,,,,,,
CVOE updated,25,1,4,29,I 38,Number,N,TRUE,OE,p,1263,859739,,,,,,,,,
CVOE updated,25,1,4,30,S 35,Letter,Y,TRUE,CV,q,1056,861315,,,,,,,,,
CVOE updated,25,1,4,31,D 41,Number,Y,TRUE,OE,q,1190,863015,,,,,,,,,
CVOE updated,25,1,4,32,E 06,Number,N,TRUE,OE,p,1291,864816,,,,,,,,,
CVOE updated,25,1,4,33,A 27,Number,N,FALSE,OE,q,994,866319,,,,,,,,,
CVOE updated,25,1,4,34,U 95,Letter,Y,FALSE,CV,p,957,867798,,,,,,,,,
CVOE updated,25,1,4,35,A 53,Letter,N,FALSE,CV,p,1100,869407,,,,,,,,,
CVOE updated,25,1,4,36,E 43,Letter,N,FALSE,CV,p,912,870835,,,,,,,,,
CVOE updated,25,1,4,37,P 05,Number,Y,TRUE,OE,q,1219,872575,,,,,,,,,
CVOE updated,25,1,4,38,O 19,Letter,Y,FALSE,CV,p,1548,874637,,,,,,,,,
CVOE updated,25,1,4,39,I 96,Number,Y,TRUE,OE,p,1202,876358,,,,,,,,,
CVOE updated,25,1,4,40,A 88,Number,N,TRUE,OE,p,1009,877881,,,,,,,,,
CVOE updated,25,1,4,41,I 67,Number,N,FALSE,OE,q,766,879171,,,,,,,,,
CVOE updated,25,1,4,42,D 40,Number,N,FALSE,OE,p,1019,880707,,,,,,,,,
CVOE updated,25,1,4,43,P 79,Letter,Y,TRUE,CV,q,1023,882244,,,,,,,,,
CVOE updated,25,1,4,44,U 24,Number,Y,TRUE,OE,p,1228,883982,,,,,,,,,
CVOE updated,25,1,4,45,P 74,Number,N,FALSE,OE,p,937,885440,,,,,,,,,
CVOE updated,25,1,4,46,E 70,Number,N,TRUE,OE,p,1023,886976,,,,,,,,,
CVOE updated,25,1,4,47,S 27,Number,N,TRUE,OE,q,1105,888591,,,,,,,,,
CVOE updated,25,1,4,48,E 54,Letter,Y,TRUE,CV,p,822,889924,,,,,,,,,
CVOE updated,25,1,4,49,A 53,Letter,N,FALSE,CV,p,999,891434,,,,,,,,,
CVOE updated,25,1,4,50,P 34,Letter,N,FALSE,CV,q,991,892943,,,,,,,,,
CVOE updated,25,1,4,51,D 74,Number,Y,FALSE,OE,p,1030,894481,,,,,,,,,
CVOE updated,25,1,4,52,A 03,Letter,Y,FALSE,CV,p,1170,896171,,,,,,,,,
CVOE updated,25,1,4,53,E 24,Number,Y,TRUE,OE,p,1494,898178,,,,,,,,,
CVOE updated,25,1,4,54,I 58,Letter,Y,TRUE,CV,p,1200,899900,,,,,,,,,
CVOE updated,25,1,4,55,D 77,Number,Y,TRUE,OE,q,1811,902227,,,,,,,,,
CVOE updated,25,1,4,56,S 75,Number,N,TRUE,OE,q,929,903678,,,,,,,,,
CVOE updated,25,1,4,57,I 20,Letter,Y,TRUE,CV,p,1064,905263,,,,,,,,,
CVOE updated,25,1,4,58,J 52,Letter,N,FALSE,CV,q,919,906701,,,,,,,,,
CVOE updated,25,1,4,59,A 38,Number,Y,TRUE,OE,p,1015,908229,,,,,,,,,
CVOE updated,25,1,4,60,I 60,Letter,Y,TRUE,CV,p,1113,909860,,,,,,,,,
CVOE updated,25,1,4,61,S 51,Number,Y,TRUE,OE,q,877,911257,,,,,,,,,
CVOE updated,25,1,4,62,D 63,Letter,Y,TRUE,CV,q,2023,913803,,,,,,,,,
CVOE updated,25,1,4,63,U 27,Letter,N,FALSE,CV,p,1453,915766,,,,,,,,,
CVOE updated,25,1,4,64,J 77,Letter,N,TRUE,CV,q,1762,918041,,,,,,,,,
CVOE updated,25,1,4,65,O 15,Number,Y,FALSE,OE,q,1225,919787,,,,,,,,,
CVOE updated,25,1,4,66,J 20,Letter,Y,FALSE,CV,q,1358,921669,,,,,,,,,
CVOE updated,25,1,4,67,U 97,Number,Y,FALSE,OE,q,1027,923205,,,,,,,,,
CVOE updated,25,1,4,68,H 03,Number,N,TRUE,OE,q,1218,924945,,,,,,,,,
CVOE updated,25,1,4,69,O 04,Letter,Y,TRUE,CV,p,1043,926503,,,,,,,,,
CVOE updated,25,1,4,70,E 10,Letter,N,TRUE,CV,p,1281,928307,,,,,,,,,
CVOE updated,25,1,4,71,I 52,Letter,N,TRUE,CV,p,1056,929882,,,,,,,,,
CVOE updated,25,1,4,72,H 81,Number,Y,TRUE,OE,q,954,931346,,,,,,,,,
CVOE updated,25,1,4,73,I 41,Number,N,FALSE,OE,q,1110,932969,,,,,,,,,
CVOE updated,25,1,4,74,U 19,Letter,Y,FALSE,CV,p,840,934332,,,,,,,,,
CVOE updated,25,1,4,75,O 17,Number,Y,FALSE,OE,q,1066,935907,,,,,,,,,
CVOE updated,25,1,4,76,A 10,Number,N,TRUE,OE,p,1077,937501,,,,,,,,,
CVOE updated,25,1,4,77,P 93,Letter,Y,TRUE,CV,q,955,938979,,,,,,,,,
CVOE updated,25,1,4,78,E 59,Letter,N,FALSE,CV,p,1012,940502,,,,,,,,,
CVOE updated,25,1,4,79,O 53,Letter,N,FALSE,CV,p,963,941986,,,,,,,,,
CVOE updated,25,1,4,80,A 96,Letter,N,TRUE,CV,p,990,943496,,,,,,,,,
CVOE updated,25,1,4,81,H 36,Letter,Y,FALSE,CV,q,905,944911,,,,,,,,,
CVOE updated,25,1,4,82,A 63,Letter,N,FALSE,CV,p,1088,946510,,,,,,,,,
CVOE updated,25,1,4,83,I 38,Letter,N,TRUE,CV,p,863,947885,,,,,,,,,
CVOE updated,25,1,4,84,O 51,Number,Y,FALSE,OE,q,867,949272,,,,,,,,,
CVOE updated,25,1,4,85,J 26,Number,N,FALSE,OE,p,985,950773,,,,,,,,,
CVOE updated,25,1,4,86,S 34,Letter,Y,FALSE,CV,q,991,952278,,,,,,,,,
CVOE updated,25,1,4,87,U 85,Number,Y,FALSE,OE,q,923,953710,,,,,,,,,
CVOE updated,25,1,4,88,J 77,Number,N,TRUE,OE,q,1001,955221,,,,,,,,,
CVOE updated,25,1,4,89,I 73,Letter,Y,FALSE,CV,p,997,956733,,,,,,,,,
CVOE updated,25,1,4,90,H 46,Number,Y,FALSE,OE,p,1329,958582,,,,,,,,,
CVOE updated,25,1,4,91,D 04,Number,N,FALSE,OE,p,963,960065,,,,,,,,,
CVOE updated,25,1,4,92,P 72,Letter,Y,FALSE,CV,q,935,961520,,,,,,,,,
CVOE updated,25,1,4,93,D 99,Number,Y,TRUE,OE,q,1009,963044,,,,,,,,,
CVOE updated,25,1,4,94,U 25,Letter,Y,FALSE,CV,p,924,964492,,,,,,,,,
CVOE updated,25,1,4,95,O 32,Letter,N,TRUE,CV,p,1370,966371,,,,,,,,,
CVOE updated,25,1,4,96,E 80,Letter,N,TRUE,CV,p,1038,967922,,,,,,,,,
CVOE updated,25,1,4,97,O 84,Number,Y,TRUE,OE,p,1168,969601,,,,,,,,,
CVOE updated,25,1,4,98,A 78,Number,N,TRUE,OE,p,857,970973,,,,,,,,,
CVOE updated,25,1,4,99,S 05,Number,N,TRUE,OE,q,954,972437,,,,,,,,,
CVOE updated,25,1,4,100,U 35,Letter,Y,FALSE,CV,p,1087,974036,,,,,,,,,
CVOE updated,25,1,4,101,H 14,Letter,N,FALSE,CV,q,786,975334,,,,,,,,,
CVOE updated,25,1,4,102,U 15,Number,Y,FALSE,OE,q,950,976798,,,,,,,,,
CVOE updated,25,1,4,103,E 36,Letter,Y,TRUE,CV,p,1279,978593,,,,,,,,,
CVOE updated,25,1,4,104,P 70,Letter,N,FALSE,CV,q,1099,980213,,,,,,,,,
CVOE updated,25,1,4,105,O 44,Number,Y,TRUE,OE,p,880,981610,,,,,,,,,
CVOE updated,25,1,4,106,S 41,Letter,Y,TRUE,CV,q,1681,983811,,,,,,,,,
CVOE updated,25,1,4,107,D 83,Letter,N,TRUE,CV,q,1638,985967,,,,,,,,,
CVOE updated,25,1,4,108,J 39,Letter,N,TRUE,CV,q,1117,987596,,,,,,,,,
CVOE updated,25,1,4,109,S 22,Number,Y,FALSE,OE,p,897,989009,,,,,,,,,
CVOE updated,25,1,4,110,D 89,Letter,Y,TRUE,CV,p,1172,990700,,,,,,,,,
CVOE updated,25,1,4,111,P 87,Letter,N,TRUE,CV,q,1362,992573,,,,,,,,,
CVOE updated,25,1,4,112,H 42,Letter,N,FALSE,CV,q,1023,994117,,,,,,,,,
CVOE updated,25,1,4,113,S 49,Letter,N,TRUE,CV,q,951,995578,,,,,,,,,
CVOE updated,25,1,4,114,J 20,Number,Y,FALSE,OE,p,936,997029,,,,,,,,,
CVOE updated,25,1,4,115,O 19,Letter,Y,FALSE,CV,q,1078,998621,,,,,,,,,
CVOE updated,25,1,4,116,H 50,Letter,N,FALSE,CV,q,1317,1000460,,,,,,,,,
CVOE updated,25,1,4,117,I 68,Number,Y,TRUE,OE,p,976,1001951,,,,,,,,,
CVOE updated,25,1,4,118,J 72,Number,N,FALSE,OE,p,2138,1004613,,,,,,,,,
CVOE updated,25,1,4,119,O 21,Number,N,FALSE,OE,q,1237,1006361,,,,,,,,,
CVOE updated,25,1,4,120,H 22,Number,N,FALSE,OE,p,988,1007862,,,,,,,,,
CVOE_B,22,1,1,11,A 24,,,TRUE,OE,p,2054,1084301,,,,,,,,,
CVOE_B,22,1,1,12,O 83,,,FALSE,OE,q,2162,1086981,,,,,,,,,
CVOE_B,22,1,1,13,H 55,,,TRUE,OE,q,1699,1089197,,,,,,,,,
CVOE_B,22,1,1,14,P 10,,,FALSE,OE,p,1183,1090893,,,,,,,,,
CVOE_B,22,1,1,15,D 30,,,FALSE,OE,p,1109,1092525,,,,,,,,,
CVOE_B,22,1,1,16,U 62,,,TRUE,OE,p,931,1093973,,,,,,,,,
CVOE_B,22,1,1,17,P 95,,,TRUE,OE,q,678,1095173,,,,,,,,,
CVOE_B,22,1,1,18,U 06,,,TRUE,OE,p,870,1096565,,,,,,,,,
CVOE_B,22,1,1,19,E 75,,,FALSE,OE,q,980,1098061,,,,,,,,,
CVOE_B,22,1,1,20,I 67,,,FALSE,OE,q,786,1099373,,,,,,,,,
CVOE_B,22,1,1,21,S 13,,,TRUE,OE,q,752,1100645,,,,,,,,,
CVOE_B,22,1,1,22,P 78,,,FALSE,OE,p,678,1101837,,,,,,,,,
CVOE_B,22,1,1,23,I 15,,,FALSE,OE,q,678,1103037,,,,,,,,,
CVOE_B,22,1,1,24,D 27,,,TRUE,OE,q,775,1104333,,,,,,,,,
CVOE_B,22,1,1,25,O 94,,,TRUE,OE,p,658,1105509,,,,,,,,,
CVOE_B,22,1,1,26,A 65,,,FALSE,OE,q,845,1106869,,,,,,,,,
CVOE_B,22,1,1,27,I 42,,,TRUE,OE,p,685,1108069,,,,,,,,,
CVOE_B,22,1,1,28,E 25,,,FALSE,OE,q,526,1109109,,,,,,,,,
CVOE_B,22,1,1,29,H 49,,,TRUE,OE,q,806,1110429,,,,,,,,,
CVOE_B,22,1,1,30,S 18,,,FALSE,OE,p,663,1111605,,,,,,,,,
CVOE_B,22,1,1,31,H 51,,,TRUE,OE,q,629,1112757,,,,,,,,,
CVOE_B,22,1,1,32,U 14,,,TRUE,OE,p,674,1113949,,,,,,,,,
CVOE_B,22,1,1,33,E 02,,,TRUE,OE,p,827,1115301,,,,,,,,,
CVOE_B,22,1,1,34,J 26,,,FALSE,OE,p,721,1116541,,,,,,,,,
CVOE_B,22,1,1,35,D 24,,,FALSE,OE,p,681,1117741,,,,,,,,,
CVOE_B,22,1,1,36,O 50,,,TRUE,OE,p,738,1118997,,,,,,,,,
CVOE_B,22,1,1,37,U 16,,,TRUE,OE,p,1013,1120525,,,,,,,,,
CVOE_B,22,1,1,38,O 15,,,FALSE,OE,q,584,1121629,,,,,,,,,
CVOE_B,22,1,1,39,D 32,,,FALSE,OE,p,862,1123013,,,,,,,,,
CVOE_B,22,1,1,40,S 67,,,TRUE,OE,q,668,1124205,,,,,,,,,
CVOE_B,22,1,1,41,J 74,,,FALSE,OE,p,841,1125565,,,,,,,,,
CVOE_B,22,1,1,42,D 92,,,FALSE,OE,p,810,1126893,,,,,,,,,
CVOE_B,22,1,1,43,A 65,,,FALSE,OE,q,701,1128117,,,,,,,,,
CVOE_B,22,1,1,44,I 87,,,FALSE,OE,q,667,1129309,,,,,,,,,
CVOE_B,22,1,1,45,H 61,,,TRUE,OE,q,697,1130525,,,,,,,,,
CVOE_B,22,1,1,46,E 59,,,FALSE,OE,q,820,1131861,,,,,,,,,
CVOE_B,22,1,1,47,I 33,,,FALSE,OE,q,591,1132965,,,,,,,,,
CVOE_B,22,1,1,48,O 90,,,TRUE,OE,p,661,1134141,,,,,,,,,
CVOE_B,22,1,1,49,U 51,,,FALSE,OE,q,634,1135301,,,,,,,,,
CVOE_B,22,1,1,50,A 10,,,TRUE,OE,p,707,1136533,,,,,,,,,
CVOE_B,22,1,1,51,E 50,,,TRUE,OE,p,801,1137853,,,,,,,,,
CVOE_B,22,1,1,52,D 92,,,FALSE,OE,p,689,1139061,,,,,,,,,
CVOE_B,22,1,1,53,E 60,,,TRUE,OE,p,532,1140117,,,,,,,,,
CVOE_B,22,1,1,54,A 95,,,FALSE,OE,q,535,1141173,,,,,,,,,
CVOE_B,22,1,1,55,E 64,,,TRUE,OE,p,682,1142373,,,,,,,,,
CVOE_B,22,1,1,56,P 20,,,FALSE,OE,p,643,1143533,,,,,,,,,
CVOE_B,22,1,1,57,S 06,,,FALSE,OE,p,851,1144901,,,,,,,,,
CVOE_B,22,1,1,58,P 64,,,FALSE,OE,p,743,1146165,,,,,,,,,
CVOE_B,22,1,1,59,U 70,,,TRUE,OE,p,532,1147221,,,,,,,,,
CVOE_B,22,1,1,60,S 16,,,FALSE,OE,p,735,1148477,,,,,,,,,
CVOE_B,22,1,1,61,E 35,,,FALSE,OE,q,563,1149557,,,,,,,,,
CVOE_B,22,1,1,62,I 93,,,FALSE,OE,q,659,1150733,,,,,,,,,
CVOE_B,22,1,1,63,D 63,,,TRUE,OE,q,678,1151925,,,,,,,,,
CVOE_B,22,1,1,64,U 89,,,FALSE,OE,q,575,1153021,,,,,,,,,
CVOE_B,22,1,1,65,E 91,,,FALSE,OE,q,522,1154061,,,,,,,,,
CVOE_B,22,1,1,66,A 12,,,TRUE,OE,p,610,1155189,,,,,,,,,
CVOE_B,22,1,1,67,P 56,,,FALSE,OE,p,733,1156445,,,,,,,,,
CVOE_B,22,1,1,68,S 65,,,TRUE,OE,q,752,1157717,,,,,,,,,
CVOE_B,22,1,1,69,P 07,,,TRUE,OE,q,1198,1159429,,,,,,,,,
CVOE_B,22,1,1,70,I 77,,,FALSE,OE,q,815,1160765,,,,,,,,,
CVOE_B,22,1,1,71,J 19,,,TRUE,OE,q,570,1161853,,,,,,,,,
CVOE_B,22,1,1,72,O 59,,,FALSE,OE,q,1357,1163733,,,,,,,,,
CVOE_B,22,1,1,73,J 15,,,TRUE,OE,q,598,1164853,,,,,,,,,
CVOE_B,22,1,1,74,I 89,,,FALSE,OE,q,686,1166061,,,,,,,,,
CVOE_B,22,1,1,75,O 97,,,FALSE,OE,q,503,1167077,,,,,,,,,
CVOE_B,22,1,1,76,A 92,,,TRUE,OE,p,516,1168117,,,,,,,,,
CVOE_B,22,1,1,77,J 90,,,FALSE,OE,p,701,1169341,,,,,,,,,
CVOE_B,22,1,1,78,H 65,,,TRUE,OE,q,547,1170413,,,,,,,,,
CVOE_B,22,1,1,79,H 17,,,TRUE,OE,q,752,1171685,,,,,,,,,
CVOE_B,22,1,1,80,S 26,,,FALSE,OE,p,798,1172997,,,,,,,,,
CVOE_B,22,1,1,81,D 56,,,FALSE,OE,p,703,1174221,,,,,,,,,
CVOE_B,22,1,1,82,I 91,,,FALSE,OE,q,564,1175309,,,,,,,,,
CVOE_B,22,1,1,83,J 11,,,TRUE,OE,q,813,1176637,,,,,,,,,
CVOE_B,22,1,1,84,O 28,,,TRUE,OE,p,664,1177821,,,,,,,,,
CVOE_B,22,1,1,85,H 29,,,TRUE,OE,q,582,1178925,,,,,,,,,
CVOE_B,22,1,1,86,J 25,,,TRUE,OE,q,836,1180285,,,,,,,,,
CVOE_B,22,1,1,87,A 73,,,FALSE,OE,q,660,1181469,,,,,,,,,
CVOE_B,22,1,1,88,J 63,,,TRUE,OE,q,607,1182589,,,,,,,,,
CVOE_B,22,1,1,89,U 84,,,TRUE,OE,p,954,1184069,,,,,,,,,
CVOE_B,22,1,1,90,A 58,,,TRUE,OE,p,883,1185477,,,,,,,,,
CVOE_B,22,1,1,91,S 43,,,TRUE,OE,q,707,1186701,,,,,,,,,
CVOE_B,22,1,1,92,H 54,,,FALSE,OE,p,897,1188117,,,,,,,,,
CVOE_B,22,1,1,93,D 4,,,FALSE,OE,p,876,1189509,,,,,,,,,
CVOE_B,22,1,1,94,J 75,,,TRUE,OE,q,565,1190597,,,,,,,,,
CVOE_B,22,1,1,95,D 19,,,TRUE,OE,q,573,1191685,,,,,,,,,
CVOE_B,22,1,1,96,J 38,,,FALSE,OE,p,640,1192845,,,,,,,,,
CVOE_B,22,1,1,97,I 56,,,TRUE,OE,p,913,1194277,,,,,,,,,
CVOE_B,22,1,1,98,P 87,,,TRUE,OE,q,743,1195533,,,,,,,,,
CVOE_B,22,1,1,99,O 80,,,TRUE,OE,p,1045,1197101,,,,,,,,,
CVOE_B,22,1,1,100,U 60,,,TRUE,OE,p,557,1198173,,,,,,,,,
CVOE_B,22,1,1,101,P 48,,,FALSE,OE,p,582,1199277,,,,,,,,,
CVOE_B,22,1,1,102,H 64,,,FALSE,OE,p,459,1200261,,,,,,,,,
CVOE_B,22,1,1,103,A 13,,,FALSE,OE,q,590,1201365,,,,,,,,,
CVOE_B,22,1,1,104,H 68,,,FALSE,OE,p,652,1202533,,,,,,,,,
CVOE_B,22,1,1,105,E 16,,,TRUE,OE,p,503,1203557,,,,,,,,,
CVOE_B,22,1,1,106,S 71,,,TRUE,OE,q,653,1204733,,,,,,,,,
CVOE_B,22,1,2,11,A 71,,,FALSE,CV,p,5735,1257477,,,,,,,,,
CVOE_B,22,1,2,12,I 66,,,TRUE,CV,p,804,1258797,,,,,,,,,
CVOE_B,22,1,2,13,S 30,,,FALSE,CV,q,741,1260053,,,,,,,,,
CVOE_B,22,1,2,14,D 20,,,FALSE,CV,q,738,1261317,,,,,,,,,
CVOE_B,22,1,2,15,I 31,,,FALSE,CV,p,542,1262373,,,,,,,,,
CVOE_B,22,1,2,16,P 16,,,FALSE,CV,q,731,1263629,,,,,,,,,
CVOE_B,22,1,2,17,A 49,,,FALSE,CV,p,558,1264709,,,,,,,,,
CVOE_B,22,1,2,18,O 64,,,TRUE,CV,p,727,1265957,,,,,,,,,
CVOE_B,22,1,2,19,D 02,,,FALSE,CV,q,674,1267157,,,,,,,,,
CVOE_B,22,1,2,20,P 81,,,TRUE,CV,q,570,1268253,,,,,,,,,
CVOE_B,22,1,2,21,J 58,,,FALSE,CV,q,822,1269597,,,,,,,,,
CVOE_B,22,1,2,22,A 22,,,TRUE,CV,p,643,1270765,,,,,,,,,
CVOE_B,22,1,2,23,J 72,,,FALSE,CV,q,788,1272069,,,,,,,,,
CVOE_B,22,1,2,24,P 91,,,TRUE,CV,q,674,1273261,,,,,,,,,
CVOE_B,22,1,2,25,E 19,,,FALSE,CV,p,666,1274453,,,,,,,,,
CVOE_B,22,1,2,26,I 30,,,TRUE,CV,p,832,1275805,,,,,,,,,
CVOE_B,22,1,2,27,D 91,,,TRUE,CV,q,614,1276933,,,,,,,,,
CVOE_B,22,1,2,28,O 48,,,TRUE,CV,p,721,1278173,,,,,,,,,
CVOE_B,22,1,2,29,A 89,,,FALSE,CV,p,609,1279301,,,,,,,,,
CVOE_B,22,1,2,30,U 11,,,FALSE,CV,p,636,1280461,,,,,,,,,
CVOE_B,22,1,2,31,I 76,,,TRUE,CV,p,581,1281565,,,,,,,,,
CVOE_B,22,1,2,32,U 89,,,FALSE,CV,p,539,1282629,,,,,,,,,
CVOE_B,22,1,2,33,D 63,,,TRUE,CV,q,486,1283629,,,,,,,,,
CVOE_B,22,1,2,34,H 70,,,FALSE,CV,q,694,1284837,,,,,,,,,
CVOE_B,22,1,2,35,D 48,,,FALSE,CV,q,745,1286101,,,,,,,,,
CVOE_B,22,1,2,36,P 56,,,FALSE,CV,q,607,1287229,,,,,,,,,
CVOE_B,22,1,2,37,O 77,,,FALSE,CV,p,642,1288397,,,,,,,,,
CVOE_B,22,1,2,38,P 42,,,FALSE,CV,q,947,1289861,,,,,,,,,
CVOE_B,22,1,2,39,H 22,,,FALSE,CV,q,848,1291229,,,,,,,,,
CVOE_B,22,1,2,40,E 42,,,TRUE,CV,p,532,1292285,,,,,,,,,
CVOE_B,22,1,2,41,J 28,,,FALSE,CV,q,543,1293349,,,,,,,,,
CVOE_B,22,1,2,42,E 95,,,FALSE,CV,p,564,1294437,,,,,,,,,
CVOE_B,22,1,2,43,S 63,,,TRUE,CV,q,629,1295581,,,,,,,,,
CVOE_B,22,1,2,44,H 50,,,FALSE,CV,q,523,1296621,,,,,,,,,
CVOE_B,22,1,2,45,S 33,,,TRUE,CV,q,547,1297685,,,,,,,,,
CVOE_B,22,1,2,46,P 57,,,TRUE,CV,q,625,1298829,,,,,,,,,
CVOE_B,22,1,2,47,E 23,,,FALSE,CV,p,703,1300053,,,,,,,,,
CVOE_B,22,1,2,48,S 61,,,TRUE,CV,q,468,1301045,,,,,,,,,
CVOE_B,22,1,2,49,U 67,,,FALSE,CV,p,650,1302213,,,,,,,,,
CVOE_B,22,1,2,50,H 32,,,FALSE,CV,q,533,1303269,,,,,,,,,
CVOE_B,22,1,2,51,U 50,,,TRUE,CV,p,440,1304229,,,,,,,,,
CVOE_B,22,1,2,52,O 49,,,FALSE,CV,p,521,1305269,,,,,,,,,
CVOE_B,22,1,2,53,U 32,,,TRUE,CV,p,577,1306365,,,,,,,,,
CVOE_B,22,1,2,54,J 78,,,FALSE,CV,q,548,1307429,,,,,,,,,
CVOE_B,22,1,2,55,S 54,,,FALSE,CV,q,610,1308557,,,,,,,,,
CVOE_B,22,1,2,56,J 27,,,TRUE,CV,q,885,1309965,,,,,,,,,
CVOE_B,22,1,2,57,S 06,,,FALSE,CV,q,733,1311213,,,,,,,,,
CVOE_B,22,1,2,58,D 67,,,TRUE,CV,q,625,1312357,,,,,,,,,
CVOE_B,22,1,2,59,A 79,,,FALSE,CV,p,494,1313373,,,,,,,,,
CVOE_B,22,1,2,60,S 52,,,FALSE,CV,q,617,1314509,,,,,,,,,
CVOE_B,22,1,2,61,U 16,,,TRUE,CV,p,677,1315701,,,,,,,,,
CVOE_B,22,1,2,62,O 82,,,TRUE,CV,p,669,1316893,,,,,,,,,
CVOE_B,22,1,2,63,H 87,,,TRUE,CV,q,763,1318173,,,,,,,,,
CVOE_B,22,1,2,64,I 32,,,TRUE,CV,p,635,1319325,,,,,,,,,
CVOE_B,22,1,2,65,U 37,,,FALSE,CV,p,668,1320517,,,,,,,,,
CVOE_B,22,1,2,66,I 42,,,TRUE,CV,p,650,1321685,,,,,,,,,
CVOE_B,22,1,2,67,D 65,,,TRUE,CV,q,525,1322733,,,,,,,,,
CVOE_B,22,1,2,68,U 77,,,FALSE,CV,p,637,1323885,,,,,,,,,
CVOE_B,22,1,2,69,E 12,,,TRUE,CV,p,685,1325093,,,,,,,,,
CVOE_B,22,1,2,70,I 60,,,TRUE,CV,p,494,1326101,,,,,,,,,
CVOE_B,22,1,2,71,J 36,,,FALSE,CV,q,545,1327165,,,,,,,,,
CVOE_B,22,1,2,72,H 75,,,TRUE,CV,q,519,1328205,,,,,,,,,
CVOE_B,22,1,2,73,I 50,,,TRUE,CV,p,687,1329413,,,,,,,,,
CVOE_B,22,1,2,74,E 99,,,FALSE,CV,p,698,1330637,,,,,,,,,
CVOE_B,22,1,2,75,A 86,,,TRUE,CV,p,445,1331597,,,,,,,,,
CVOE_B,22,1,2,76,U 48,,,TRUE,CV,p,534,1332645,,,,,,,,,
CVOE_B,22,1,2,77,E 01,,,FALSE,CV,p,689,1333853,,,,,,,,,
CVOE_B,22,1,2,78,A 78,,,TRUE,CV,p,492,1334869,,,,,,,,,
CVOE_B,22,1,2,79,P 60,,,FALSE,CV,q,647,1336037,,,,,,,,,
CVOE_B,22,1,2,80,E 43,,,FALSE,CV,p,1226,1337789,,,,,,,,,
CVOE_B,22,1,2,81,D 69,,,TRUE,CV,q,488,1338797,,,,,,,,,
CVOE_B,22,1,2,82,H 11,,,TRUE,CV,q,619,1339941,,,,,,,,,
CVOE_B,22,1,2,83,P 43,,,TRUE,CV,q,518,1340973,,,,,,,,,
CVOE_B,22,1,2,84,O 67,,,FALSE,CV,p,663,1342157,,,,,,,,,
CVOE_B,22,1,2,85,S 91,,,FALSE,CV,q,564,1343245,,,,,,,,,
CVOE_B,22,1,2,86,J 68,,,TRUE,CV,q,781,1344541,,,,,,,,,
CVOE_B,22,1,2,87,S 47,,,FALSE,CV,q,499,1345565,,,,,,,,,
CVOE_B,22,1,2,88,I 81,,,TRUE,CV,p,518,1346597,,,,,,,,,
CVOE_B,22,1,2,89,J 39,,,FALSE,CV,q,606,1347725,,,,,,,,,
CVOE_B,22,1,2,90,A 11,,,TRUE,CV,p,543,1348781,,,,,,,,,
CVOE_B,22,1,2,91,O 76,,,FALSE,CV,p,732,1350037,,,,,,,,,
CVOE_B,22,1,2,92,A 62,,,FALSE,CV,p,543,1351101,,,,,,,,,
CVOE_B,22,1,2,93,O 27,,,TRUE,CV,p,509,1352133,,,,,,,,,
CVOE_B,22,1,2,94,E 66,,,FALSE,CV,p,555,1353205,,,,,,,,,
CVOE_B,22,1,2,95,J 62,,,TRUE,CV,q,611,1354341,,,,,,,,,
CVOE_B,22,1,2,96,H 72,,,TRUE,CV,q,822,1355685,,,,,,,,,
CVOE_B,22,1,2,97,E 49,,,TRUE,CV,p,556,1356765,,,,,,,,,
CVOE_B,22,1,2,98,D 52,,,TRUE,CV,q,653,1357941,,,,,,,,,
CVOE_B,22,1,2,99,H 62,,,TRUE,CV,q,720,1359181,,,,,,,,,
CVOE_B,22,1,2,100,I 11,,,TRUE,CV,p,560,1360261,,,,,,,,,
CVOE_B,22,1,2,101,A 98,,,FALSE,CV,p,801,1361581,,,,,,,,,
CVOE_B,22,1,2,102,H 29,,,FALSE,CV,q,1001,1363101,,,,,,,,,
CVOE_B,22,1,2,103,E 83,,,TRUE,CV,p,698,1364317,,,,,,,,,
CVOE_B,22,1,2,104,D 43,,,FALSE,CV,q,493,1365325,,,,,,,,,
CVOE_B,22,1,2,105,P 45,,,TRUE,CV,q,512,1366357,,,,,,,,,
CVOE_B,22,1,2,106,J 17,,,TRUE,CV,q,470,1367341,,,,,,,,,
CVOE_B,22,1,3,11,U 38,Number,N,TRUE,OE,p,14676,1462077,,,,,,,,,
CVOE_B,22,1,3,12,P 73,Number,N,TRUE,OE,q,5186,1467781,,,,,,,,,
CVOE_B,22,1,3,13,U 95,Letter,Y,FALSE,CV,p,4594,1472893,,,,,,,,,
CVOE_B,22,1,3,14,J 61,Number,Y,TRUE,OE,q,1236,1474653,,,,,,,,,
CVOE_B,22,1,3,15,D 51,Number,N,TRUE,OE,q,2500,1477677,,,,,,,,,
CVOE_B,22,1,3,16,S 28,Number,N,FALSE,OE,p,1779,1479981,,,,,,,,,
CVOE_B,22,1,3,17,A 56,Letter,Y,TRUE,CV,p,2038,1482533,,,,,,,,,
CVOE_B,22,1,3,18,H 78,Letter,N,FALSE,CV,q,943,1483997,,,,,,,,,
CVOE_B,22,1,3,19,P 92,Letter,N,FALSE,CV,q,1141,1485661,,,,,,,,,
CVOE_B,22,1,3,20,E 05,Number,Y,FALSE,OE,q,1547,1487733,,,,,,,,,
CVOE_B,22,1,3,21,P 57,Letter,Y,TRUE,CV,q,1289,1489541,,,,,,,,,
CVOE_B,22,1,3,22,D 88,Number,Y,FALSE,OE,p,1445,1491509,,,,,,,,,
CVOE_B,22,1,3,23,O 89,Letter,Y,FALSE,CV,p,2485,1494509,,,,,,,,,
CVOE_B,22,1,3,24,U 43,Number,Y,FALSE,OE,q,4311,1499333,,,,,,,,,
CVOE_B,22,1,3,25,H 10,Number,N,FALSE,OE,p,1966,1501813,,,,,,,,,
CVOE_B,22,1,3,26,S 07,Letter,Y,TRUE,CV,q,1543,1503869,,,,,,,,,
CVOE_B,22,1,3,27,J 10,Letter,N,FALSE,CV,q,1453,1505845,,,,,,,,,
CVOE_B,22,1,3,28,H 54,Number,Y,FALSE,OE,p,1680,1508045,,,,,,,,,
CVOE_B,22,1,3,29,E 99,Number,N,FALSE,OE,q,2825,1511389,,,,,,,,,
CVOE_B,22,1,3,30,J 36,Letter,Y,FALSE,CV,q,3760,1515669,,,,,,,,,
CVOE_B,22,1,3,31,I 94,Letter,N,TRUE,CV,p,1049,1517237,,,,,,,,,
CVOE_B,22,1,3,32,A 82,Letter,N,TRUE,CV,p,1341,1519101,,,,,,,,,
CVOE_B,22,1,3,33,H 79,Number,Y,TRUE,OE,q,1315,1520941,,,,,,,,,
CVOE_B,22,1,3,34,J 60,Number,N,FALSE,OE,p,1395,1522861,,,,,,,,,
CVOE_B,22,1,3,35,S 28,Letter,Y,FALSE,CV,p,2268,1525653,,,,,,,,,
CVOE_B,22,1,3,36,P 11,Number,Y,TRUE,OE,q,10690,1536861,,,,,,,,,
CVOE_B,22,1,3,37,D 39,Number,N,TRUE,OE,q,1265,1538645,,,,,,,,,
CVOE_B,22,1,3,38,E 90,Number,N,TRUE,OE,p,1327,1540493,,,,,,,,,
CVOE_B,22,1,3,39,I 38,Number,N,TRUE,OE,p,2355,1543373,,,,,,,,,
CVOE_B,22,1,3,40,S 35,Letter,Y,TRUE,CV,q,1980,1545877,,,,,,,,,
CVOE_B,22,1,3,41,D 41,Number,Y,TRUE,OE,q,1890,1548293,,,,,,,,,
CVOE_B,22,1,3,42,E 06,Number,N,TRUE,OE,p,3574,1552389,,,,,,,,,
CVOE_B,22,1,3,43,A 27,Number,N,FALSE,OE,q,1682,1554589,,,,,,,,,
CVOE_B,22,1,3,44,U 95,Letter,Y,FALSE,CV,p,1507,1556613,,,,,,,,,
CVOE_B,22,1,3,45,A 53,Letter,N,FALSE,CV,p,849,1557981,,,,,,,,,
CVOE_B,22,1,3,46,E 43,Letter,N,FALSE,CV,p,1132,1559637,,,,,,,,,
CVOE_B,22,1,3,47,P 05,Number,Y,TRUE,OE,q,1719,1561877,,,,,,,,,
CVOE_B,22,1,3,48,O 19,Letter,Y,FALSE,CV,p,2088,1564485,,,,,,,,,
CVOE_B,22,1,3,49,I 96,Number,Y,TRUE,OE,p,2236,1567245,,,,,,,,,
CVOE_B,22,1,3,50,A 88,Number,N,TRUE,OE,p,1197,1568965,,,,,,,,,
CVOE_B,22,1,3,51,I 67,Number,N,FALSE,OE,q,1422,1570909,,,,,,,,,
CVOE_B,22,1,3,52,D 40,Number,N,FALSE,OE,p,1356,1572789,,,,,,,,,
CVOE_B,22,1,3,53,P 79,Letter,Y,TRUE,CV,q,1812,1575125,,,,,,,,,
CVOE_B,22,1,3,54,U 24,Number,Y,TRUE,OE,p,1216,1576861,,,,,,,,,
CVOE_B,22,1,3,55,P 74,Number,N,FALSE,OE,p,2283,1579661,,,,,,,,,
CVOE_B,22,1,3,56,E 70,Number,N,TRUE,OE,p,892,1581069,,,,,,,,,
CVOE_B,22,1,3,57,S 27,Number,N,TRUE,OE,q,1360,1582949,,,,,,,,,
CVOE_B,22,1,3,58,E 54,Letter,Y,TRUE,CV,p,920,1584389,,,,,,,,,
CVOE_B,22,1,3,59,A 53,Letter,N,FALSE,CV,p,1465,1586373,,,,,,,,,
CVOE_B,22,1,3,60,P 34,Letter,N,FALSE,CV,q,1503,1588397,,,,,,,,,
CVOE_B,22,1,3,61,D 74,Number,Y,FALSE,OE,q,805,1589725,,,,,,,,,
CVOE_B,22,1,3,62,A 03,Letter,Y,FALSE,CV,p,1213,1591453,,,,,,,,,
CVOE_B,22,1,3,63,E 24,Number,Y,TRUE,OE,p,1985,1593957,,,,,,,,,
CVOE_B,22,1,3,64,I 58,Letter,Y,TRUE,CV,p,2127,1596605,,,,,,,,,
CVOE_B,22,1,3,65,D 77,Number,Y,TRUE,OE,q,1987,1599117,,,,,,,,,
CVOE_B,22,1,3,66,S 75,Number,N,TRUE,OE,q,1321,1600957,,,,,,,,,
CVOE_B,22,1,3,67,I 20,Letter,Y,TRUE,CV,p,2922,1604397,,,,,,,,,
CVOE_B,22,1,3,68,J 52,Letter,N,FALSE,CV,q,1251,1606165,,,,,,,,,
CVOE_B,22,1,3,69,A 38,Number,Y,TRUE,OE,p,2094,1608781,,,,,,,,,
CVOE_B,22,1,3,70,I 60,Letter,Y,TRUE,CV,p,1826,1611125,,,,,,,,,
CVOE_B,22,1,3,71,S 51,Number,Y,TRUE,OE,q,2576,1614221,,,,,,,,,
CVOE_B,22,1,3,72,D 63,Letter,Y,TRUE,CV,q,1844,1616581,,,,,,,,,
CVOE_B,22,1,3,73,U 27,Letter,N,FALSE,CV,p,1245,1618341,,,,,,,,,
CVOE_B,22,1,3,74,J 77,Letter,N,TRUE,CV,q,3742,1622597,,,,,,,,,
CVOE_B,22,1,3,75,O 15,Number,Y,FALSE,OE,p,965,1624085,,,,,,,,,
CVOE_B,22,1,3,76,J 20,Letter,Y,FALSE,CV,q,5853,1630453,,,,,,,,,
CVOE_B,22,1,3,77,U 97,Number,Y,FALSE,OE,q,1658,1632629,,,,,,,,,
CVOE_B,22,1,3,78,H 03,Number,N,TRUE,OE,q,1190,1634333,,,,,,,,,
CVOE_B,22,1,3,79,O 04,Letter,Y,TRUE,CV,p,1756,1636605,,,,,,,,,
CVOE_B,22,1,3,80,E 10,Letter,N,TRUE,CV,p,1285,1638413,,,,,,,,,
CVOE_B,22,1,3,81,I 52,Letter,N,TRUE,CV,p,957,1639885,,,,,,,,,
CVOE_B,22,1,3,82,H 81,Number,Y,TRUE,OE,q,1782,1642189,,,,,,,,,
CVOE_B,22,1,3,83,I 41,Number,N,FALSE,OE,q,2684,1645397,,,,,,,,,
CVOE_B,22,1,3,84,U 19,Letter,Y,FALSE,CV,p,1741,1647653,,,,,,,,,
CVOE_B,22,1,3,85,O 17,Number,Y,FALSE,OE,q,3004,1651181,,,,,,,,,
CVOE_B,22,1,3,86,A 10,Number,N,TRUE,OE,p,1661,1653357,,,,,,,,,
CVOE_B,22,1,3,87,P 93,Letter,Y,TRUE,CV,q,1851,1655733,,,,,,,,,
CVOE_B,22,1,3,88,E 59,Letter,N,FALSE,CV,p,2087,1658341,,,,,,,,,
CVOE_B,22,1,3,89,O 53,Letter,N,FALSE,CV,p,3234,1662101,,,,,,,,,
CVOE_B,22,1,3,90,A 96,Letter,N,TRUE,CV,p,1116,1663741,,,,,,,,,
CVOE_B,22,1,3,91,H 36,Letter,Y,FALSE,CV,q,1204,1665469,,,,,,,,,
CVOE_B,22,1,3,92,A 63,Letter,N,FALSE,CV,p,1021,1667005,,,,,,,,,
CVOE_B,22,1,3,93,I 38,Letter,N,TRUE,CV,p,2387,1669917,,,,,,,,,
CVOE_B,22,1,3,94,O 51,Number,Y,FALSE,OE,q,1553,1671989,,,,,,,,,
CVOE_B,22,1,3,95,J 26,Number,N,FALSE,OE,p,1322,1673837,,,,,,,,,
CVOE_B,22,1,3,96,S 34,Letter,Y,FALSE,CV,q,5067,1679421,,,,,,,,,
CVOE_B,22,1,3,97,U 85,Number,Y,FALSE,OE,q,2506,1682445,,,,,,,,,
CVOE_B,22,1,3,98,J 77,Number,N,TRUE,OE,q,1097,1684061,,,,,,,,,
CVOE_B,22,1,3,99,I 73,Letter,Y,FALSE,CV,p,1828,1686405,,,,,,,,,
CVOE_B,22,1,3,100,H 46,Number,Y,FALSE,OE,p,1586,1688509,,,,,,,,,
CVOE_B,22,1,3,101,D 04,Number,N,FALSE,OE,p,1792,1690821,,,,,,,,,
CVOE_B,22,1,3,102,P 72,Letter,Y,FALSE,CV,q,1727,1693061,,,,,,,,,
CVOE_B,22,1,3,103,D 99,Number,Y,TRUE,OE,q,1450,1695037,,,,,,,,,
CVOE_B,22,1,3,104,U 25,Letter,Y,FALSE,CV,p,1662,1697221,,,,,,,,,
CVOE_B,22,1,3,105,O 32,Letter,N,TRUE,CV,p,1996,1699741,,,,,,,,,
CVOE_B,22,1,3,106,E 80,Letter,N,TRUE,CV,p,1389,1701653,,,,,,,,,
CVOE_B,22,1,3,107,O 84,Number,Y,TRUE,OE,p,2571,1704741,,,,,,,,,
CVOE_B,22,1,3,108,A 78,Number,N,TRUE,OE,p,1119,1706381,,,,,,,,,
CVOE_B,22,1,3,109,S 05,Number,N,TRUE,OE,q,983,1707885,,,,,,,,,
CVOE_B,22,1,3,110,U 35,Letter,Y,FALSE,CV,p,1245,1709653,,,,,,,,,
CVOE_B,22,1,3,111,H 14,Letter,N,FALSE,CV,q,2478,1712645,,,,,,,,,
CVOE_B,22,1,3,112,U 15,Number,Y,FALSE,OE,q,1687,1714853,,,,,,,,,
CVOE_B,22,1,3,113,E 36,Letter,Y,TRUE,CV,p,2379,1717757,,,,,,,,,
CVOE_B,22,1,3,114,P 70,Letter,N,FALSE,CV,q,2926,1721197,,,,,,,,,
CVOE_B,22,1,3,115,O 44,Number,Y,TRUE,OE,p,1626,1723349,,,,,,,,,
CVOE_B,22,1,3,116,S 41,Letter,Y,TRUE,CV,q,1312,1725181,,,,,,,,,
CVOE_B,22,1,3,117,D 83,Letter,N,TRUE,CV,q,3542,1729237,,,,,,,,,
CVOE_B,22,1,3,118,J 39,Letter,N,TRUE,CV,q,981,1730741,,,,,,,,,
CVOE_B,22,1,3,119,S 22,Number,Y,FALSE,OE,p,1555,1732821,,,,,,,,,
CVOE_B,22,1,3,120,D 89,Letter,Y,TRUE,CV,q,1340,1734685,,,,,,,,,
CVOE_B,22,1,3,121,P 87,Letter,N,TRUE,CV,q,1122,1736333,,,,,,,,,
CVOE_B,22,1,3,122,H 42,Letter,N,FALSE,CV,q,779,1737629,,,,,,,,,
CVOE_B,22,1,3,123,S 49,Letter,N,TRUE,CV,q,1054,1739197,,,,,,,,,
CVOE_B,22,1,3,124,J 20,Number,Y,FALSE,OE,p,1129,1740845,,,,,,,,,
CVOE_B,22,1,3,125,O 19,Letter,Y,FALSE,CV,p,2012,1743381,,,,,,,,,
CVOE_B,22,1,3,126,H 50,Letter,N,FALSE,CV,q,928,1744829,,,,,,,,,
CVOE_B,22,1,3,127,I 68,Number,Y,TRUE,OE,p,1683,1747037,,,,,,,,,
CVOE_B,22,1,3,128,J 72,Number,N,FALSE,OE,p,2892,1750445,,,,,,,,,
CVOE_B,22,1,3,129,O 21,Number,N,FALSE,OE,q,1408,1752373,,,,,,,,,
CVOE_B,22,1,3,130,H 22,Number,N,FALSE,OE,p,1195,1754093,,,,,,,,,
CVOE_B,22,1,4,1,A 44,Letter,N,TRUE,CV,p,6085,1769165,,,,,,,,,
CVOE_B,22,1,4,2,D 94,Letter,N,FALSE,CV,q,1207,1770885,,,,,,,,,
CVOE_B,22,1,4,3,E 75,Number,Y,FALSE,OE,q,1803,1773213,,,,,,,,,
CVOE_B,22,1,4,4,H 81,Number,N,TRUE,OE,q,923,1774653,,,,,,,,,
CVOE_B,22,1,4,5,I 64,Letter,Y,TRUE,CV,p,844,1776013,,,,,,,,,
CVOE_B,22,1,4,6,J 54,Letter,N,FALSE,CV,q,940,1777469,,,,,,,,,
CVOE_B,22,1,4,7,O 23,Number,Y,FALSE,OE,q,1714,1779709,,,,,,,,,
CVOE_B,22,1,4,8,P 05,Number,N,TRUE,OE,q,1227,1781461,,,,,,,,,
CVOE_B,22,1,4,9,S 34,Letter,Y,FALSE,CV,q,1065,1783045,,,,,,,,,
CVOE_B,22,1,4,10,U 88,Letter,N,TRUE,CV,p,967,1784533,,,,,,,,,
CVOE_B,22,1,4,11,A 70,Number,Y,TRUE,OE,p,1650,1786709,,,,,,,,,
CVOE_B,22,1,4,12,D 12,Number,N,FALSE,OE,p,1574,1788805,,,,,,,,,
CVOE_B,22,1,4,13,E 79,Letter,Y,FALSE,CV,p,1689,1791013,,,,,,,,,
CVOE_B,22,1,4,14,H 72,Letter,N,FALSE,CV,q,2829,1794365,,,,,,,,,
CVOE_B,22,1,4,15,I 41,Number,Y,FALSE,OE,q,2691,1797573,,,,,,,,,
CVOE_B,22,1,4,16,J 63,Number,N,TRUE,OE,q,1143,1799237,,,,,,,,,
CVOE_B,22,1,4,17,O 03,Letter,Y,FALSE,CV,p,1701,1801461,,,,,,,,,
CVOE_B,22,1,4,18,P 75,Letter,N,TRUE,CV,q,964,1802949,,,,,,,,,
CVOE_B,22,1,4,19,S 61,Number,Y,TRUE,OE,q,1980,1805445,,,,,,,,,
CVOE_B,22,1,4,20,U 28,Number,N,TRUE,OE,p,986,1806957,,,,,,,,,
CVOE_B,22,1,4,21,A 21,Letter,Y,FALSE,CV,q,2728,1810205,,,,,,,,,
CVOE_B,22,1,4,22,D 18,Letter,N,FALSE,CV,q,1580,1812309,,,,,,,,,
CVOE_B,22,1,4,23,E 35,Number,Y,FALSE,OE,q,3170,1816005,,,,,,,,,
CVOE_B,22,1,4,24,H 62,Number,N,FALSE,OE,p,1078,1817605,,,,,,,,,
CVOE_B,22,1,4,25,I 82,Letter,Y,TRUE,CV,p,1567,1819693,,,,,,,,,
CVOE_B,22,1,4,26,J 78,Letter,N,FALSE,CV,q,3162,1823381,,,,,,,,,
CVOE_B,22,1,4,27,O 12,Number,Y,TRUE,OE,p,1676,1825573,,,,,,,,,
CVOE_B,22,1,4,28,P 13,Number,N,TRUE,OE,q,1237,1827333,,,,,,,,,
CVOE_B,22,1,4,29,S 07,Letter,Y,TRUE,CV,q,1573,1829429,,,,,,,,,
CVOE_B,22,1,4,30,U 36,Letter,N,TRUE,CV,p,929,1830877,,,,,,,,,
CVOE_B,22,1,4,31,A 96,Number,Y,TRUE,OE,p,2036,1833437,,,,,,,,,
CVOE_B,22,1,4,32,D 04,Number,N,FALSE,OE,p,757,1834717,,,,,,,,,
CVOE_B,22,1,4,33,E 60,Letter,Y,TRUE,CV,p,1790,1837029,,,,,,,,,
CVOE_B,22,1,4,34,H 83,Letter,N,TRUE,CV,q,2748,1840293,,,,,,,,,
CVOE_B,22,1,4,35,I 64,Number,Y,TRUE,OE,p,1826,1842637,,,,,,,,,
CVOE_B,22,1,4,36,J 76,Number,N,FALSE,OE,p,945,1844101,,,,,,,,,
CVOE_B,22,1,4,37,O 78,Letter,Y,TRUE,CV,p,1838,1846461,,,,,,,,,
CVOE_B,22,1,4,38,P 09,Letter,N,TRUE,CV,q,1399,1848381,,,,,,,,,
CVOE_B,22,1,4,39,S 72,Number,Y,FALSE,OE,p,1168,1850069,,,,,,,,,
CVOE_B,22,1,4,40,U 47,Number,N,FALSE,OE,q,2219,1852813,,,,,,,,,
CVOE_B,22,1,4,41,A 31,Letter,Y,FALSE,CV,p,1591,1854917,,,,,,,,,
CVOE_B,22,1,4,42,D 96,Letter,N,FALSE,CV,q,1149,1856581,,,,,,,,,
CVOE_B,22,1,4,43,E 40,Number,Y,TRUE,OE,p,1395,1858493,,,,,,,,,
CVOE_B,22,1,4,44,H 79,Number,N,TRUE,OE,q,1276,1860293,,,,,,,,,
CVOE_B,22,1,4,45,I 15,Letter,Y,FALSE,CV,p,2021,1862837,,,,,,,,,
CVOE_B,22,1,4,46,J 07,Letter,N,TRUE,CV,q,915,1864277,,,,,,,,,
CVOE_B,22,1,4,47,O 61,Number,Y,FALSE,OE,q,2555,1867357,,,,,,,,,
CVOE_B,22,1,4,48,P 58,Number,N,FALSE,OE,p,981,1868861,,,,,,,,,
CVOE_B,22,1,4,49,S 37,Letter,Y,TRUE,CV,q,1027,1870413,,,,,,,,,
CVOE_B,22,1,4,50,U 61,Letter,N,FALSE,CV,p,1592,1872525,,,,,,,,,
CVOE_B,22,1,4,51,A 17,Number,Y,FALSE,OE,q,1775,1874813,,,,,,,,,
CVOE_B,22,1,4,52,D 85,Number,N,TRUE,OE,q,1282,1876613,,,,,,,,,
CVOE_B,22,1,4,53,E 20,Letter,Y,TRUE,CV,p,1147,1878277,,,,,,,,,
CVOE_B,22,1,4,54,H 86,Letter,N,FALSE,CV,q,2273,1881069,,,,,,,,,
CVOE_B,22,1,4,55,I 21,Number,Y,FALSE,OE,q,2751,1884333,,,,,,,,,
CVOE_B,22,1,4,56,J 29,Number,N,TRUE,OE,q,1062,1885909,,,,,,,,,
CVOE_B,22,1,4,57,O 13,Letter,Y,FALSE,CV,p,1436,1887869,,,,,,,,,
CVOE_B,22,1,4,58,P 82,Letter,N,FALSE,CV,q,1613,1890005,,,,,,,,,
CVOE_B,22,1,4,59,S 72,Number,Y,FALSE,OE,p,1440,1891965,,,,,,,,,
CVOE_B,22,1,4,60,U 84,Number,N,TRUE,OE,p,2481,1894965,,,,,,,,,
CVOE_B,22,1,4,61,A 49,Letter,Y,FALSE,CV,p,2226,1897709,,,,,,,,,
CVOE_B,22,1,4,62,D 91,Letter,N,TRUE,CV,q,992,1899221,,,,,,,,,
CVOE_B,22,1,4,63,E 99,Number,Y,FALSE,OE,q,1982,1901717,,,,,,,,,
CVOE_B,22,1,4,64,H 16,Number,N,FALSE,OE,p,1332,1903573,,,,,,,,,
CVOE_B,22,1,4,65,I 45,Letter,Y,FALSE,CV,p,1160,1905253,,,,,,,,,
CVOE_B,22,1,4,66,J 70,Letter,N,FALSE,CV,q,2128,1907901,,,,,,,,,
CVOE_B,22,1,4,67,O 22,Number,Y,TRUE,OE,p,2052,1910477,,,,,,,,,
CVOE_B,22,1,4,68,P 41,Number,N,TRUE,OE,q,1232,1912229,,,,,,,,,
CVOE_B,22,1,4,69,S 93,Letter,Y,TRUE,CV,q,2238,1914981,,,,,,,,,
CVOE_B,22,1,4,70,U 70,Letter,N,TRUE,CV,p,927,1916429,,,,,,,,,
CVOE_B,22,1,4,71,A 42,Number,Y,TRUE,OE,p,1018,1917973,,,,,,,,,
CVOE_B,22,1,4,72,D 85,Number,N,TRUE,OE,q,1509,1919997,,,,,,,,,
CVOE_B,22,1,4,73,E 68,Letter,Y,TRUE,CV,p,2203,1922717,,,,,,,,,
CVOE_B,22,1,4,74,H 17,Letter,N,TRUE,CV,q,1044,1924277,,,,,,,,,
CVOE_B,22,1,4,75,I 70,Number,Y,TRUE,OE,p,1853,1926645,,,,,,,,,
CVOE_B,22,1,4,76,J 88,Number,N,FALSE,OE,p,1097,1928261,,,,,,,,,
CVOE_B,22,1,4,77,O 32,Letter,Y,TRUE,CV,p,1604,1930381,,,,,,,,,
CVOE_B,22,1,4,78,P 95,Letter,N,TRUE,CV,q,909,1931805,,,,,,,,,
CVOE_B,22,1,4,79,S 98,Number,Y,FALSE,OE,p,1331,1933653,,,,,,,,,
CVOE_B,22,1,4,80,U 37,Number,N,FALSE,OE,q,1326,1935501,,,,,,,,,
CVOE_B,22,1,4,81,A 56,Letter,Y,TRUE,CV,p,1175,1937189,,,,,,,,,
CVOE_B,22,1,4,82,D 57,Letter,N,TRUE,CV,q,842,1938549,,,,,,,,,
CVOE_B,22,1,4,83,E 93,Number,Y,FALSE,OE,p,946,1940013,,,,,,,,,
CVOE_B,22,1,4,84,H 27,Number,N,TRUE,OE,q,1472,1942005,,,,,,,,,
CVOE_B,22,1,4,85,I 35,Letter,Y,FALSE,CV,p,1654,1944173,,,,,,,,,
CVOE_B,22,1,4,86,J 03,Letter,N,TRUE,CV,q,1114,1945805,,,,,,,,,
CVOE_B,22,1,4,87,O 28,Number,Y,TRUE,OE,p,1643,1947973,,,,,,,,,
CVOE_B,22,1,4,88,P 59,Number,N,TRUE,OE,q,1107,1949597,,,,,,,,,
CVOE_B,22,1,4,89,S 77,Letter,Y,TRUE,CV,q,2353,1952469,,,,,,,,,
CVOE_B,22,1,4,90,U 05,Letter,N,FALSE,CV,p,1610,1954605,,,,,,,,,
CVOE_B,22,1,4,91,A 56,Number,Y,TRUE,OE,p,1214,1956341,,,,,,,,,
CVOE_B,22,1,4,92,D 01,Number,N,TRUE,OE,q,993,1957853,,,,,,,,,
CVOE_B,22,1,4,93,E 02,Letter,Y,TRUE,CV,p,1154,1959533,,,,,,,,,
CVOE_B,22,1,4,94,H 68,Letter,N,FALSE,CV,q,906,1960965,,,,,,,,,
CVOE_B,22,1,4,95,I 05,Number,Y,FALSE,OE,q,1472,1962957,,,,,,,,,
CVOE_B,22,1,4,96,J 55,Number,N,TRUE,OE,q,1182,1964653,,,,,,,,,
CVOE_B,22,1,4,97,O 73,Letter,Y,FALSE,CV,p,1420,1966597,,,,,,,,,
CVOE_B,22,1,4,98,P 41,Letter,N,TRUE,CV,q,3690,1970813,,,,,,,,,
CVOE_B,22,1,4,99,S 92,Number,Y,FALSE,OE,p,1375,1972709,,,,,,,,,
CVOE_B,22,1,4,100,U 34,Number,N,TRUE,OE,p,1266,1974493,,,,,,,,,
CVOE_B,22,1,4,101,A 09,Letter,Y,FALSE,CV,p,1992,1977005,,,,,,,,,
CVOE_B,22,1,4,102,D 92,Letter,N,FALSE,CV,q,1414,1978933,,,,,,,,,
CVOE_B,22,1,4,103,E 48,Number,Y,TRUE,OE,p,1322,1980773,,,,,,,,,
CVOE_B,22,1,4,104,H 76,Number,N,FALSE,OE,p,979,1982269,,,,,,,,,
CVOE_B,22,1,4,105,I 44,Letter,Y,TRUE,CV,p,1134,1983917,,,,,,,,,
CVOE_B,22,1,4,106,J 67,Letter,N,TRUE,CV,q,1593,1986029,,,,,,,,,
CVOE_B,22,1,4,107,O 48,Number,Y,TRUE,OE,p,1511,1988053,,,,,,,,,
CVOE_B,22,1,4,108,P 22,Number,N,FALSE,OE,p,1029,1989597,,,,,,,,,
CVOE_B,22,1,4,109,S 86,Letter,Y,FALSE,CV,q,1379,1991493,,,,,,,,,
CVOE_B,22,1,4,110,U 35,Letter,N,FALSE,CV,p,1943,1993949,,,,,,,,,
CVOE_B,22,1,4,111,A 91,Number,Y,FALSE,OE,q,1357,1995829,,,,,,,,,
CVOE_B,22,1,4,112,D 78,Number,N,FALSE,OE,p,1206,1997557,,,,,,,,,
CVOE_B,22,1,4,113,E 91,Letter,Y,FALSE,CV,p,2094,2000165,,,,,,,,,
CVOE_B,22,1,4,114,H 54,Letter,N,FALSE,CV,q,834,2001517,,,,,,,,,
CVOE_B,22,1,4,115,I 65,Number,Y,FALSE,OE,q,3898,2005941,,,,,,,,,
CVOE_B,22,1,4,116,J 52,Number,N,FALSE,OE,p,2151,2008605,,,,,,,,,
CVOE_B,22,1,4,117,O 19,Letter,Y,FALSE,CV,q,1605,2010725,,,,,,,,,
CVOE_B,22,1,4,118,P 48,Letter,N,FALSE,CV,q,1270,2012509,,,,,,,,,
CVOE_B,22,1,4,119,S 45,Number,Y,TRUE,OE,q,3380,2016405,,,,,,,,,
CVOE_B,22,1,4,120,U 26,Number,N,TRUE,OE,p,1603,2018533,,,,,,,,,
CVOE_B,26,1,1,11,A 24,,,TRUE,OE,p,934,164759,,,,,,,,,
CVOE_B,26,1,1,12,O 83,,,FALSE,OE,q,448,165722,,,,,,,,,
CVOE_B,26,1,1,13,H 55,,,TRUE,OE,q,479,166720,,,,,,,,,
CVOE_B,26,1,1,14,P 10,,,FALSE,OE,p,565,167805,,,,,,,,,
CVOE_B,26,1,1,15,D 30,,,FALSE,OE,p,505,168829,,,,,,,,,
CVOE_B,26,1,1,16,U 62,,,TRUE,OE,p,531,169871,,,,,,,,,
CVOE_B,26,1,1,17,P 95,,,TRUE,OE,q,613,171003,,,,,,,,,
CVOE_B,26,1,1,18,U 06,,,TRUE,OE,p,573,172096,,,,,,,,,
CVOE_B,26,1,1,19,E 75,,,FALSE,OE,q,580,173186,,,,,,,,,
CVOE_B,26,1,1,20,I 67,,,FALSE,OE,q,547,174253,,,,,,,,,
CVOE_B,26,1,1,21,S 13,,,TRUE,OE,q,636,175408,,,,,,,,,
CVOE_B,26,1,1,22,P 78,,,FALSE,OE,p,701,176623,,,,,,,,,
CVOE_B,26,1,1,23,I 15,,,FALSE,OE,q,631,177769,,,,,,,,,
CVOE_B,26,1,1,24,D 27,,,TRUE,OE,q,576,178864,,,,,,,,,
CVOE_B,26,1,1,25,O 94,,,TRUE,OE,p,571,179959,,,,,,,,,
CVOE_B,26,1,1,26,A 65,,,FALSE,OE,q,551,181022,,,,,,,,,
CVOE_B,26,1,1,27,I 42,,,TRUE,OE,p,575,182112,,,,,,,,,
CVOE_B,26,1,1,28,E 25,,,FALSE,OE,q,486,183106,,,,,,,,,
CVOE_B,26,1,1,29,H 49,,,TRUE,OE,q,607,184227,,,,,,,,,
CVOE_B,26,1,1,30,S 18,,,FALSE,OE,p,635,185371,,,,,,,,,
CVOE_B,26,1,1,31,H 51,,,TRUE,OE,q,596,186482,,,,,,,,,
CVOE_B,26,1,1,32,U 14,,,TRUE,OE,p,765,187767,,,,,,,,,
CVOE_B,26,1,1,33,E 02,,,TRUE,OE,p,554,188839,,,,,,,,,
CVOE_B,26,1,1,34,J 26,,,FALSE,OE,p,520,189872,,,,,,,,,
CVOE_B,26,1,1,35,D 24,,,FALSE,OE,p,536,190921,,,,,,,,,
CVOE_B,26,1,1,36,O 50,,,TRUE,OE,p,562,191997,,,,,,,,,
CVOE_B,26,1,1,37,U 16,,,TRUE,OE,p,538,193056,,,,,,,,,
CVOE_B,26,1,1,38,O 15,,,FALSE,OE,q,580,194148,,,,,,,,,
CVOE_B,26,1,1,39,D 32,,,FALSE,OE,p,476,195143,,,,,,,,,
CVOE_B,26,1,1,40,S 67,,,TRUE,OE,q,634,196301,,,,,,,,,
CVOE_B,26,1,1,41,J 74,,,FALSE,OE,p,452,197269,,,,,,,,,
CVOE_B,26,1,1,42,D 92,,,FALSE,OE,p,666,198449,,,,,,,,,
CVOE_B,26,1,1,43,A 65,,,FALSE,OE,q,489,199455,,,,,,,,,
CVOE_B,26,1,1,44,I 87,,,FALSE,OE,q,652,200618,,,,,,,,,
CVOE_B,26,1,1,45,H 61,,,TRUE,OE,q,640,201772,,,,,,,,,
CVOE_B,26,1,1,46,E 59,,,FALSE,OE,q,536,202818,,,,,,,,,
CVOE_B,26,1,1,47,I 33,,,FALSE,OE,q,692,204024,,,,,,,,,
CVOE_B,26,1,1,48,O 90,,,TRUE,OE,p,487,205019,,,,,,,,,
CVOE_B,26,1,1,49,U 51,,,FALSE,OE,q,526,206057,,,,,,,,,
CVOE_B,26,1,1,50,A 10,,,TRUE,OE,p,708,207289,,,,,,,,,
CVOE_B,26,1,1,51,E 50,,,TRUE,OE,p,479,208276,,,,,,,,,
CVOE_B,26,1,1,52,D 92,,,FALSE,OE,p,503,209300,,,,,,,,,
CVOE_B,26,1,1,53,E 60,,,TRUE,OE,p,383,210197,,,,,,,,,
CVOE_B,26,1,1,54,A 95,,,FALSE,OE,q,596,211309,,,,,,,,,
CVOE_B,26,1,1,55,E 64,,,TRUE,OE,p,459,212289,,,,,,,,,
CVOE_B,26,1,1,56,P 20,,,FALSE,OE,p,448,213261,,,,,,,,,
CVOE_B,26,1,1,57,S 06,,,FALSE,OE,p,363,214142,,,,,,,,,
CVOE_B,26,1,1,58,P 64,,,FALSE,OE,p,515,215177,,,,,,,,,
CVOE_B,26,1,1,59,U 70,,,TRUE,OE,p,442,216138,,,,,,,,,
CVOE_B,26,1,1,60,S 16,,,FALSE,OE,p,1509,218171,,,,,,,,,
CVOE_B,26,1,1,61,E 35,,,FALSE,OE,q,448,219143,,,,,,,,,
CVOE_B,26,1,1,62,I 93,,,FALSE,OE,q,550,220211,,,,,,,,,
CVOE_B,26,1,1,63,D 63,,,TRUE,OE,q,477,221205,,,,,,,,,
CVOE_B,26,1,1,64,U 89,,,FALSE,OE,q,645,222372,,,,,,,,,
CVOE_B,26,1,1,65,E 91,,,FALSE,OE,q,565,223459,,,,,,,,,
CVOE_B,26,1,1,66,A 12,,,TRUE,OE,p,465,224442,,,,,,,,,
CVOE_B,26,1,1,67,P 56,,,FALSE,OE,p,493,225453,,,,,,,,,
CVOE_B,26,1,1,68,S 65,,,TRUE,OE,q,518,226494,,,,,,,,,
CVOE_B,26,1,1,69,P 07,,,TRUE,OE,p,554,227563,,,,,,,,,
CVOE_B,26,1,1,70,I 77,,,FALSE,OE,q,864,228940,,,,,,,,,
CVOE_B,26,1,1,71,J 19,,,TRUE,OE,q,559,230018,,,,,,,,,
CVOE_B,26,1,1,72,O 59,,,FALSE,OE,q,651,231193,,,,,,,,,
CVOE_B,26,1,1,73,J 15,,,TRUE,OE,q,500,232208,,,,,,,,,
CVOE_B,26,1,1,74,I 89,,,FALSE,OE,q,573,233298,,,,,,,,,
CVOE_B,26,1,1,75,O 97,,,FALSE,OE,q,495,234303,,,,,,,,,
CVOE_B,26,1,1,76,A 92,,,TRUE,OE,p,630,235454,,,,,,,,,
CVOE_B,26,1,1,77,J 90,,,FALSE,OE,p,653,236627,,,,,,,,,
CVOE_B,26,1,1,78,H 65,,,TRUE,OE,q,528,237668,,,,,,,,,
CVOE_B,26,1,1,79,H 17,,,TRUE,OE,q,843,239033,,,,,,,,,
CVOE_B,26,1,1,80,S 26,,,FALSE,OE,p,603,240159,,,,,,,,,
CVOE_B,26,1,1,81,D 56,,,FALSE,OE,p,463,241136,,,,,,,,,
CVOE_B,26,1,1,82,I 91,,,FALSE,OE,q,563,242219,,,,,,,,,
CVOE_B,26,1,1,83,J 11,,,TRUE,OE,q,528,243267,,,,,,,,,
CVOE_B,26,1,1,84,O 28,,,TRUE,OE,p,613,244402,,,,,,,,,
CVOE_B,26,1,1,85,H 29,,,TRUE,OE,q,521,245443,,,,,,,,,
CVOE_B,26,1,1,86,J 25,,,TRUE,OE,q,2268,248223,,,,,,,,,
CVOE_B,26,1,1,87,A 73,,,FALSE,OE,q,1344,250082,,,,,,,,,
CVOE_B,26,1,1,88,J 63,,,TRUE,OE,q,825,251429,,,,,,,,,
CVOE_B,26,1,1,89,U 84,,,TRUE,OE,p,895,252849,,,,,,,,,
CVOE_B,26,1,1,90,A 58,,,TRUE,OE,p,913,254283,,,,,,,,,
CVOE_B,26,1,1,91,S 43,,,TRUE,OE,q,1046,255849,,,,,,,,,
CVOE_B,26,1,1,92,H 54,,,FALSE,OE,p,1543,257912,,,,,,,,,
CVOE_B,26,1,1,93,D 4,,,FALSE,OE,p,1135,259570,,,,,,,,,
CVOE_B,26,1,1,94,J 75,,,TRUE,OE,q,1007,261092,,,,,,,,,
CVOE_B,26,1,1,95,D 19,,,TRUE,OE,q,1346,262947,,,,,,,,,
CVOE_B,26,1,1,96,J 38,,,FALSE,OE,p,798,264265,,,,,,,,,
CVOE_B,26,1,1,97,I 56,,,TRUE,OE,p,1252,266036,,,,,,,,,
CVOE_B,26,1,1,98,P 87,,,TRUE,OE,q,1004,267554,,,,,,,,,
CVOE_B,26,1,1,99,O 80,,,TRUE,OE,p,1251,269317,,,,,,,,,
CVOE_B,26,1,1,100,U 60,,,TRUE,OE,p,1316,271149,,,,,,,,,
CVOE_B,26,1,1,101,P 48,,,FALSE,OE,p,673,272339,,,,,,,,,
CVOE_B,26,1,1,102,H 64,,,FALSE,OE,p,770,273619,,,,,,,,,
CVOE_B,26,1,1,103,A 13,,,FALSE,OE,q,1048,275180,,,,,,,,,
CVOE_B,26,1,1,104,H 68,,,FALSE,OE,p,892,276590,,,,,,,,,
CVOE_B,26,1,1,105,E 16,,,TRUE,OE,p,1203,278301,,,,,,,,,
CVOE_B,26,1,1,106,S 71,,,TRUE,OE,q,691,279505,,,,,,,,,
CVOE_B,26,1,2,11,A 71,,,FALSE,CV,p,2805,315594,,,,,,,,,
CVOE_B,26,1,2,12,I 66,,,TRUE,CV,p,675,316780,,,,,,,,,
CVOE_B,26,1,2,13,S 30,,,FALSE,CV,q,549,317854,,,,,,,,,
CVOE_B,26,1,2,14,D 20,,,FALSE,CV,q,602,318973,,,,,,,,,
CVOE_B,26,1,2,15,I 31,,,FALSE,CV,p,1113,320600,,,,,,,,,
CVOE_B,26,1,2,16,P 16,,,FALSE,CV,q,541,321661,,,,,,,,,
CVOE_B,26,1,2,17,A 49,,,FALSE,CV,p,455,322625,,,,,,,,,
CVOE_B,26,1,2,18,O 64,,,TRUE,CV,p,668,323805,,,,,,,,,
CVOE_B,26,1,2,19,D 02,,,FALSE,CV,q,554,324874,,,,,,,,,
CVOE_B,26,1,2,20,P 81,,,TRUE,CV,q,457,325843,,,,,,,,,
CVOE_B,26,1,2,21,J 58,,,FALSE,CV,q,488,326841,,,,,,,,,
CVOE_B,26,1,2,22,A 22,,,TRUE,CV,p,329,327681,,,,,,,,,
CVOE_B,26,1,2,23,J 72,,,FALSE,CV,q,453,328655,,,,,,,,,
CVOE_B,26,1,2,24,P 91,,,TRUE,CV,q,471,329639,,,,,,,,,
CVOE_B,26,1,2,25,E 19,,,FALSE,CV,p,587,330739,,,,,,,,,
CVOE_B,26,1,2,26,I 30,,,TRUE,CV,p,455,331706,,,,,,,,,
CVOE_B,26,1,2,27,D 91,,,TRUE,CV,q,532,332750,,,,,,,,,
CVOE_B,26,1,2,28,O 48,,,TRUE,CV,p,412,333679,,,,,,,,,
CVOE_B,26,1,2,29,A 89,,,FALSE,CV,p,916,335117,,,,,,,,,
CVOE_B,26,1,2,30,U 11,,,FALSE,CV,p,536,336170,,,,,,,,,
CVOE_B,26,1,2,31,I 76,,,TRUE,CV,p,439,337122,,,,,,,,,
CVOE_B,26,1,2,32,U 89,,,FALSE,CV,p,491,338124,,,,,,,,,
CVOE_B,26,1,2,33,D 63,,,TRUE,CV,q,570,339203,,,,,,,,,
CVOE_B,26,1,2,34,H 70,,,FALSE,CV,q,611,340327,,,,,,,,,
CVOE_B,26,1,2,35,D 48,,,FALSE,CV,q,505,341354,,,,,,,,,
CVOE_B,26,1,2,36,P 56,,,FALSE,CV,q,475,342340,,,,,,,,,
CVOE_B,26,1,2,37,O 77,,,FALSE,CV,p,484,343332,,,,,,,,,
CVOE_B,26,1,2,38,P 42,,,FALSE,CV,q,685,344533,,,,,,,,,
CVOE_B,26,1,2,39,H 22,,,FALSE,CV,q,513,345561,,,,,,,,,
CVOE_B,26,1,2,40,E 42,,,TRUE,CV,p,895,346976,,,,,,,,,
CVOE_B,26,1,2,41,J 28,,,FALSE,CV,q,1011,348509,,,,,,,,,
CVOE_B,26,1,2,42,E 95,,,FALSE,CV,p,595,349625,,,,,,,,,
CVOE_B,26,1,2,43,S 63,,,TRUE,CV,q,1262,351409,,,,,,,,,
CVOE_B,26,1,2,44,H 50,,,FALSE,CV,q,589,352519,,,,,,,,,
CVOE_B,26,1,2,45,S 33,,,TRUE,CV,q,591,353620,,,,,,,,,
CVOE_B,26,1,2,46,P 57,,,TRUE,CV,q,404,354533,,,,,,,,,
CVOE_B,26,1,2,47,E 23,,,FALSE,CV,p,462,355508,,,,,,,,,
CVOE_B,26,1,2,48,S 61,,,TRUE,CV,q,568,356597,,,,,,,,,
CVOE_B,26,1,2,49,U 67,,,FALSE,CV,p,489,357601,,,,,,,,,
CVOE_B,26,1,2,50,H 32,,,FALSE,CV,q,601,358713,,,,,,,,,
CVOE_B,26,1,2,51,U 50,,,TRUE,CV,p,449,359677,,,,,,,,,
CVOE_B,26,1,2,52,O 49,,,FALSE,CV,p,763,360957,,,,,,,,,
CVOE_B,26,1,2,53,U 32,,,TRUE,CV,p,534,362011,,,,,,,,,
CVOE_B,26,1,2,54,J 78,,,FALSE,CV,q,567,363094,,,,,,,,,
CVOE_B,26,1,2,55,S 54,,,FALSE,CV,q,493,364103,,,,,,,,,
CVOE_B,26,1,2,56,J 27,,,TRUE,CV,q,376,365003,,,,,,,,,
CVOE_B,26,1,2,57,S 06,,,FALSE,CV,q,439,365965,,,,,,,,,
CVOE_B,26,1,2,58,D 67,,,TRUE,CV,q,614,367090,,,,,,,,,
CVOE_B,26,1,2,59,A 79,,,FALSE,CV,p,412,368021,,,,,,,,,
CVOE_B,26,1,2,60,S 52,,,FALSE,CV,q,419,368961,,,,,,,,,
CVOE_B,26,1,2,61,U 16,,,TRUE,CV,p,401,369876,,,,,,,,,
CVOE_B,26,1,2,62,O 82,,,TRUE,CV,p,574,370966,,,,,,,,,
CVOE_B,26,1,2,63,H 87,,,TRUE,CV,q,449,371924,,,,,,,,,
CVOE_B,26,1,2,64,I 32,,,TRUE,CV,p,473,372914,,,,,,,,,
CVOE_B,26,1,2,65,U 37,,,FALSE,CV,p,496,373921,,,,,,,,,
CVOE_B,26,1,2,66,I 42,,,TRUE,CV,p,360,374801,,,,,,,,,
CVOE_B,26,1,2,67,D 65,,,TRUE,CV,q,564,375888,,,,,,,,,
CVOE_B,26,1,2,68,U 77,,,FALSE,CV,p,596,377003,,,,,,,,,
CVOE_B,26,1,2,69,E 12,,,TRUE,CV,q,868,378392,,,,,,,,,
CVOE_B,26,1,2,70,I 60,,,TRUE,CV,p,615,379522,,,,,,,,,
CVOE_B,26,1,2,71,J 36,,,FALSE,CV,q,797,380837,,,,,,,,,
CVOE_B,26,1,2,72,H 75,,,TRUE,CV,q,749,382105,,,,,,,,,
CVOE_B,26,1,2,73,I 50,,,TRUE,CV,p,524,383146,,,,,,,,,
CVOE_B,26,1,2,74,E 99,,,FALSE,CV,p,498,384153,,,,,,,,,
CVOE_B,26,1,2,75,A 86,,,TRUE,CV,p,622,385294,,,,,,,,,
CVOE_B,26,1,2,76,U 48,,,TRUE,CV,p,591,386396,,,,,,,,,
CVOE_B,26,1,2,77,E 01,,,FALSE,CV,p,593,387498,,,,,,,,,
CVOE_B,26,1,2,78,A 78,,,TRUE,CV,p,458,388479,,,,,,,,,
CVOE_B,26,1,2,79,P 60,,,FALSE,CV,q,586,389573,,,,,,,,,
CVOE_B,26,1,2,80,E 43,,,FALSE,CV,p,475,390562,,,,,,,,,
CVOE_B,26,1,2,81,D 69,,,TRUE,CV,q,486,391556,,,,,,,,,
CVOE_B,26,1,2,82,H 11,,,TRUE,CV,q,624,392694,,,,,,,,,
CVOE_B,26,1,2,83,P 43,,,TRUE,CV,q,563,393766,,,,,,,,,
CVOE_B,26,1,2,84,O 67,,,FALSE,CV,p,581,394867,,,,,,,,,
CVOE_B,26,1,2,85,S 91,,,FALSE,CV,q,506,395892,,,,,,,,,
CVOE_B,26,1,2,86,J 68,,,TRUE,CV,q,458,396860,,,,,,,,,
CVOE_B,26,1,2,87,S 47,,,FALSE,CV,q,458,397827,,,,,,,,,
CVOE_B,26,1,2,88,I 81,,,TRUE,CV,p,542,398877,,,,,,,,,
CVOE_B,26,1,2,89,J 39,,,FALSE,CV,q,485,399887,,,,,,,,,
CVOE_B,26,1,2,90,A 11,,,TRUE,CV,p,453,400854,,,,,,,,,
CVOE_B,26,1,2,91,O 76,,,FALSE,CV,p,894,402262,,,,,,,,,
CVOE_B,26,1,2,92,A 62,,,FALSE,CV,p,778,403562,,,,,,,,,
CVOE_B,26,1,2,93,O 27,,,TRUE,CV,p,530,404614,,,,,,,,,
CVOE_B,26,1,2,94,E 66,,,FALSE,CV,p,610,405744,,,,,,,,,
CVOE_B,26,1,2,95,J 62,,,TRUE,CV,q,563,406830,,,,,,,,,
CVOE_B,26,1,2,96,H 72,,,TRUE,CV,q,756,408106,,,,,,,,,
CVOE_B,26,1,2,97,E 49,,,TRUE,CV,p,521,409137,,,,,,,,,
CVOE_B,26,1,2,98,D 52,,,TRUE,CV,q,523,410172,,,,,,,,,
CVOE_B,26,1,2,99,H 62,,,TRUE,CV,q,559,411241,,,,,,,,,
CVOE_B,26,1,2,100,I 11,,,TRUE,CV,p,469,412218,,,,,,,,,
CVOE_B,26,1,2,101,A 98,,,FALSE,CV,p,864,413596,,,,,,,,,
CVOE_B,26,1,2,102,H 29,,,FALSE,CV,q,420,414535,,,,,,,,,
CVOE_B,26,1,2,103,E 83,,,TRUE,CV,p,604,415652,,,,,,,,,
CVOE_B,26,1,2,104,D 43,,,FALSE,CV,q,390,416554,,,,,,,,,
CVOE_B,26,1,2,105,P 45,,,TRUE,CV,q,597,417661,,,,,,,,,
CVOE_B,26,1,2,106,J 17,,,TRUE,CV,q,385,418566,,,,,,,,,
CVOE_B,26,1,3,11,U 38,Number,N,TRUE,OE,p,3068,504545,,,,,,,,,
CVOE_B,26,1,3,12,P 73,Number,N,TRUE,OE,q,943,506003,,,,,,,,,
CVOE_B,26,1,3,13,U 95,Letter,Y,FALSE,CV,p,1390,507916,,,,,,,,,
CVOE_B,26,1,3,14,J 61,Number,Y,TRUE,OE,q,1040,509466,,,,,,,,,
CVOE_B,26,1,3,15,D 51,Number,N,TRUE,OE,q,1322,511297,,,,,,,,,
CVOE_B,26,1,3,16,S 28,Number,N,FALSE,OE,p,997,512805,,,,,,,,,
CVOE_B,26,1,3,17,A 56,Letter,Y,TRUE,CV,p,2184,515508,,,,,,,,,
CVOE_B,26,1,3,18,H 78,Letter,N,FALSE,CV,q,870,516894,,,,,,,,,
CVOE_B,26,1,3,19,P 92,Letter,N,FALSE,CV,q,1547,518954,,,,,,,,,
CVOE_B,26,1,3,20,E 05,Number,Y,FALSE,OE,q,1471,520944,,,,,,,,,
CVOE_B,26,1,3,21,P 57,Letter,Y,TRUE,CV,q,1409,522865,,,,,,,,,
CVOE_B,26,1,3,22,D 88,Number,Y,FALSE,OE,q,1670,525059,,,,,,,,,
CVOE_B,26,1,3,23,O 89,Letter,Y,FALSE,CV,p,1277,526848,,,,,,,,,
CVOE_B,26,1,3,24,U 43,Number,Y,FALSE,OE,q,1343,528714,,,,,,,,,
CVOE_B,26,1,3,25,H 10,Number,N,FALSE,OE,p,923,530160,,,,,,,,,
CVOE_B,26,1,3,26,S 07,Letter,Y,TRUE,CV,q,1487,532157,,,,,,,,,
CVOE_B,26,1,3,27,J 10,Letter,N,FALSE,CV,q,917,533587,,,,,,,,,
CVOE_B,26,1,3,28,H 54,Number,Y,FALSE,OE,p,1298,535401,,,,,,,,,
CVOE_B,26,1,3,29,E 99,Number,N,FALSE,OE,q,990,536909,,,,,,,,,
CVOE_B,26,1,3,30,J 36,Letter,Y,FALSE,CV,q,932,538351,,,,,,,,,
CVOE_B,26,1,3,31,I 94,Letter,N,TRUE,CV,p,918,539786,,,,,,,,,
CVOE_B,26,1,3,32,A 82,Letter,N,TRUE,CV,p,1237,541538,,,,,,,,,
CVOE_B,26,1,3,33,H 79,Number,Y,TRUE,OE,q,2095,544146,,,,,,,,,
CVOE_B,26,1,3,34,J 60,Number,N,FALSE,OE,p,1194,545861,,,,,,,,,
CVOE_B,26,1,3,35,S 28,Letter,Y,FALSE,CV,q,895,547278,,,,,,,,,
CVOE_B,26,1,3,36,P 11,Number,Y,TRUE,OE,q,953,548753,,,,,,,,,
CVOE_B,26,1,3,37,D 39,Number,N,TRUE,OE,q,811,550077,,,,,,,,,
CVOE_B,26,1,3,38,E 90,Number,N,TRUE,OE,p,676,551275,,,,,,,,,
CVOE_B,26,1,3,39,I 38,Number,N,TRUE,OE,p,908,552707,,,,,,,,,
CVOE_B,26,1,3,40,S 35,Letter,Y,TRUE,CV,q,1322,554554,,,,,,,,,
CVOE_B,26,1,3,41,D 41,Number,Y,TRUE,OE,q,1063,556127,,,,,,,,,
CVOE_B,26,1,3,42,E 06,Number,N,TRUE,OE,p,842,557489,,,,,,,,,
CVOE_B,26,1,3,43,A 27,Number,N,FALSE,OE,q,758,558755,,,,,,,,,
CVOE_B,26,1,3,44,U 95,Letter,Y,FALSE,CV,p,762,560025,,,,,,,,,
CVOE_B,26,1,3,45,A 53,Letter,N,FALSE,CV,p,892,561438,,,,,,,,,
CVOE_B,26,1,3,46,E 43,Letter,N,FALSE,CV,p,732,562678,,,,,,,,,
CVOE_B,26,1,3,47,P 05,Number,Y,TRUE,OE,q,1524,564720,,,,,,,,,
CVOE_B,26,1,3,48,O 19,Letter,Y,FALSE,CV,p,1208,566453,,,,,,,,,
CVOE_B,26,1,3,49,I 96,Number,Y,TRUE,OE,p,903,567865,,,,,,,,,
CVOE_B,26,1,3,50,A 88,Number,N,TRUE,OE,p,738,569116,,,,,,,,,
CVOE_B,26,1,3,51,I 67,Number,N,FALSE,OE,q,741,570369,,,,,,,,,
CVOE_B,26,1,3,52,D 40,Number,N,FALSE,OE,p,728,571622,,,,,,,,,
CVOE_B,26,1,3,53,P 79,Letter,Y,TRUE,CV,q,1176,573320,,,,,,,,,
CVOE_B,26,1,3,54,U 24,Number,Y,TRUE,OE,p,1233,575076,,,,,,,,,
CVOE_B,26,1,3,55,P 74,Number,N,FALSE,OE,p,1963,577556,,,,,,,,,
CVOE_B,26,1,3,56,E 70,Number,N,TRUE,OE,p,628,578704,,,,,,,,,
CVOE_B,26,1,3,57,S 27,Number,N,TRUE,OE,q,732,579957,,,,,,,,,
CVOE_B,26,1,3,58,E 54,Letter,Y,TRUE,CV,p,855,581330,,,,,,,,,
CVOE_B,26,1,3,59,A 53,Letter,N,FALSE,CV,p,592,582433,,,,,,,,,
CVOE_B,26,1,3,60,P 34,Letter,N,FALSE,CV,q,642,583583,,,,,,,,,
CVOE_B,26,1,3,61,D 74,Number,Y,FALSE,OE,p,1089,585180,,,,,,,,,
CVOE_B,26,1,3,62,A 03,Letter,Y,FALSE,CV,p,1062,586752,,,,,,,,,
CVOE_B,26,1,3,63,E 24,Number,Y,TRUE,OE,p,1074,588347,,,,,,,,,
CVOE_B,26,1,3,64,I 58,Letter,Y,TRUE,CV,p,1724,590580,,,,,,,,,
CVOE_B,26,1,3,65,D 77,Number,Y,TRUE,OE,q,1538,592627,,,,,,,,,
CVOE_B,26,1,3,66,S 75,Number,N,TRUE,OE,q,622,593761,,,,,,,,,
CVOE_B,26,1,3,67,I 20,Letter,Y,TRUE,CV,p,618,594890,,,,,,,,,
CVOE_B,26,1,3,68,J 52,Letter,N,FALSE,CV,q,1203,596608,,,,,,,,,
CVOE_B,26,1,3,69,A 38,Number,Y,TRUE,OE,p,1787,598908,,,,,,,,,
CVOE_B,26,1,3,70,I 60,Letter,Y,TRUE,CV,p,1027,600448,,,,,,,,,
CVOE_B,26,1,3,71,S 51,Number,Y,TRUE,OE,q,2160,603130,,,,,,,,,
CVOE_B,26,1,3,72,D 63,Letter,Y,TRUE,CV,q,1595,605248,,,,,,,,,
CVOE_B,26,1,3,73,U 27,Letter,N,FALSE,CV,p,1121,606890,,,,,,,,,
CVOE_B,26,1,3,74,J 77,Letter,N,TRUE,CV,q,697,608099,,,,,,,,,
CVOE_B,26,1,3,75,O 15,Number,Y,FALSE,OE,q,1254,609872,,,,,,,,,
CVOE_B,26,1,3,76,J 20,Letter,Y,FALSE,CV,q,1294,611679,,,,,,,,,
CVOE_B,26,1,3,77,U 97,Number,Y,FALSE,OE,q,1007,613208,,,,,,,,,
CVOE_B,26,1,3,78,H 03,Number,N,TRUE,OE,q,1236,614953,,,,,,,,,
CVOE_B,26,1,3,79,O 04,Letter,Y,TRUE,CV,p,1192,616659,,,,,,,,,
CVOE_B,26,1,3,80,E 10,Letter,N,TRUE,CV,p,1013,618196,,,,,,,,,
CVOE_B,26,1,3,81,I 52,Letter,N,TRUE,CV,p,539,619255,,,,,,,,,
CVOE_B,26,1,3,82,H 81,Number,Y,TRUE,OE,q,912,620678,,,,,,,,,
CVOE_B,26,1,3,83,I 41,Number,N,FALSE,OE,p,676,621875,,,,,,,,,
CVOE_B,26,1,3,84,U 19,Letter,Y,FALSE,CV,p,1341,623739,,,,,,,,,
CVOE_B,26,1,3,85,O 17,Number,Y,FALSE,OE,q,1213,625461,,,,,,,,,
CVOE_B,26,1,3,86,A 10,Number,N,TRUE,OE,p,961,626942,,,,,,,,,
CVOE_B,26,1,3,87,P 93,Letter,Y,TRUE,CV,q,2893,630357,,,,,,,,,
CVOE_B,26,1,3,88,E 59,Letter,N,FALSE,CV,p,722,631602,,,,,,,,,
CVOE_B,26,1,3,89,O 53,Letter,N,FALSE,CV,p,703,632816,,,,,,,,,
CVOE_B,26,1,3,90,A 96,Letter,N,TRUE,CV,p,525,633854,,,,,,,,,
CVOE_B,26,1,3,91,H 36,Letter,Y,FALSE,CV,q,806,635168,,,,,,,,,
CVOE_B,26,1,3,92,A 63,Letter,N,FALSE,CV,p,820,636499,,,,,,,,,
CVOE_B,26,1,3,93,I 38,Letter,N,TRUE,CV,p,876,637888,,,,,,,,,
CVOE_B,26,1,3,94,O 51,Number,Y,FALSE,OE,q,1103,639514,,,,,,,,,
CVOE_B,26,1,3,95,J 26,Number,N,FALSE,OE,p,683,640710,,,,,,,,,
CVOE_B,26,1,3,96,S 34,Letter,Y,FALSE,CV,q,1390,642617,,,,,,,,,
CVOE_B,26,1,3,97,U 85,Number,Y,FALSE,OE,q,1653,644780,,,,,,,,,
CVOE_B,26,1,3,98,J 77,Number,N,TRUE,OE,q,864,646157,,,,,,,,,
CVOE_B,26,1,3,99,I 73,Letter,Y,FALSE,CV,p,815,647491,,,,,,,,,
CVOE_B,26,1,3,100,H 46,Number,Y,FALSE,OE,p,2015,650024,,,,,,,,,
CVOE_B,26,1,3,101,D 04,Number,N,FALSE,OE,p,591,651133,,,,,,,,,
CVOE_B,26,1,3,102,P 72,Letter,Y,FALSE,CV,p,545,652186,,,,,,,,,
CVOE_B,26,1,3,103,D 99,Number,Y,TRUE,OE,q,1080,653788,,,,,,,,,
CVOE_B,26,1,3,104,U 25,Letter,Y,FALSE,CV,p,1702,656009,,,,,,,,,
CVOE_B,26,1,3,105,O 32,Letter,N,TRUE,CV,p,834,657358,,,,,,,,,
CVOE_B,26,1,3,106,E 80,Letter,N,TRUE,CV,p,970,658843,,,,,,,,,
CVOE_B,26,1,3,107,O 84,Number,Y,TRUE,OE,p,1806,661162,,,,,,,,,
CVOE_B,26,1,3,108,A 78,Number,N,TRUE,OE,p,1296,662968,,,,,,,,,
CVOE_B,26,1,3,109,S 05,Number,N,TRUE,OE,q,1037,664526,,,,,,,,,
CVOE_B,26,1,3,110,U 35,Letter,Y,FALSE,CV,p,1103,666141,,,,,,,,,
CVOE_B,26,1,3,111,H 14,Letter,N,FALSE,CV,q,3954,670609,,,,,,,,,
CVOE_B,26,1,3,112,U 15,Number,Y,FALSE,OE,q,1141,672261,,,,,,,,,
CVOE_B,26,1,3,113,E 36,Letter,Y,TRUE,CV,p,2557,675343,,,,,,,,,
CVOE_B,26,1,3,114,P 70,Letter,N,FALSE,CV,q,726,676578,,,,,,,,,
CVOE_B,26,1,3,115,O 44,Number,Y,TRUE,OE,p,1692,678794,,,,,,,,,
CVOE_B,26,1,3,116,S 41,Letter,Y,TRUE,CV,q,657,679975,,,,,,,,,
CVOE_B,26,1,3,117,D 83,Letter,N,TRUE,CV,q,808,681292,,,,,,,,,
CVOE_B,26,1,3,118,J 39,Letter,N,TRUE,CV,q,685,682486,,,,,,,,,
CVOE_B,26,1,3,119,S 22,Number,Y,FALSE,OE,p,1088,684089,,,,,,,,,
CVOE_B,26,1,3,120,D 89,Letter,Y,TRUE,CV,q,1343,685943,,,,,,,,,
CVOE_B,26,1,3,121,P 87,Letter,N,TRUE,CV,q,801,687267,,,,,,,,,
CVOE_B,26,1,3,122,H 42,Letter,N,FALSE,CV,q,703,688486,,,,,,,,,
CVOE_B,26,1,3,123,S 49,Letter,N,TRUE,CV,q,568,689567,,,,,,,,,
CVOE_B,26,1,3,124,J 20,Number,Y,FALSE,OE,p,591,690673,,,,,,,,,
CVOE_B,26,1,3,125,O 19,Letter,Y,FALSE,CV,p,1054,692236,,,,,,,,,
CVOE_B,26,1,3,126,H 50,Letter,N,FALSE,CV,q,675,693423,,,,,,,,,
CVOE_B,26,1,3,127,I 68,Number,Y,TRUE,OE,p,982,694913,,,,,,,,,
CVOE_B,26,1,3,128,J 72,Number,N,FALSE,OE,p,774,696205,,,,,,,,,
CVOE_B,26,1,3,129,O 21,Number,N,FALSE,OE,q,1385,698099,,,,,,,,,
CVOE_B,26,1,3,130,H 22,Number,N,FALSE,OE,p,675,699288,,,,,,,,,
CVOE_B,26,1,4,1,A 44,Letter,N,TRUE,CV,p,3044,715737,,,,,,,,,
CVOE_B,26,1,4,2,D 94,Letter,N,FALSE,CV,q,814,717073,,,,,,,,,
CVOE_B,26,1,4,3,E 75,Number,Y,FALSE,OE,q,1809,719401,,,,,,,,,
CVOE_B,26,1,4,4,H 81,Number,N,TRUE,OE,p,1530,721455,,,,,,,,,
CVOE_B,26,1,4,5,I 64,Letter,Y,TRUE,CV,p,1622,723597,,,,,,,,,
CVOE_B,26,1,4,6,J 54,Letter,N,FALSE,CV,q,1018,725125,,,,,,,,,
CVOE_B,26,1,4,7,O 23,Number,Y,FALSE,OE,q,1230,726870,,,,,,,,,
CVOE_B,26,1,4,8,P 05,Number,N,TRUE,OE,q,895,728285,,,,,,,,,
CVOE_B,26,1,4,9,S 34,Letter,Y,FALSE,CV,p,1624,730430,,,,,,,,,
CVOE_B,26,1,4,10,U 88,Letter,N,TRUE,CV,p,1631,732570,,,,,,,,,
CVOE_B,26,1,4,11,A 70,Number,Y,TRUE,OE,p,1227,734316,,,,,,,,,
CVOE_B,26,1,4,12,D 12,Number,N,FALSE,OE,p,1043,735881,,,,,,,,,
CVOE_B,26,1,4,13,E 79,Letter,Y,FALSE,CV,q,777,737181,,,,,,,,,
CVOE_B,26,1,4,14,H 72,Letter,N,FALSE,CV,q,1914,739618,,,,,,,,,
CVOE_B,26,1,4,15,I 41,Number,Y,FALSE,OE,q,1195,741332,,,,,,,,,
CVOE_B,26,1,4,16,J 63,Number,N,TRUE,OE,q,3088,744941,,,,,,,,,
CVOE_B,26,1,4,17,O 03,Letter,Y,FALSE,CV,p,1113,746565,,,,,,,,,
CVOE_B,26,1,4,18,P 75,Letter,N,TRUE,CV,q,810,747895,,,,,,,,,
CVOE_B,26,1,4,19,S 61,Number,Y,TRUE,OE,q,865,749283,,,,,,,,,
CVOE_B,26,1,4,20,U 28,Number,N,TRUE,OE,p,1053,750854,,,,,,,,,
CVOE_B,26,1,4,21,A 21,Letter,Y,FALSE,CV,p,994,752362,,,,,,,,,
CVOE_B,26,1,4,22,D 18,Letter,N,FALSE,CV,q,857,753741,,,,,,,,,
CVOE_B,26,1,4,23,E 35,Number,Y,FALSE,OE,q,809,755059,,,,,,,,,
CVOE_B,26,1,4,24,H 62,Number,N,FALSE,OE,p,640,756207,,,,,,,,,
CVOE_B,26,1,4,25,I 82,Letter,Y,TRUE,CV,p,911,757628,,,,,,,,,
CVOE_B,26,1,4,26,J 78,Letter,N,FALSE,CV,q,660,758809,,,,,,,,,
CVOE_B,26,1,4,27,O 12,Number,Y,TRUE,OE,p,1107,760439,,,,,,,,,
CVOE_B,26,1,4,28,P 13,Number,N,TRUE,OE,q,839,761788,,,,,,,,,
CVOE_B,26,1,4,29,S 07,Letter,Y,TRUE,CV,q,848,763146,,,,,,,,,
CVOE_B,26,1,4,30,U 36,Letter,N,TRUE,CV,p,591,764256,,,,,,,,,
CVOE_B,26,1,4,31,A 96,Number,Y,TRUE,OE,p,1220,765984,,,,,,,,,
CVOE_B,26,1,4,32,D 04,Number,N,FALSE,OE,p,2686,769183,,,,,,,,,
CVOE_B,26,1,4,33,E 60,Letter,Y,TRUE,CV,p,764,770461,,,,,,,,,
CVOE_B,26,1,4,34,H 83,Letter,N,TRUE,CV,q,736,771716,,,,,,,,,
CVOE_B,26,1,4,35,I 64,Number,Y,TRUE,OE,p,635,772864,,,,,,,,,
CVOE_B,26,1,4,36,J 76,Number,N,FALSE,OE,p,844,774223,,,,,,,,,
CVOE_B,26,1,4,37,O 78,Letter,Y,TRUE,CV,p,1782,776527,,,,,,,,,
CVOE_B,26,1,4,38,P 09,Letter,N,TRUE,CV,q,1090,778135,,,,,,,,,
CVOE_B,26,1,4,39,S 72,Number,Y,FALSE,OE,p,2524,781168,,,,,,,,,
CVOE_B,26,1,4,40,U 47,Number,N,FALSE,OE,q,1402,783079,,,,,,,,,
CVOE_B,26,1,4,41,A 31,Letter,Y,FALSE,CV,p,2103,785696,,,,,,,,,
CVOE_B,26,1,4,42,D 96,Letter,N,FALSE,CV,q,742,786951,,,,,,,,,
CVOE_B,26,1,4,43,E 40,Number,Y,TRUE,OE,p,1062,788521,,,,,,,,,
CVOE_B,26,1,4,44,H 79,Number,N,TRUE,OE,q,1521,790563,,,,,,,,,
CVOE_B,26,1,4,45,I 15,Letter,Y,FALSE,CV,p,1823,792898,,,,,,,,,
CVOE_B,26,1,4,46,J 07,Letter,N,TRUE,CV,q,668,794076,,,,,,,,,
CVOE_B,26,1,4,47,O 61,Number,Y,FALSE,OE,q,1050,795641,,,,,,,,,
CVOE_B,26,1,4,48,P 58,Number,N,FALSE,OE,p,700,796857,,,,,,,,,
CVOE_B,26,1,4,49,S 37,Letter,Y,TRUE,CV,q,1110,798483,,,,,,,,,
CVOE_B,26,1,4,50,U 61,Letter,N,FALSE,CV,p,912,799918,,,,,,,,,
CVOE_B,26,1,4,51,A 17,Number,Y,FALSE,OE,q,1536,801975,,,,,,,,,
CVOE_B,26,1,4,52,D 85,Number,N,TRUE,OE,q,1361,803850,,,,,,,,,
CVOE_B,26,1,4,53,E 20,Letter,Y,TRUE,CV,p,1424,805796,,,,,,,,,
CVOE_B,26,1,4,54,H 86,Letter,N,FALSE,CV,q,716,807020,,,,,,,,,
CVOE_B,26,1,4,55,I 21,Number,Y,FALSE,OE,q,920,808457,,,,,,,,,
CVOE_B,26,1,4,56,J 29,Number,N,TRUE,OE,q,921,809891,,,,,,,,,
CVOE_B,26,1,4,57,O 13,Letter,Y,FALSE,CV,q,1872,812275,,,,,,,,,
CVOE_B,26,1,4,58,P 82,Letter,N,FALSE,CV,q,2562,815348,,,,,,,,,
CVOE_B,26,1,4,59,S 72,Number,Y,FALSE,OE,p,750,816619,,,,,,,,,
CVOE_B,26,1,4,60,U 84,Number,N,TRUE,OE,p,1294,818429,,,,,,,,,
CVOE_B,26,1,4,61,A 49,Letter,Y,FALSE,CV,p,1330,820281,,,,,,,,,
CVOE_B,26,1,4,62,D 91,Letter,N,TRUE,CV,q,730,821531,,,,,,,,,
CVOE_B,26,1,4,63,E 99,Number,Y,FALSE,OE,p,733,822784,,,,,,,,,
CVOE_B,26,1,4,64,H 16,Number,N,FALSE,OE,q,754,824054,,,,,,,,,
CVOE_B,26,1,4,65,I 45,Letter,Y,FALSE,CV,p,1403,825970,,,,,,,,,
CVOE_B,26,1,4,66,J 70,Letter,N,FALSE,CV,q,706,827189,,,,,,,,,
CVOE_B,26,1,4,67,O 22,Number,Y,TRUE,OE,p,1090,828789,,,,,,,,,
CVOE_B,26,1,4,68,P 41,Number,N,TRUE,OE,q,1558,830857,,,,,,,,,
CVOE_B,26,1,4,69,S 93,Letter,Y,TRUE,CV,q,1654,833019,,,,,,,,,
CVOE_B,26,1,4,70,U 70,Letter,N,TRUE,CV,p,985,834516,,,,,,,,,
CVOE_B,26,1,4,71,A 42,Number,Y,TRUE,OE,p,796,835827,,,,,,,,,
CVOE_B,26,1,4,72,D 85,Number,N,TRUE,OE,q,790,837137,,,,,,,,,
CVOE_B,26,1,4,73,E 68,Letter,Y,TRUE,CV,p,1146,838793,,,,,,,,,
CVOE_B,26,1,4,74,H 17,Letter,N,TRUE,CV,q,863,840176,,,,,,,,,
CVOE_B,26,1,4,75,I 70,Number,Y,TRUE,OE,p,955,841651,,,,,,,,,
CVOE_B,26,1,4,76,J 88,Number,N,FALSE,OE,p,1175,843338,,,,,,,,,
CVOE_B,26,1,4,77,O 32,Letter,Y,TRUE,CV,p,834,844679,,,,,,,,,
CVOE_B,26,1,4,78,P 95,Letter,N,TRUE,CV,q,1117,846312,,,,,,,,,
CVOE_B,26,1,4,79,S 98,Number,Y,FALSE,OE,p,1613,848441,,,,,,,,,
CVOE_B,26,1,4,80,U 37,Number,N,FALSE,OE,q,858,849819,,,,,,,,,
CVOE_B,26,1,4,81,A 56,Letter,Y,TRUE,CV,p,718,851045,,,,,,,,,
CVOE_B,26,1,4,82,D 57,Letter,N,TRUE,CV,q,942,852502,,,,,,,,,
CVOE_B,26,1,4,83,E 93,Number,Y,FALSE,OE,p,648,853675,,,,,,,,,
CVOE_B,26,1,4,84,H 27,Number,N,TRUE,OE,q,1649,855842,,,,,,,,,
CVOE_B,26,1,4,85,I 35,Letter,Y,FALSE,CV,p,1084,857443,,,,,,,,,
CVOE_B,26,1,4,86,J 03,Letter,N,TRUE,CV,q,788,858747,,,,,,,,,
CVOE_B,26,1,4,87,O 28,Number,Y,TRUE,OE,p,720,859978,,,,,,,,,
CVOE_B,26,1,4,88,P 59,Number,N,TRUE,OE,q,744,861235,,,,,,,,,
CVOE_B,26,1,4,89,S 77,Letter,Y,TRUE,CV,q,1023,862781,,,,,,,,,
CVOE_B,26,1,4,90,U 05,Letter,N,FALSE,CV,p,712,864003,,,,,,,,,
CVOE_B,26,1,4,91,A 56,Number,Y,TRUE,OE,p,943,865467,,,,,,,,,
CVOE_B,26,1,4,92,D 01,Number,N,TRUE,OE,q,791,866781,,,,,,,,,
CVOE_B,26,1,4,93,E 02,Letter,Y,TRUE,CV,p,821,868111,,,,,,,,,
CVOE_B,26,1,4,94,H 68,Letter,N,FALSE,CV,q,712,869335,,,,,,,,,
CVOE_B,26,1,4,95,I 05,Number,Y,FALSE,OE,q,2322,872178,,,,,,,,,
CVOE_B,26,1,4,96,J 55,Number,N,TRUE,OE,q,1299,873988,,,,,,,,,
CVOE_B,26,1,4,97,O 73,Letter,Y,FALSE,CV,p,726,875231,,,,,,,,,
CVOE_B,26,1,4,98,P 41,Letter,N,TRUE,CV,q,839,876593,,,,,,,,,
CVOE_B,26,1,4,99,S 92,Number,Y,FALSE,OE,p,972,878076,,,,,,,,,
CVOE_B,26,1,4,100,U 34,Number,N,TRUE,OE,p,668,879255,,,,,,,,,
CVOE_B,26,1,4,101,A 09,Letter,Y,FALSE,CV,p,1198,880968,,,,,,,,,
CVOE_B,26,1,4,102,D 92,Letter,N,FALSE,CV,q,957,882443,,,,,,,,,
CVOE_B,26,1,4,103,E 48,Number,Y,TRUE,OE,p,841,883794,,,,,,,,,
CVOE_B,26,1,4,104,H 76,Number,N,FALSE,OE,p,619,884921,,,,,,,,,
CVOE_B,26,1,4,105,I 44,Letter,Y,TRUE,CV,p,1580,887016,,,,,,,,,
CVOE_B,26,1,4,106,J 67,Letter,N,TRUE,CV,q,1273,888808,,,,,,,,,
CVOE_B,26,1,4,107,O 48,Number,Y,TRUE,OE,p,1045,890363,,,,,,,,,
CVOE_B,26,1,4,108,P 22,Number,N,FALSE,OE,p,961,891845,,,,,,,,,
CVOE_B,26,1,4,109,S 86,Letter,Y,FALSE,CV,q,1177,893544,,,,,,,,,
CVOE_B,26,1,4,110,U 35,Letter,N,FALSE,CV,p,1066,895133,,,,,,,,,
CVOE_B,26,1,4,111,A 91,Number,Y,FALSE,OE,q,923,896573,,,,,,,,,
CVOE_B,26,1,4,112,D 78,Number,N,FALSE,OE,p,713,897796,,,,,,,,,
CVOE_B,26,1,4,113,E 91,Letter,Y,FALSE,CV,p,1612,899928,,,,,,,,,
CVOE_B,26,1,4,114,H 54,Letter,N,FALSE,CV,q,734,901183,,,,,,,,,
CVOE_B,26,1,4,115,I 65,Number,Y,FALSE,OE,q,728,902426,,,,,,,,,
CVOE_B,26,1,4,116,J 52,Number,N,FALSE,OE,p,636,903584,,,,,,,,,
CVOE_B,26,1,4,117,O 19,Letter,Y,FALSE,CV,p,1297,905395,,,,,,,,,
CVOE_B,26,1,4,118,P 48,Letter,N,FALSE,CV,q,745,906659,,,,,,,,,
CVOE_B,26,1,4,119,S 45,Number,Y,TRUE,OE,q,1763,908943,,,,,,,,,
CVOE_B,26,1,4,120,U 26,Number,N,TRUE,OE,p,733,910196,,,,,,,,,
CVOE_C,23,1,1,11,A 24,,,TRUE,OE,p,1852,193014,,,,,,,,,
CVOE_C,23,1,1,12,O 83,,,FALSE,OE,q,608,194136,,,,,,,,,
CVOE_C,23,1,1,13,H 55,,,TRUE,OE,p,743,195404,,,,,,,,,
CVOE_C,23,1,1,14,P 10,,,FALSE,OE,p,1306,197234,,,,,,,,,
CVOE_C,23,1,1,15,D 30,,,FALSE,OE,p,545,198289,,,,,,,,,
CVOE_C,23,1,1,16,U 62,,,TRUE,OE,p,582,199392,,,,,,,,,
CVOE_C,23,1,1,17,P 95,,,TRUE,OE,q,689,200599,,,,,,,,,
CVOE_C,23,1,1,18,U 06,,,TRUE,OE,p,756,201866,,,,,,,,,
CVOE_C,23,1,1,19,E 75,,,FALSE,OE,q,801,203177,,,,,,,,,
CVOE_C,23,1,1,20,I 67,,,FALSE,OE,q,1379,205072,,,,,,,,,
CVOE_C,23,1,1,21,S 13,,,TRUE,OE,q,600,206192,,,,,,,,,
CVOE_C,23,1,1,22,P 78,,,FALSE,OE,p,552,207260,,,,,,,,,
CVOE_C,23,1,1,23,I 15,,,FALSE,OE,q,550,208325,,,,,,,,,
CVOE_C,23,1,1,24,D 27,,,TRUE,OE,q,1623,210464,,,,,,,,,
CVOE_C,23,1,1,25,O 94,,,TRUE,OE,p,570,211544,,,,,,,,,
CVOE_C,23,1,1,26,A 65,,,FALSE,OE,q,484,212541,,,,,,,,,
CVOE_C,23,1,1,27,I 42,,,TRUE,OE,p,536,213593,,,,,,,,,
CVOE_C,23,1,1,28,E 25,,,FALSE,OE,q,457,214564,,,,,,,,,
CVOE_C,23,1,1,29,H 49,,,TRUE,OE,q,545,215618,,,,,,,,,
CVOE_C,23,1,1,30,S 18,,,FALSE,OE,p,548,216688,,,,,,,,,
CVOE_C,23,1,1,31,H 51,,,TRUE,OE,q,533,217739,,,,,,,,,
CVOE_C,23,1,1,32,U 14,,,TRUE,OE,p,761,219017,,,,,,,,,
CVOE_C,23,1,1,33,E 02,,,TRUE,OE,p,529,220068,,,,,,,,,
CVOE_C,23,1,1,34,J 26,,,FALSE,OE,p,510,221098,,,,,,,,,
CVOE_C,23,1,1,35,D 24,,,FALSE,OE,p,456,222078,,,,,,,,,
CVOE_C,23,1,1,36,O 50,,,TRUE,OE,q,595,223183,,,,,,,,,
CVOE_C,23,1,1,37,U 16,,,TRUE,OE,p,982,224686,,,,,,,,,
CVOE_C,23,1,1,38,O 15,,,FALSE,OE,q,1121,226325,,,,,,,,,
CVOE_C,23,1,1,39,D 32,,,FALSE,OE,p,611,227448,,,,,,,,,
CVOE_C,23,1,1,40,S 67,,,TRUE,OE,q,799,228769,,,,,,,,,
CVOE_C,23,1,1,41,J 74,,,FALSE,OE,p,628,229914,,,,,,,,,
CVOE_C,23,1,1,42,D 92,,,FALSE,OE,p,654,231090,,,,,,,,,
CVOE_C,23,1,1,43,A 65,,,FALSE,OE,q,528,232131,,,,,,,,,
CVOE_C,23,1,1,44,I 87,,,FALSE,OE,q,784,233436,,,,,,,,,
CVOE_C,23,1,1,45,H 61,,,TRUE,OE,q,491,234443,,,,,,,,,
CVOE_C,23,1,1,46,E 59,,,FALSE,OE,q,431,235383,,,,,,,,,
CVOE_C,23,1,1,47,I 33,,,FALSE,OE,q,585,236486,,,,,,,,,
CVOE_C,23,1,1,48,O 90,,,TRUE,OE,q,923,237924,,,,,,,,,
CVOE_C,23,1,1,49,U 51,,,FALSE,OE,q,648,239082,,,,,,,,,
CVOE_C,23,1,1,50,A 10,,,TRUE,OE,q,633,240234,,,,,,,,,
CVOE_C,23,1,1,51,E 50,,,TRUE,OE,q,521,241271,,,,,,,,,
CVOE_C,23,1,1,52,D 92,,,FALSE,OE,p,550,242333,,,,,,,,,
CVOE_C,23,1,1,53,E 60,,,TRUE,OE,q,556,243406,,,,,,,,,
CVOE_C,23,1,1,54,A 95,,,FALSE,OE,q,591,244507,,,,,,,,,
CVOE_C,23,1,1,55,E 64,,,TRUE,OE,p,739,245772,,,,,,,,,
CVOE_C,23,1,1,56,P 20,,,FALSE,OE,q,489,246771,,,,,,,,,
CVOE_C,23,1,1,57,S 06,,,FALSE,OE,q,816,248098,,,,,,,,,
CVOE_C,23,1,1,58,P 64,,,FALSE,OE,p,1254,249869,,,,,,,,,
CVOE_C,23,1,1,59,U 70,,,TRUE,OE,q,664,251045,,,,,,,,,
CVOE_C,23,1,1,60,S 16,,,FALSE,OE,p,613,252177,,,,,,,,,
CVOE_C,23,1,1,61,E 35,,,FALSE,OE,q,517,253215,,,,,,,,,
CVOE_C,23,1,1,62,I 93,,,FALSE,OE,q,549,254280,,,,,,,,,
CVOE_C,23,1,1,63,D 63,,,TRUE,OE,q,434,255231,,,,,,,,,
CVOE_C,23,1,1,64,U 89,,,FALSE,OE,q,524,256271,,,,,,,,,
CVOE_C,23,1,1,65,E 91,,,FALSE,OE,q,552,257348,,,,,,,,,
CVOE_C,23,1,1,66,A 12,,,TRUE,OE,p,549,258412,,,,,,,,,
CVOE_C,23,1,1,67,P 56,,,FALSE,OE,p,564,259493,,,,,,,,,
CVOE_C,23,1,1,68,S 65,,,TRUE,OE,p,399,260412,,,,,,,,,
CVOE_C,23,1,1,69,P 07,,,TRUE,OE,p,1425,262354,,,,,,,,,
CVOE_C,23,1,1,70,I 77,,,FALSE,OE,q,775,263653,,,,,,,,,
CVOE_C,23,1,1,71,J 19,,,TRUE,OE,q,645,264823,,,,,,,,,
CVOE_C,23,1,1,72,O 59,,,FALSE,OE,q,551,265895,,,,,,,,,
CVOE_C,23,1,1,73,J 15,,,TRUE,OE,q,564,266975,,,,,,,,,
CVOE_C,23,1,1,74,I 89,,,FALSE,OE,q,532,268026,,,,,,,,,
CVOE_C,23,1,1,75,O 97,,,FALSE,OE,q,497,269041,,,,,,,,,
CVOE_C,23,1,1,76,A 92,,,TRUE,OE,p,789,270349,,,,,,,,,
CVOE_C,23,1,1,77,J 90,,,FALSE,OE,q,713,271573,,,,,,,,,
CVOE_C,23,1,1,78,H 65,,,TRUE,OE,q,552,272645,,,,,,,,,
CVOE_C,23,1,1,79,H 17,,,TRUE,OE,q,612,273771,,,,,,,,,
CVOE_C,23,1,1,80,S 26,,,FALSE,OE,p,546,274838,,,,,,,,,
CVOE_C,23,1,1,81,D 56,,,FALSE,OE,p,441,275800,,,,,,,,,
CVOE_C,23,1,1,82,I 91,,,FALSE,OE,q,519,276827,,,,,,,,,
CVOE_C,23,1,1,83,J 11,,,TRUE,OE,q,453,277795,,,,,,,,,
CVOE_C,23,1,1,84,O 28,,,TRUE,OE,p,534,278842,,,,,,,,,
CVOE_C,23,1,1,85,H 29,,,TRUE,OE,q,556,279914,,,,,,,,,
CVOE_C,23,1,1,86,J 25,,,TRUE,OE,q,688,281129,,,,,,,,,
CVOE_C,23,1,1,87,A 73,,,FALSE,OE,q,481,282122,,,,,,,,,
CVOE_C,23,1,1,88,J 63,,,TRUE,OE,q,524,283164,,,,,,,,,
CVOE_C,23,1,1,89,U 84,,,TRUE,OE,p,580,284270,,,,,,,,,
CVOE_C,23,1,1,90,A 58,,,TRUE,OE,p,603,285393,,,,,,,,,
CVOE_C,23,1,1,91,S 43,,,TRUE,OE,q,479,286385,,,,,,,,,
CVOE_C,23,1,1,92,H 54,,,FALSE,OE,p,508,287414,,,,,,,,,
CVOE_C,23,1,1,93,D 4,,,FALSE,OE,p,691,288613,,,,,,,,,
CVOE_C,23,1,1,94,J 75,,,TRUE,OE,q,745,289884,,,,,,,,,
CVOE_C,23,1,1,95,D 19,,,TRUE,OE,q,848,291253,,,,,,,,,
CVOE_C,23,1,1,96,J 38,,,FALSE,OE,p,673,292444,,,,,,,,,
CVOE_C,23,1,1,97,I 56,,,TRUE,OE,p,885,293840,,,,,,,,,
CVOE_C,23,1,1,98,P 87,,,TRUE,OE,q,531,294885,,,,,,,,,
CVOE_C,23,1,1,99,O 80,,,TRUE,OE,q,547,295951,,,,,,,,,
CVOE_C,23,1,1,100,U 60,,,TRUE,OE,q,531,297001,,,,,,,,,
CVOE_C,23,1,1,101,P 48,,,FALSE,OE,p,677,298197,,,,,,,,,
CVOE_C,23,1,1,102,H 64,,,FALSE,OE,p,483,299203,,,,,,,,,
CVOE_C,23,1,1,103,A 13,,,FALSE,OE,q,509,300229,,,,,,,,,
CVOE_C,23,1,1,104,H 68,,,FALSE,OE,p,881,301634,,,,,,,,,
CVOE_C,23,1,1,105,E 16,,,TRUE,OE,p,568,302720,,,,,,,,,
CVOE_C,23,1,1,106,S 71,,,TRUE,OE,q,600,303835,,,,,,,,,
CVOE_C,23,1,2,11,A 71,,,FALSE,CV,p,764,330010,,,,,,,,,
CVOE_C,23,1,2,12,I 66,,,TRUE,CV,p,1191,331720,,,,,,,,,
CVOE_C,23,1,2,13,S 30,,,FALSE,CV,q,468,332713,,,,,,,,,
CVOE_C,23,1,2,14,D 20,,,FALSE,CV,q,540,333768,,,,,,,,,
CVOE_C,23,1,2,15,I 31,,,FALSE,CV,p,446,334724,,,,,,,,,
CVOE_C,23,1,2,16,P 16,,,FALSE,CV,q,557,335801,,,,,,,,,
CVOE_C,23,1,2,17,A 49,,,FALSE,CV,p,455,336766,,,,,,,,,
CVOE_C,23,1,2,18,O 64,,,TRUE,CV,p,553,337830,,,,,,,,,
CVOE_C,23,1,2,19,D 02,,,FALSE,CV,q,477,338821,,,,,,,,,
CVOE_C,23,1,2,20,P 81,,,TRUE,CV,q,553,339896,,,,,,,,,
CVOE_C,23,1,2,21,J 58,,,FALSE,CV,q,625,341035,,,,,,,,,
CVOE_C,23,1,2,22,A 22,,,TRUE,CV,p,469,342029,,,,,,,,,
CVOE_C,23,1,2,23,J 72,,,FALSE,CV,q,454,342997,,,,,,,,,
CVOE_C,23,1,2,24,P 91,,,TRUE,CV,q,482,343991,,,,,,,,,
CVOE_C,23,1,2,25,E 19,,,FALSE,CV,p,473,344982,,,,,,,,,
CVOE_C,23,1,2,26,I 30,,,TRUE,CV,p,510,346002,,,,,,,,,
CVOE_C,23,1,2,27,D 91,,,TRUE,CV,q,501,347026,,,,,,,,,
CVOE_C,23,1,2,28,O 48,,,TRUE,CV,p,719,348261,,,,,,,,,
CVOE_C,23,1,2,29,A 89,,,FALSE,CV,p,510,349285,,,,,,,,,
CVOE_C,23,1,2,30,U 11,,,FALSE,CV,p,445,350253,,,,,,,,,
CVOE_C,23,1,2,31,I 76,,,TRUE,CV,p,461,351235,,,,,,,,,
CVOE_C,23,1,2,32,U 89,,,FALSE,CV,p,569,352326,,,,,,,,,
CVOE_C,23,1,2,33,D 63,,,TRUE,CV,q,477,353317,,,,,,,,,
CVOE_C,23,1,2,34,H 70,,,FALSE,CV,q,490,354330,,,,,,,,,
CVOE_C,23,1,2,35,D 48,,,FALSE,CV,q,411,355251,,,,,,,,,
CVOE_C,23,1,2,36,P 56,,,FALSE,CV,q,435,356208,,,,,,,,,
CVOE_C,23,1,2,37,O 77,,,FALSE,CV,p,430,357153,,,,,,,,,
CVOE_C,23,1,2,38,P 42,,,FALSE,CV,q,493,358165,,,,,,,,,
CVOE_C,23,1,2,39,H 22,,,FALSE,CV,q,456,359145,,,,,,,,,
CVOE_C,23,1,2,40,E 42,,,TRUE,CV,p,454,360109,,,,,,,,,
CVOE_C,23,1,2,41,J 28,,,FALSE,CV,q,418,361040,,,,,,,,,
CVOE_C,23,1,2,42,E 95,,,FALSE,CV,p,498,362053,,,,,,,,,
CVOE_C,23,1,2,43,S 63,,,TRUE,CV,q,478,363049,,,,,,,,,
CVOE_C,23,1,2,44,H 50,,,FALSE,CV,q,441,364012,,,,,,,,,
CVOE_C,23,1,2,45,S 33,,,TRUE,CV,q,473,364994,,,,,,,,,
CVOE_C,23,1,2,46,P 57,,,TRUE,CV,q,480,365984,,,,,,,,,
CVOE_C,23,1,2,47,E 23,,,FALSE,CV,p,418,366922,,,,,,,,,
CVOE_C,23,1,2,48,S 61,,,TRUE,CV,q,424,367861,,,,,,,,,
CVOE_C,23,1,2,49,U 67,,,FALSE,CV,p,476,368846,,,,,,,,,
CVOE_C,23,1,2,50,H 32,,,FALSE,CV,q,438,369808,,,,,,,,,
CVOE_C,23,1,2,51,U 50,,,TRUE,CV,p,493,370812,,,,,,,,,
CVOE_C,23,1,2,52,O 49,,,FALSE,CV,p,507,371843,,,,,,,,,
CVOE_C,23,1,2,53,U 32,,,TRUE,CV,p,488,372840,,,,,,,,,
CVOE_C,23,1,2,54,J 78,,,FALSE,CV,q,408,373760,,,,,,,,,
CVOE_C,23,1,2,55,S 54,,,FALSE,CV,q,441,374726,,,,,,,,,
CVOE_C,23,1,2,56,J 27,,,TRUE,CV,q,457,375709,,,,,,,,,
CVOE_C,23,1,2,57,S 06,,,FALSE,CV,q,455,376690,,,,,,,,,
CVOE_C,23,1,2,58,D 67,,,TRUE,CV,q,428,377629,,,,,,,,,
CVOE_C,23,1,2,59,A 79,,,FALSE,CV,p,527,378678,,,,,,,,,
CVOE_C,23,1,2,60,S 52,,,FALSE,CV,q,438,379639,,,,,,,,,
CVOE_C,23,1,2,61,U 16,,,TRUE,CV,p,468,380618,,,,,,,,,
CVOE_C,23,1,2,62,O 82,,,TRUE,CV,p,443,381576,,,,,,,,,
CVOE_C,23,1,2,63,H 87,,,TRUE,CV,q,479,382579,,,,,,,,,
CVOE_C,23,1,2,64,I 32,,,TRUE,CV,p,456,383556,,,,,,,,,
CVOE_C,23,1,2,65,U 37,,,FALSE,CV,q,664,384730,,,,,,,,,
CVOE_C,23,1,2,66,I 42,,,TRUE,CV,p,626,385875,,,,,,,,,
CVOE_C,23,1,2,67,D 65,,,TRUE,CV,q,670,387069,,,,,,,,,
CVOE_C,23,1,2,68,U 77,,,FALSE,CV,p,477,388059,,,,,,,,,
CVOE_C,23,1,2,69,E 12,,,TRUE,CV,p,416,388998,,,,,,,,,
CVOE_C,23,1,2,70,I 60,,,TRUE,CV,p,384,389899,,,,,,,,,
CVOE_C,23,1,2,71,J 36,,,FALSE,CV,q,534,390949,,,,,,,,,
CVOE_C,23,1,2,72,H 75,,,TRUE,CV,q,420,391884,,,,,,,,,
CVOE_C,23,1,2,73,I 50,,,TRUE,CV,p,447,392844,,,,,,,,,
CVOE_C,23,1,2,74,E 99,,,FALSE,CV,p,483,393847,,,,,,,,,
CVOE_C,23,1,2,75,A 86,,,TRUE,CV,p,936,395300,,,,,,,,,
CVOE_C,23,1,2,76,U 48,,,TRUE,CV,p,441,396254,,,,,,,,,
CVOE_C,23,1,2,77,E 01,,,FALSE,CV,p,431,397211,,,,,,,,,
CVOE_C,23,1,2,78,A 78,,,TRUE,CV,p,460,398189,,,,,,,,,
CVOE_C,23,1,2,79,P 60,,,FALSE,CV,q,512,399225,,,,,,,,,
CVOE_C,23,1,2,80,E 43,,,FALSE,CV,p,450,400196,,,,,,,,,
CVOE_C,23,1,2,81,D 69,,,TRUE,CV,q,479,401191,,,,,,,,,
CVOE_C,23,1,2,82,H 11,,,TRUE,CV,q,473,402185,,,,,,,,,
CVOE_C,23,1,2,83,P 43,,,TRUE,CV,q,486,403181,,,,,,,,,
CVOE_C,23,1,2,84,O 67,,,FALSE,CV,p,608,404303,,,,,,,,,
CVOE_C,23,1,2,85,S 91,,,FALSE,CV,q,421,405249,,,,,,,,,
CVOE_C,23,1,2,86,J 68,,,TRUE,CV,q,621,406382,,,,,,,,,
CVOE_C,23,1,2,87,S 47,,,FALSE,CV,q,400,407294,,,,,,,,,
CVOE_C,23,1,2,88,I 81,,,TRUE,CV,p,471,408281,,,,,,,,,
CVOE_C,23,1,2,89,J 39,,,FALSE,CV,q,496,409290,,,,,,,,,
CVOE_C,23,1,2,90,A 11,,,TRUE,CV,p,435,410245,,,,,,,,,
CVOE_C,23,1,2,91,O 76,,,FALSE,CV,p,478,411238,,,,,,,,,
CVOE_C,23,1,2,92,A 62,,,FALSE,CV,p,480,412239,,,,,,,,,
CVOE_C,23,1,2,93,O 27,,,TRUE,CV,p,476,413235,,,,,,,,,
CVOE_C,23,1,2,94,E 66,,,FALSE,CV,p,477,414236,,,,,,,,,
CVOE_C,23,1,2,95,J 62,,,TRUE,CV,q,584,415343,,,,,,,,,
CVOE_C,23,1,2,96,H 72,,,TRUE,CV,q,413,416272,,,,,,,,,
CVOE_C,23,1,2,97,E 49,,,TRUE,CV,p,508,417300,,,,,,,,,
CVOE_C,23,1,2,98,D 52,,,TRUE,CV,q,476,418301,,,,,,,,,
CVOE_C,23,1,2,99,H 62,,,TRUE,CV,q,456,419280,,,,,,,,,
CVOE_C,23,1,2,100,I 11,,,TRUE,CV,p,537,420328,,,,,,,,,
CVOE_C,23,1,2,101,A 98,,,FALSE,CV,p,473,421314,,,,,,,,,
CVOE_C,23,1,2,102,H 29,,,FALSE,CV,q,511,422335,,,,,,,,,
CVOE_C,23,1,2,103,E 83,,,TRUE,CV,p,446,423303,,,,,,,,,
CVOE_C,23,1,2,104,D 43,,,FALSE,CV,q,482,424305,,,,,,,,,
CVOE_C,23,1,2,105,P 45,,,TRUE,CV,q,498,425321,,,,,,,,,
CVOE_C,23,1,2,106,J 17,,,TRUE,CV,q,485,426324,,,,,,,,,
CVOE_C,23,1,3,11,A 44,Letter,N,TRUE,CV,p,1701,460433,,,,,,,,,
CVOE_C,23,1,3,12,D 94,Letter,N,FALSE,CV,q,740,461688,,,,,,,,,
CVOE_C,23,1,3,13,E 75,Number,Y,FALSE,OE,q,1419,463616,,,,,,,,,
CVOE_C,23,1,3,14,H 81,Number,N,TRUE,OE,q,665,464795,,,,,,,,,
CVOE_C,23,1,3,15,I 64,Letter,Y,TRUE,CV,p,1217,466530,,,,,,,,,
CVOE_C,23,1,3,16,J 54,Letter,N,FALSE,CV,q,752,467798,,,,,,,,,
CVOE_C,23,1,3,17,O 23,Number,Y,FALSE,OE,p,1069,469382,,,,,,,,,
CVOE_C,23,1,3,18,P 05,Number,N,TRUE,OE,q,3817,473713,,,,,,,,,
CVOE_C,23,1,3,19,S 34,Letter,Y,FALSE,CV,q,1243,475471,,,,,,,,,
CVOE_C,23,1,3,20,U 88,Letter,N,TRUE,CV,p,1199,477193,,,,,,,,,
CVOE_C,23,1,3,21,A 70,Number,Y,TRUE,OE,q,1580,479290,,,,,,,,,
CVOE_C,23,1,3,22,D 12,Number,N,FALSE,OE,p,799,480609,,,,,,,,,
CVOE_C,23,1,3,23,E 79,Letter,Y,FALSE,CV,p,1199,482325,,,,,,,,,
CVOE_C,23,1,3,24,H 72,Letter,N,FALSE,CV,q,932,483774,,,,,,,,,
CVOE_C,23,1,3,25,I 41,Number,Y,FALSE,OE,p,976,485268,,,,,,,,,
CVOE_C,23,1,3,26,J 63,Number,N,TRUE,OE,q,1246,487038,,,,,,,,,
CVOE_C,23,1,3,27,O 03,Letter,Y,FALSE,CV,p,1792,489350,,,,,,,,,
CVOE_C,23,1,3,28,P 75,Letter,N,TRUE,CV,q,949,490823,,,,,,,,,
CVOE_C,23,1,3,29,S 61,Number,Y,TRUE,OE,q,631,491972,,,,,,,,,
CVOE_C,23,1,3,30,U 28,Number,N,TRUE,OE,p,1316,493806,,,,,,,,,
CVOE_C,23,1,3,31,A 21,Letter,Y,FALSE,CV,p,1535,495858,,,,,,,,,
CVOE_C,23,1,3,32,D 18,Letter,N,FALSE,CV,q,691,497064,,,,,,,,,
CVOE_C,23,1,3,33,E 35,Number,Y,FALSE,OE,q,748,498337,,,,,,,,,
CVOE_C,23,1,3,34,H 62,Number,N,FALSE,OE,p,712,499567,,,,,,,,,
CVOE_C,23,1,3,35,I 82,Letter,Y,TRUE,CV,p,1194,501282,,,,,,,,,
CVOE_C,23,1,3,36,J 78,Letter,N,FALSE,CV,q,666,502471,,,,,,,,,
CVOE_C,23,1,3,37,O 12,Number,Y,TRUE,OE,p,1240,504228,,,,,,,,,
CVOE_C,23,1,3,38,P 13,Number,N,TRUE,OE,q,611,505348,,,,,,,,,
CVOE_C,23,1,3,39,S 07,Letter,Y,TRUE,CV,q,775,506645,,,,,,,,,
CVOE_C,23,1,3,40,U 36,Letter,N,TRUE,CV,p,692,507862,,,,,,,,,
CVOE_C,23,1,3,41,A 96,Number,Y,TRUE,OE,p,794,509180,,,,,,,,,
CVOE_C,23,1,3,42,D 04,Number,N,FALSE,OE,p,563,510266,,,,,,,,,
CVOE_C,23,1,3,43,E 60,Letter,Y,TRUE,CV,p,947,511733,,,,,,,,,
CVOE_C,23,1,3,44,H 83,Letter,N,TRUE,CV,q,530,512782,,,,,,,,,
CVOE_C,23,1,3,45,I 64,Number,Y,TRUE,OE,p,689,513991,,,,,,,,,
CVOE_C,23,1,3,46,J 76,Number,N,FALSE,OE,p,468,514970,,,,,,,,,
CVOE_C,23,1,3,47,O 78,Letter,Y,TRUE,CV,p,779,516264,,,,,,,,,
CVOE_C,23,1,3,48,P 09,Letter,N,TRUE,CV,q,848,517632,,,,,,,,,
CVOE_C,23,1,3,49,S 72,Number,Y,FALSE,OE,p,1536,519687,,,,,,,,,
CVOE_C,23,1,3,50,U 47,Number,N,FALSE,OE,q,1806,522006,,,,,,,,,
CVOE_C,23,1,3,51,A 31,Letter,Y,FALSE,CV,p,4961,527477,,,,,,,,,
CVOE_C,23,1,3,52,D 96,Letter,N,FALSE,CV,q,638,528636,,,,,,,,,
CVOE_C,23,1,3,53,E 40,Number,Y,TRUE,OE,p,1225,530373,,,,,,,,,
CVOE_C,23,1,3,54,H 79,Number,N,TRUE,OE,q,2198,533096,,,,,,,,,
CVOE_C,23,1,3,55,I 15,Letter,Y,FALSE,CV,p,1290,534904,,,,,,,,,
CVOE_C,23,1,3,56,J 07,Letter,N,TRUE,CV,q,3331,538744,,,,,,,,,
CVOE_C,23,1,3,57,O 61,Number,Y,FALSE,OE,q,1306,540568,,,,,,,,,
CVOE_C,23,1,3,58,P 58,Number,N,FALSE,OE,p,1355,542434,,,,,,,,,
CVOE_C,23,1,3,59,S 37,Letter,Y,TRUE,CV,q,991,543936,,,,,,,,,
CVOE_C,23,1,3,60,U 61,Letter,N,FALSE,CV,p,1807,546268,,,,,,,,,
CVOE_C,23,1,3,61,A 17,Number,Y,FALSE,OE,p,1512,548289,,,,,,,,,
CVOE_C,23,1,3,62,D 85,Number,N,TRUE,OE,q,1498,550308,,,,,,,,,
CVOE_C,23,1,3,63,E 20,Letter,Y,TRUE,CV,p,1032,551858,,,,,,,,,
CVOE_C,23,1,3,64,H 86,Letter,N,FALSE,CV,q,4797,557173,,,,,,,,,
CVOE_C,23,1,3,65,I 21,Number,Y,FALSE,OE,q,3226,560917,,,,,,,,,
CVOE_C,23,1,3,66,J 29,Number,N,TRUE,OE,q,733,562173,,,,,,,,,
CVOE_C,23,1,3,67,O 13,Letter,Y,FALSE,CV,p,2329,565019,,,,,,,,,
CVOE_C,23,1,3,68,P 82,Letter,N,FALSE,CV,q,573,566112,,,,,,,,,
CVOE_C,23,1,3,69,S 72,Number,Y,FALSE,OE,p,1283,567906,,,,,,,,,
CVOE_C,23,1,3,70,U 84,Number,N,TRUE,OE,p,593,569015,,,,,,,,,
CVOE_C,23,1,3,71,A 49,Letter,Y,FALSE,CV,p,1252,570790,,,,,,,,,
CVOE_C,23,1,3,72,D 91,Letter,N,TRUE,CV,q,1345,572650,,,,,,,,,
CVOE_C,23,1,3,73,E 99,Number,Y,FALSE,OE,q,888,574059,,,,,,,,,
CVOE_C,23,1,3,74,H 16,Number,N,FALSE,OE,p,615,575186,,,,,,,,,
CVOE_C,23,1,3,75,I 45,Letter,Y,FALSE,CV,p,1619,577323,,,,,,,,,
CVOE_C,23,1,3,76,J 70,Letter,N,FALSE,CV,q,591,578427,,,,,,,,,
CVOE_C,23,1,3,77,O 22,Number,Y,TRUE,OE,p,639,579592,,,,,,,,,
CVOE_C,23,1,3,78,P 41,Number,N,TRUE,OE,q,855,580958,,,,,,,,,
CVOE_C,23,1,3,79,S 93,Letter,Y,TRUE,CV,q,1190,582659,,,,,,,,,
CVOE_C,23,1,3,80,U 70,Letter,N,TRUE,CV,p,564,583749,,,,,,,,,
CVOE_C,23,1,3,81,A 42,Number,Y,TRUE,OE,p,649,584917,,,,,,,,,
CVOE_C,23,1,3,82,D 85,Number,N,TRUE,OE,q,603,586038,,,,,,,,,
CVOE_C,23,1,3,83,E 68,Letter,Y,TRUE,CV,p,591,587142,,,,,,,,,
CVOE_C,23,1,3,84,H 17,Letter,N,TRUE,CV,q,542,588209,,,,,,,,,
CVOE_C,23,1,3,85,I 70,Number,Y,TRUE,OE,q,1177,589911,,,,,,,,,
CVOE_C,23,1,3,86,J 88,Number,N,FALSE,OE,p,799,591232,,,,,,,,,
CVOE_C,23,1,3,87,O 32,Letter,Y,TRUE,CV,p,2450,594200,,,,,,,,,
CVOE_C,23,1,3,88,P 95,Letter,N,TRUE,CV,q,652,595368,,,,,,,,,
CVOE_C,23,1,3,89,S 98,Number,Y,FALSE,OE,q,2367,598249,,,,,,,,,
CVOE_C,23,1,3,90,U 37,Number,N,FALSE,OE,q,1335,600100,,,,,,,,,
CVOE_C,23,1,3,91,A 56,Letter,Y,TRUE,CV,p,893,601507,,,,,,,,,
CVOE_C,23,1,3,92,D 57,Letter,N,TRUE,CV,p,2913,604944,,,,,,,,,
CVOE_C,23,1,3,93,E 93,Number,Y,FALSE,OE,q,2325,607788,,,,,,,,,
CVOE_C,23,1,3,94,H 27,Number,N,TRUE,OE,q,616,608929,,,,,,,,,
CVOE_C,23,1,3,95,I 35,Letter,Y,FALSE,CV,q,742,610188,,,,,,,,,
CVOE_C,23,1,3,96,J 03,Letter,N,TRUE,CV,q,1019,611731,,,,,,,,,
CVOE_C,23,1,3,97,O 28,Number,Y,TRUE,OE,p,3251,615496,,,,,,,,,
CVOE_C,23,1,3,98,P 59,Number,N,TRUE,OE,q,2656,618667,,,,,,,,,
CVOE_C,23,1,3,99,S 77,Letter,Y,TRUE,CV,q,2132,621325,,,,,,,,,
CVOE_C,23,1,3,100,U 05,Letter,N,FALSE,CV,q,1775,623618,,,,,,,,,
CVOE_C,23,1,3,101,A 56,Number,Y,TRUE,OE,p,1240,625382,,,,,,,,,
CVOE_C,23,1,3,102,D 01,Number,N,TRUE,OE,q,1330,627222,,,,,,,,,
CVOE_C,23,1,3,103,E 02,Letter,Y,TRUE,CV,p,1347,629088,,,,,,,,,
CVOE_C,23,1,3,104,H 68,Letter,N,FALSE,CV,q,678,630285,,,,,,,,,
CVOE_C,23,1,3,105,I 05,Number,Y,FALSE,OE,q,1117,631924,,,,,,,,,
CVOE_C,23,1,3,106,J 55,Number,N,TRUE,OE,q,904,633344,,,,,,,,,
CVOE_C,23,1,3,107,O 73,Letter,Y,FALSE,CV,p,1149,635005,,,,,,,,,
CVOE_C,23,1,3,108,P 41,Letter,N,TRUE,CV,q,656,636179,,,,,,,,,
CVOE_C,23,1,3,109,S 92,Number,Y,FALSE,OE,p,933,637622,,,,,,,,,
CVOE_C,23,1,3,110,U 34,Number,N,TRUE,OE,p,947,639086,,,,,,,,,
CVOE_C,23,1,3,111,A 09,Letter,Y,FALSE,CV,p,1387,640992,,,,,,,,,
CVOE_C,23,1,3,112,D 92,Letter,N,FALSE,CV,q,736,642241,,,,,,,,,
CVOE_C,23,1,3,113,E 48,Number,Y,TRUE,OE,p,829,643583,,,,,,,,,
CVOE_C,23,1,3,114,H 76,Number,N,FALSE,OE,p,540,644644,,,,,,,,,
CVOE_C,23,1,3,115,I 44,Letter,Y,TRUE,CV,p,2388,647558,,,,,,,,,
CVOE_C,23,1,3,116,J 67,Letter,N,TRUE,CV,q,386,648456,,,,,,,,,
CVOE_C,23,1,3,117,O 48,Number,Y,TRUE,OE,p,584,649553,,,,,,,,,
CVOE_C,23,1,3,118,P 22,Number,N,FALSE,OE,p,452,650521,,,,,,,,,
CVOE_C,23,1,3,119,S 86,Letter,Y,FALSE,CV,q,770,651806,,,,,,,,,
CVOE_C,23,1,3,120,U 35,Letter,N,FALSE,CV,p,462,652781,,,,,,,,,
CVOE_C,23,1,3,121,A 91,Number,Y,FALSE,OE,q,648,653950,,,,,,,,,
CVOE_C,23,1,3,122,D 78,Number,N,FALSE,OE,p,537,655005,,,,,,,,,
CVOE_C,23,1,3,123,E 91,Letter,Y,FALSE,CV,p,760,656278,,,,,,,,,
CVOE_C,23,1,3,124,H 54,Letter,N,FALSE,CV,q,401,657202,,,,,,,,,
CVOE_C,23,1,3,125,I 65,Number,Y,FALSE,OE,q,631,658348,,,,,,,,,
CVOE_C,23,1,3,126,J 52,Number,N,FALSE,OE,p,526,659393,,,,,,,,,
CVOE_C,23,1,3,127,O 19,Letter,Y,FALSE,CV,p,570,660487,,,,,,,,,
CVOE_C,23,1,3,128,P 48,Letter,N,FALSE,CV,q,627,661627,,,,,,,,,
CVOE_C,23,1,3,129,S 45,Number,Y,TRUE,OE,p,1802,663952,,,,,,,,,
CVOE_C,23,1,3,130,U 26,Number,N,TRUE,OE,p,730,665196,,,,,,,,,
CVOE_C,23,1,4,1,U 38,Number,N,TRUE,OE,p,3268,674382,,,,,,,,,
CVOE_C,23,1,4,2,P 73,Number,N,TRUE,OE,q,1007,675904,,,,,,,,,
CVOE_C,23,1,4,3,U 95,Letter,Y,FALSE,CV,q,1243,677656,,,,,,,,,
CVOE_C,23,1,4,4,J 61,Number,Y,TRUE,OE,q,1344,679523,,,,,,,,,
CVOE_C,23,1,4,5,D 51,Number,N,TRUE,OE,q,905,680950,,,,,,,,,
CVOE_C,23,1,4,6,S 28,Number,N,FALSE,OE,p,941,682403,,,,,,,,,
CVOE_C,23,1,4,7,A 56,Letter,Y,TRUE,CV,p,893,683821,,,,,,,,,
CVOE_C,23,1,4,8,H 78,Letter,N,FALSE,CV,q,701,685045,,,,,,,,,
CVOE_C,23,1,4,9,P 92,Letter,N,FALSE,CV,q,608,686169,,,,,,,,,
CVOE_C,23,1,4,10,E 05,Number,Y,FALSE,OE,q,1008,687685,,,,,,,,,
CVOE_C,23,1,4,11,P 57,Letter,Y,TRUE,CV,q,1884,690077,,,,,,,,,
CVOE_C,23,1,4,12,D 88,Number,Y,FALSE,OE,p,852,691445,,,,,,,,,
CVOE_C,23,1,4,13,O 89,Letter,Y,FALSE,CV,p,918,692877,,,,,,,,,
CVOE_C,23,1,4,14,U 43,Number,Y,FALSE,OE,q,790,694182,,,,,,,,,
CVOE_C,23,1,4,15,H 10,Number,N,FALSE,OE,q,837,695529,,,,,,,,,
CVOE_C,23,1,4,16,S 07,Letter,Y,TRUE,CV,q,1139,697181,,,,,,,,,
CVOE_C,23,1,4,17,J 10,Letter,N,FALSE,CV,q,866,698557,,,,,,,,,
CVOE_C,23,1,4,18,H 54,Number,Y,FALSE,OE,p,985,700059,,,,,,,,,
CVOE_C,23,1,4,19,E 99,Number,N,FALSE,OE,q,1868,702442,,,,,,,,,
CVOE_C,23,1,4,20,J 36,Letter,Y,FALSE,CV,q,1532,704489,,,,,,,,,
CVOE_C,23,1,4,21,I 94,Letter,N,TRUE,CV,p,871,705877,,,,,,,,,
CVOE_C,23,1,4,22,A 82,Letter,N,TRUE,CV,p,732,707121,,,,,,,,,
CVOE_C,23,1,4,23,H 79,Number,Y,TRUE,OE,q,1008,708647,,,,,,,,,
CVOE_C,23,1,4,24,J 60,Number,N,FALSE,OE,q,1003,710175,,,,,,,,,
CVOE_C,23,1,4,25,S 28,Letter,Y,FALSE,CV,q,994,711682,,,,,,,,,
CVOE_C,23,1,4,26,P 11,Number,Y,TRUE,OE,q,729,712933,,,,,,,,,
CVOE_C,23,1,4,27,D 39,Number,N,TRUE,OE,q,2011,715465,,,,,,,,,
CVOE_C,23,1,4,28,E 90,Number,N,TRUE,OE,q,999,716986,,,,,,,,,
CVOE_C,23,1,4,29,I 38,Number,N,TRUE,OE,p,936,718439,,,,,,,,,
CVOE_C,23,1,4,30,S 35,Letter,Y,TRUE,CV,q,838,719791,,,,,,,,,
CVOE_C,23,1,4,31,D 41,Number,Y,TRUE,OE,q,858,721160,,,,,,,,,
CVOE_C,23,1,4,32,E 06,Number,N,TRUE,OE,p,1446,723131,,,,,,,,,
CVOE_C,23,1,4,33,A 27,Number,N,FALSE,OE,q,882,724534,,,,,,,,,
CVOE_C,23,1,4,34,U 95,Letter,Y,FALSE,CV,p,763,725814,,,,,,,,,
CVOE_C,23,1,4,35,A 53,Letter,N,FALSE,CV,p,725,727059,,,,,,,,,
CVOE_C,23,1,4,36,E 43,Letter,N,FALSE,CV,p,769,728353,,,,,,,,,
CVOE_C,23,1,4,37,P 05,Number,Y,TRUE,OE,q,977,729844,,,,,,,,,
CVOE_C,23,1,4,38,O 19,Letter,Y,FALSE,CV,p,1030,731397,,,,,,,,,
CVOE_C,23,1,4,39,I 96,Number,Y,TRUE,OE,p,1663,733579,,,,,,,,,
