ExperimentName,Subject,Group,Block,Trial,STIM,TASK,Switch,Congruent,CVOE,Response,RT,block_type
CVOE updated,69,1,1,11,A 71,,,FALSE,CV,p,871,cv
CVOE updated,69,1,1,12,I 66,,,TRUE,CV,p,645,cv
CVOE updated,69,1,1,13,S 30,,,FALSE,CV,q,550,cv
CVOE updated,69,1,1,14,D 20,,,FALSE,CV,q,555,cv
CVOE updated,69,1,1,15,I 31,,,FALSE,CV,p,572,cv
CVOE updated,69,1,1,16,P 16,,,FALSE,CV,q,1087,cv
CVOE updated,69,1,1,17,A 49,,,FALSE,CV,p,634,cv
CVOE updated,69,1,1,18,O 64,,,TRUE,CV,p,611,cv
CVOE updated,69,1,1,19,D 02,,,FALSE,CV,q,510,cv
CVOE updated,69,1,1,20,P 81,,,TRUE,CV,q,556,cv
CVOE updated,69,1,1,21,J 58,,,FALSE,CV,q,652,cv
CVOE updated,69,1,1,22,A 22,,,TRUE,CV,p,551,cv
CVOE updated,69,1,1,23,J 72,,,FALSE,CV,q,653,cv
CVOE updated,69,1,1,24,P 91,,,TRUE,CV,q,656,cv
CVOE updated,69,1,1,25,E 19,,,FALSE,CV,p,563,cv
CVOE updated,69,1,1,26,I 30,,,TRUE,CV,p,443,cv
CVOE updated,69,1,1,27,D 91,,,TRUE,CV,q,380,cv
CVOE updated,69,1,1,28,O 48,,,TRUE,CV,p,583,cv
CVOE updated,69,1,1,29,A 89,,,FALSE,CV,p,525,cv
CVOE updated,69,1,1,30,U 11,,,FALSE,CV,p,469,cv
CVOE updated,69,1,1,31,I 76,,,TRUE,CV,p,483,cv
CVOE updated,69,1,1,32,U 89,,,FALSE,CV,p,411,cv
CVOE updated,69,1,1,33,D 63,,,TRUE,CV,q,406,cv
CVOE updated,69,1,1,34,H 70,,,FALSE,CV,q,470,cv
CVOE updated,69,1,1,35,D 48,,,FALSE,CV,q,388,cv
CVOE updated,69,1,1,36,P 56,,,FALSE,CV,q,546,cv
CVOE updated,69,1,1,37,O 77,,,FALSE,CV,p,488,cv
CVOE updated,69,1,1,38,P 42,,,FALSE,CV,q,443,cv
CVOE updated,69,1,1,39,H 22,,,FALSE,CV,q,459,cv
CVOE updated,69,1,1,40,E 42,,,TRUE,CV,q,374,cv
CVOE updated,69,1,1,41,J 28,,,FALSE,CV,q,593,cv
CVOE updated,69,1,1,42,E 95,,,FALSE,CV,p,519,cv
CVOE updated,69,1,1,43,S 63,,,TRUE,CV,q,455,cv
CVOE updated,69,1,1,44,H 50,,,FALSE,CV,q,450,cv
CVOE updated,69,1,1,45,S 33,,,TRUE,CV,q,397,cv
CVOE updated,69,1,1,46,P 57,,,TRUE,CV,q,382,cv
CVOE updated,69,1,1,47,E 23,,,FALSE,CV,p,395,cv
CVOE updated,69,1,1,48,S 61,,,TRUE,CV,q,388,cv
CVOE updated,69,1,1,49,U 67,,,FALSE,CV,p,417,cv
CVOE updated,69,1,1,50,H 32,,,FALSE,CV,q,396,cv
CVOE updated,69,1,1,51,U 50,,,TRUE,CV,p,509,cv
CVOE updated,69,1,1,52,O 49,,,FALSE,CV,p,402,cv
CVOE updated,69,1,1,53,U 32,,,TRUE,CV,p,435,cv
CVOE updated,69,1,1,54,J 78,,,FALSE,CV,p,355,cv
CVOE updated,69,1,1,55,S 54,,,FALSE,CV,q,547,cv
CVOE updated,69,1,1,56,J 27,,,TRUE,CV,q,617,cv
CVOE updated,69,1,1,57,S 06,,,FALSE,CV,q,636,cv
CVOE updated,69,1,1,58,D 67,,,TRUE,CV,q,517,cv
CVOE updated,69,1,1,59,A 79,,,FALSE,CV,p,469,cv
CVOE updated,69,1,1,60,S 52,,,FALSE,CV,q,467,cv
CVOE updated,69,1,1,61,U 16,,,TRUE,CV,p,504,cv
CVOE updated,69,1,1,62,O 82,,,TRUE,CV,p,494,cv
CVOE updated,69,1,1,63,H 87,,,TRUE,CV,q,433,cv
CVOE updated,69,1,1,64,I 32,,,TRUE,CV,p,482,cv
CVOE updated,69,1,1,65,U 37,,,FALSE,CV,p,458,cv
CVOE updated,69,1,1,66,I 42,,,TRUE,CV,p,469,cv
CVOE updated,69,1,1,67,D 65,,,TRUE,CV,q,467,cv
CVOE updated,69,1,1,68,U 77,,,FALSE,CV,p,456,cv
CVOE updated,69,1,1,69,E 12,,,TRUE,CV,p,443,cv
CVOE updated,69,1,1,70,I 60,,,TRUE,CV,p,460,cv
CVOE updated,69,1,1,71,J 36,,,FALSE,CV,q,519,cv
CVOE updated,69,1,1,72,H 75,,,TRUE,CV,q,503,cv
CVOE updated,69,1,1,73,I 50,,,TRUE,CV,p,469,cv
CVOE updated,69,1,1,74,E 99,,,FALSE,CV,q,595,cv
CVOE updated,69,1,1,75,A 86,,,TRUE,CV,p,627,cv
CVOE updated,69,1,1,76,U 48,,,TRUE,CV,p,513,cv
CVOE updated,69,1,1,77,E 01,,,FALSE,CV,p,1327,cv
CVOE updated,69,1,1,78,A 78,,,TRUE,CV,p,554,cv
CVOE updated,69,1,1,79,P 60,,,FALSE,CV,q,730,cv
CVOE updated,69,1,1,80,E 43,,,FALSE,CV,p,702,cv
CVOE updated,69,1,1,81,D 69,,,TRUE,CV,q,499,cv
CVOE updated,69,1,1,82,H 11,,,TRUE,CV,q,446,cv
CVOE updated,69,1,1,83,P 43,,,TRUE,CV,q,599,cv
CVOE updated,69,1,1,84,O 67,,,FALSE,CV,p,503,cv
CVOE updated,69,1,1,85,S 91,,,FALSE,CV,q,573,cv
CVOE updated,69,1,1,86,J 68,,,TRUE,CV,q,416,cv
CVOE updated,69,1,1,87,S 47,,,FALSE,CV,q,627,cv
CVOE updated,69,1,1,88,I 81,,,TRUE,CV,p,609,cv
CVOE updated,69,1,1,89,J 39,,,FALSE,CV,q,972,cv
CVOE updated,69,1,1,90,A 11,,,TRUE,CV,p,511,cv
CVOE updated,69,1,1,91,O 76,,,FALSE,CV,p,405,cv
CVOE updated,69,1,1,92,A 62,,,FALSE,CV,p,437,cv
CVOE updated,69,1,1,93,O 27,,,TRUE,CV,p,422,cv
CVOE updated,69,1,1,94,E 66,,,FALSE,CV,p,539,cv
CVOE updated,69,1,1,95,J 62,,,TRUE,CV,q,478,cv
CVOE updated,69,1,1,96,H 72,,,TRUE,CV,q,455,cv
CVOE updated,69,1,1,97,E 49,,,TRUE,CV,p,498,cv
CVOE updated,69,1,1,98,D 52,,,TRUE,CV,q,573,cv
CVOE updated,69,1,1,99,H 62,,,TRUE,CV,q,464,cv
CVOE updated,69,1,1,100,I 11,,,TRUE,CV,p,494,cv
CVOE updated,69,1,1,101,A 98,,,FALSE,CV,p,657,cv
CVOE updated,69,1,1,102,H 29,,,FALSE,CV,q,500,cv
CVOE updated,69,1,1,103,E 83,,,TRUE,CV,p,505,cv
CVOE updated,69,1,1,104,D 43,,,FALSE,CV,q,391,cv
CVOE updated,69,1,1,105,P 45,,,TRUE,CV,q,445,cv
CVOE updated,69,1,1,106,J 17,,,TRUE,CV,q,461,cv
CVOE updated,69,1,2,11,A 24,,,TRUE,OE,p,719,oe
CVOE updated,69,1,2,12,O 83,,,FALSE,OE,q,488,oe
CVOE updated,69,1,2,13,H 55,,,TRUE,OE,q,475,oe
CVOE updated,69,1,2,14,P 10,,,FALSE,OE,p,483,oe
CVOE updated,69,1,2,15,D 30,,,FALSE,OE,p,644,oe
CVOE updated,69,1,2,16,U 62,,,TRUE,OE,p,556,oe
CVOE updated,69,1,2,17,P 95,,,TRUE,OE,q,444,oe
CVOE updated,69,1,2,18,U 06,,,TRUE,OE,p,573,oe
CVOE updated,69,1,2,19,E 75,,,FALSE,OE,q,728,oe
CVOE updated,69,1,2,20,I 67,,,FALSE,OE,q,675,oe
CVOE updated,69,1,2,21,S 13,,,TRUE,OE,q,547,oe
CVOE updated,69,1,2,22,P 78,,,FALSE,OE,p,473,oe
CVOE updated,69,1,2,23,I 15,,,FALSE,OE,q,418,oe
CVOE updated,69,1,2,24,D 27,,,TRUE,OE,q,397,oe
CVOE updated,69,1,2,25,O 94,,,TRUE,OE,p,437,oe
CVOE updated,69,1,2,26,A 65,,,FALSE,OE,q,573,oe
CVOE updated,69,1,2,27,I 42,,,TRUE,OE,p,432,oe
CVOE updated,69,1,2,28,E 25,,,FALSE,OE,q,430,oe
CVOE updated,69,1,2,29,H 49,,,TRUE,OE,q,468,oe
CVOE updated,69,1,2,30,S 18,,,FALSE,OE,p,426,oe
CVOE updated,69,1,2,31,H 51,,,TRUE,OE,q,967,oe
CVOE updated,69,1,2,32,U 14,,,TRUE,OE,p,634,oe
CVOE updated,69,1,2,33,E 02,,,TRUE,OE,p,627,oe
CVOE updated,69,1,2,34,J 26,,,FALSE,OE,p,601,oe
CVOE updated,69,1,2,35,D 24,,,FALSE,OE,p,393,oe
CVOE updated,69,1,2,36,O 50,,,TRUE,OE,p,607,oe
CVOE updated,69,1,2,37,U 16,,,TRUE,OE,p,514,oe
CVOE updated,69,1,2,38,O 15,,,FALSE,OE,q,570,oe
CVOE updated,69,1,2,39,D 32,,,FALSE,OE,p,757,oe
CVOE updated,69,1,2,40,S 67,,,TRUE,OE,q,462,oe
CVOE updated,69,1,2,41,J 74,,,FALSE,OE,p,500,oe
CVOE updated,69,1,2,42,D 92,,,FALSE,OE,p,519,oe
CVOE updated,69,1,2,43,A 65,,,FALSE,OE,q,503,oe
CVOE updated,69,1,2,44,I 87,,,FALSE,OE,q,573,oe
CVOE updated,69,1,2,45,H 61,,,TRUE,OE,q,712,oe
CVOE updated,69,1,2,46,E 59,,,FALSE,OE,q,590,oe
CVOE updated,69,1,2,47,I 33,,,FALSE,OE,q,507,oe
CVOE updated,69,1,2,48,O 90,,,TRUE,OE,p,481,oe
CVOE updated,69,1,2,49,U 51,,,FALSE,OE,q,545,oe
CVOE updated,69,1,2,50,A 10,,,TRUE,OE,p,703,oe
CVOE updated,69,1,2,51,E 50,,,TRUE,OE,p,613,oe
CVOE updated,69,1,2,52,D 92,,,FALSE,OE,p,624,oe
CVOE updated,69,1,2,53,E 60,,,TRUE,OE,p,478,oe
CVOE updated,69,1,2,54,A 95,,,FALSE,OE,q,478,oe
CVOE updated,69,1,2,55,E 64,,,TRUE,OE,p,855,oe
CVOE updated,69,1,2,56,P 20,,,FALSE,OE,p,522,oe
CVOE updated,69,1,2,57,S 06,,,FALSE,OE,p,562,oe
CVOE updated,69,1,2,58,P 64,,,FALSE,OE,p,427,oe
CVOE updated,69,1,2,59,U 70,,,TRUE,OE,p,480,oe
CVOE updated,69,1,2,60,S 16,,,FALSE,OE,p,505,oe
CVOE updated,69,1,2,61,E 35,,,FALSE,OE,q,502,oe
CVOE updated,69,1,2,62,I 93,,,FALSE,OE,q,556,oe
CVOE updated,69,1,2,63,D 63,,,TRUE,OE,q,493,oe
CVOE updated,69,1,2,64,U 89,,,FALSE,OE,q,408,oe
CVOE updated,69,1,2,65,E 91,,,FALSE,OE,q,499,oe
CVOE updated,69,1,2,66,A 12,,,TRUE,OE,p,695,oe
CVOE updated,69,1,2,67,P 56,,,FALSE,OE,p,561,oe
CVOE updated,69,1,2,68,S 65,,,TRUE,OE,q,489,oe
CVOE updated,69,1,2,69,P 07,,,TRUE,OE,q,724,oe
CVOE updated,69,1,2,70,I 77,,,FALSE,OE,q,605,oe
CVOE updated,69,1,2,71,J 19,,,TRUE,OE,q,429,oe
CVOE updated,69,1,2,72,O 59,,,FALSE,OE,q,435,oe
CVOE updated,69,1,2,73,J 15,,,TRUE,OE,q,459,oe
CVOE updated,69,1,2,74,I 89,,,FALSE,OE,q,446,oe
CVOE updated,69,1,2,75,O 97,,,FALSE,OE,q,567,oe
CVOE updated,69,1,2,76,A 92,,,TRUE,OE,p,474,oe
CVOE updated,69,1,2,77,J 90,,,FALSE,OE,p,474,oe
CVOE updated,69,1,2,78,H 65,,,TRUE,OE,q,442,oe
CVOE updated,69,1,2,79,H 17,,,TRUE,OE,q,467,oe
CVOE updated,69,1,2,80,S 26,,,FALSE,OE,p,433,oe
CVOE updated,69,1,2,81,D 56,,,FALSE,OE,p,510,oe
CVOE updated,69,1,2,82,I 91,,,FALSE,OE,q,612,oe
CVOE updated,69,1,2,83,J 11,,,TRUE,OE,p,487,oe
CVOE updated,69,1,2,84,O 28,,,TRUE,OE,p,474,oe
CVOE updated,69,1,2,85,H 29,,,TRUE,OE,q,474,oe
CVOE updated,69,1,2,86,J 25,,,TRUE,OE,q,483,oe
CVOE updated,69,1,2,87,A 73,,,FALSE,OE,q,427,oe
CVOE updated,69,1,2,88,J 63,,,TRUE,OE,q,545,oe
CVOE updated,69,1,2,89,U 84,,,TRUE,OE,p,503,oe
CVOE updated,69,1,2,90,A 58,,,TRUE,OE,p,652,oe
CVOE updated,69,1,2,91,S 43,,,TRUE,OE,q,487,oe
CVOE updated,69,1,2,92,H 54,,,FALSE,OE,p,971,oe
CVOE updated,69,1,2,93,D 4,,,FALSE,OE,p,806,oe
CVOE updated,69,1,2,94,J 75,,,TRUE,OE,q,558,oe
CVOE updated,69,1,2,95,D 19,,,TRUE,OE,q,655,oe
CVOE updated,69,1,2,96,J 38,,,FALSE,OE,p,434,oe
CVOE updated,69,1,2,97,I 56,,,TRUE,OE,p,466,oe
CVOE updated,69,1,2,98,P 87,,,TRUE,OE,q,496,oe
CVOE updated,69,1,2,99,O 80,,,TRUE,OE,p,555,oe
CVOE updated,69,1,2,100,U 60,,,TRUE,OE,p,355,oe
CVOE updated,69,1,2,101,P 48,,,FALSE,OE,p,452,oe
CVOE updated,69,1,2,102,H 64,,,FALSE,OE,p,415,oe
CVOE updated,69,1,2,103,A 13,,,FALSE,OE,q,402,oe
CVOE updated,69,1,2,104,H 68,,,FALSE,OE,p,562,oe
CVOE updated,69,1,2,105,E 16,,,TRUE,OE,p,538,oe
CVOE updated,69,1,2,106,S 71,,,TRUE,OE,q,518,oe
CVOE updated,69,1,3,11,A 44,Letter,N,TRUE,CV,p,1682,alt
CVOE updated,69,1,3,12,D 94,Letter,N,FALSE,CV,q,819,alt
CVOE updated,69,1,3,13,E 75,Number,Y,FALSE,OE,q,1006,alt
CVOE updated,69,1,3,14,H 81,Number,N,TRUE,OE,q,711,alt
CVOE updated,69,1,3,15,I 64,Letter,Y,TRUE,CV,p,1172,alt
CVOE updated,69,1,3,16,J 54,Letter,N,FALSE,CV,q,728,alt
CVOE updated,69,1,3,17,O 23,Number,Y,FALSE,OE,q,731,alt
CVOE updated,69,1,3,18,P 05,Number,N,TRUE,OE,q,886,alt
CVOE updated,69,1,3,19,S 34,Letter,Y,FALSE,CV,q,750,alt
CVOE updated,69,1,3,20,U 88,Letter,N,TRUE,CV,p,780,alt
CVOE updated,69,1,3,21,A 70,Number,Y,TRUE,OE,p,1082,alt
CVOE updated,69,1,3,22,D 12,Number,N,FALSE,OE,q,691,alt
CVOE updated,69,1,3,23,E 79,Letter,Y,FALSE,CV,p,2070,alt
CVOE updated,69,1,3,24,H 72,Letter,N,FALSE,CV,q,1404,alt
CVOE updated,69,1,3,25,I 41,Number,Y,FALSE,OE,q,1829,alt
CVOE updated,69,1,3,26,J 63,Number,N,TRUE,OE,q,1259,alt
CVOE updated,69,1,3,27,O 03,Letter,Y,FALSE,CV,p,1537,alt
CVOE updated,69,1,3,28,P 75,Letter,N,TRUE,CV,q,1181,alt
CVOE updated,69,1,3,29,S 61,Number,Y,TRUE,OE,q,1058,alt
CVOE updated,69,1,3,30,U 28,Number,N,TRUE,OE,p,1022,alt
CVOE updated,69,1,3,31,A 21,Letter,Y,FALSE,CV,q,764,alt
CVOE updated,69,1,3,32,D 18,Letter,N,FALSE,CV,q,868,alt
CVOE updated,69,1,3,33,E 35,Number,Y,FALSE,OE,q,1475,alt
CVOE updated,69,1,3,34,H 62,Number,N,FALSE,OE,p,1243,alt
CVOE updated,69,1,3,35,I 82,Letter,Y,TRUE,CV,p,1131,alt
CVOE updated,69,1,3,36,J 78,Letter,N,FALSE,CV,q,1287,alt
CVOE updated,69,1,3,37,O 12,Number,Y,TRUE,OE,p,1066,alt
CVOE updated,69,1,3,38,P 13,Number,N,TRUE,OE,q,1153,alt
CVOE updated,69,1,3,39,S 07,Letter,Y,TRUE,CV,q,934,alt
CVOE updated,69,1,3,40,U 36,Letter,N,TRUE,CV,p,777,alt
CVOE updated,69,1,3,41,A 96,Number,Y,TRUE,OE,p,988,alt
CVOE updated,69,1,3,42,D 04,Number,N,FALSE,OE,p,938,alt
CVOE updated,69,1,3,43,E 60,Letter,Y,TRUE,CV,p,1158,alt
CVOE updated,69,1,3,44,H 83,Letter,N,TRUE,CV,q,2014,alt
CVOE updated,69,1,3,45,I 64,Number,Y,TRUE,OE,p,922,alt
CVOE updated,69,1,3,46,J 76,Number,N,FALSE,OE,p,1466,alt
CVOE updated,69,1,3,47,O 78,Letter,Y,TRUE,CV,p,1304,alt
CVOE updated,69,1,3,48,P 09,Letter,N,TRUE,CV,q,1006,alt
CVOE updated,69,1,3,49,S 72,Number,Y,FALSE,OE,p,1170,alt
CVOE updated,69,1,3,50,U 47,Number,N,FALSE,OE,q,1005,alt
CVOE updated,69,1,3,51,A 31,Letter,Y,FALSE,CV,p,1454,alt
CVOE updated,69,1,3,52,D 96,Letter,N,FALSE,CV,q,1585,alt
CVOE updated,69,1,3,53,E 40,Number,Y,TRUE,OE,p,1183,alt
CVOE updated,69,1,3,54,H 79,Number,N,TRUE,OE,q,838,alt
CVOE updated,69,1,3,55,I 15,Letter,Y,FALSE,CV,p,2030,alt
CVOE updated,69,1,3,56,J 07,Letter,N,TRUE,CV,q,1692,alt
CVOE updated,69,1,3,57,O 61,Number,Y,FALSE,OE,q,1191,alt
CVOE updated,69,1,3,58,P 58,Number,N,FALSE,OE,p,1453,alt
CVOE updated,69,1,3,59,S 37,Letter,Y,TRUE,CV,q,809,alt
CVOE updated,69,1,3,60,U 61,Letter,N,FALSE,CV,p,1316,alt
CVOE updated,69,1,3,61,A 17,Number,Y,FALSE,OE,q,1413,alt
CVOE updated,69,1,3,62,D 85,Number,N,TRUE,OE,q,1416,alt
CVOE updated,69,1,3,63,E 20,Letter,Y,TRUE,CV,p,1692,alt
CVOE updated,69,1,3,64,H 86,Letter,N,FALSE,CV,q,1359,alt
CVOE updated,69,1,3,65,I 21,Number,Y,FALSE,OE,q,1632,alt
CVOE updated,69,1,3,66,J 29,Number,N,TRUE,OE,q,1318,alt
CVOE updated,69,1,3,67,O 13,Letter,Y,FALSE,CV,p,808,alt
CVOE updated,69,1,3,68,P 82,Letter,N,FALSE,CV,q,1298,alt
CVOE updated,69,1,3,69,S 72,Number,Y,FALSE,OE,p,1005,alt
CVOE updated,69,1,3,70,U 84,Number,N,TRUE,OE,p,1174,alt
CVOE updated,69,1,3,71,A 49,Letter,Y,FALSE,CV,p,1217,alt
CVOE updated,69,1,3,72,D 91,Letter,N,TRUE,CV,q,813,alt
CVOE updated,69,1,3,73,E 99,Number,Y,FALSE,OE,q,1080,alt
CVOE updated,69,1,3,74,H 16,Number,N,FALSE,OE,p,968,alt
CVOE updated,69,1,3,75,I 45,Letter,Y,FALSE,CV,p,1019,alt
CVOE updated,69,1,3,76,J 70,Letter,N,FALSE,CV,q,1513,alt
CVOE updated,69,1,3,77,O 22,Number,Y,TRUE,OE,p,1194,alt
CVOE updated,69,1,3,78,P 41,Number,N,TRUE,OE,q,1139,alt
CVOE updated,69,1,3,79,S 93,Letter,Y,TRUE,CV,q,1438,alt
CVOE updated,69,1,3,80,U 70,Letter,N,TRUE,CV,p,1679,alt
CVOE updated,69,1,3,81,A 42,Number,Y,TRUE,OE,p,1304,alt
CVOE updated,69,1,3,82,D 85,Number,N,TRUE,OE,q,1630,alt
CVOE updated,69,1,3,83,E 68,Letter,Y,TRUE,CV,p,1228,alt
CVOE updated,69,1,3,84,H 17,Letter,N,TRUE,CV,q,1394,alt
CVOE updated,69,1,3,85,I 70,Number,Y,TRUE,OE,p,1627,alt
CVOE updated,69,1,3,86,J 88,Number,N,FALSE,OE,p,1098,alt
CVOE updated,69,1,3,87,O 32,Letter,Y,TRUE,CV,p,1516,alt
CVOE updated,69,1,3,88,P 95,Letter,N,TRUE,CV,q,893,alt
CVOE updated,69,1,3,89,S 98,Number,Y,FALSE,OE,p,1456,alt
CVOE updated,69,1,3,90,U 37,Number,N,FALSE,OE,q,2371,alt
CVOE updated,69,1,3,91,A 56,Letter,Y,TRUE,CV,p,1039,alt
CVOE updated,69,1,3,92,D 57,Letter,N,TRUE,CV,q,937,alt
CVOE updated,69,1,3,93,E 93,Number,Y,FALSE,OE,q,3187,alt
CVOE updated,69,1,3,94,H 27,Number,N,TRUE,OE,q,1219,alt
CVOE updated,69,1,3,95,I 35,Letter,Y,FALSE,CV,p,1101,alt
CVOE updated,69,1,3,96,J 03,Letter,N,TRUE,CV,q,692,alt
CVOE updated,69,1,3,97,O 28,Number,Y,TRUE,OE,p,831,alt
CVOE updated,69,1,3,98,P 59,Number,N,TRUE,OE,q,941,alt
CVOE updated,69,1,3,99,S 77,Letter,Y,TRUE,CV,q,834,alt
CVOE updated,69,1,3,100,U 05,Letter,N,FALSE,CV,p,787,alt
CVOE updated,69,1,3,101,A 56,Number,Y,TRUE,OE,p,1009,alt
CVOE updated,69,1,3,102,D 01,Number,N,TRUE,OE,q,860,alt
CVOE updated,69,1,3,103,E 02,Letter,Y,TRUE,CV,p,681,alt
CVOE updated,69,1,3,104,H 68,Letter,N,FALSE,CV,q,1075,alt
CVOE updated,69,1,3,105,I 05,Number,Y,FALSE,OE,p,738,alt
CVOE updated,69,1,3,106,J 55,Number,N,TRUE,OE,q,1238,alt
CVOE updated,69,1,3,107,O 73,Letter,Y,FALSE,CV,p,1855,alt
CVOE updated,69,1,3,108,P 41,Letter,N,TRUE,CV,q,1194,alt
CVOE updated,69,1,3,109,S 92,Number,Y,FALSE,OE,p,1795,alt
CVOE updated,69,1,3,110,U 34,Number,N,TRUE,OE,p,980,alt
CVOE updated,69,1,3,111,A 09,Letter,Y,FALSE,CV,p,994,alt
CVOE updated,69,1,3,112,D 92,Letter,N,FALSE,CV,q,827,alt
CVOE updated,69,1,3,113,E 48,Number,Y,TRUE,OE,p,808,alt
CVOE updated,69,1,3,114,H 76,Number,N,FALSE,OE,p,1028,alt
CVOE updated,69,1,3,115,I 44,Letter,Y,TRUE,CV,p,802,alt
CVOE updated,69,1,3,116,J 67,Letter,N,TRUE,CV,q,1010,alt
CVOE updated,69,1,3,117,O 48,Number,Y,TRUE,OE,p,965,alt
CVOE updated,69,1,3,118,P 22,Number,N,FALSE,OE,p,918,alt
CVOE updated,69,1,3,119,S 86,Letter,Y,FALSE,CV,q,855,alt
CVOE updated,69,1,3,120,U 35,Letter,N,FALSE,CV,p,890,alt
CVOE updated,69,1,3,121,A 91,Number,Y,FALSE,OE,q,1165,alt
CVOE updated,69,1,3,122,D 78,Number,N,FALSE,OE,p,1270,alt
CVOE updated,69,1,3,123,E 91,Letter,Y,FALSE,CV,q,1092,alt
CVOE updated,69,1,3,124,H 54,Letter,N,FALSE,CV,q,1151,alt
CVOE updated,69,1,3,125,I 65,Number,Y,FALSE,OE,q,989,alt
CVOE updated,69,1,3,126,J 52,Number,N,FALSE,OE,p,1003,alt
CVOE updated,69,1,3,127,O 19,Letter,Y,FALSE,CV,p,763,alt
CVOE updated,69,1,3,128,P 48,Letter,N,FALSE,CV,q,1028,alt
CVOE updated,69,1,3,129,S 45,Number,Y,TRUE,OE,q,1938,alt
CVOE updated,69,1,3,130,U 26,Number,N,TRUE,OE,p,1541,alt
CVOE updated,69,1,4,1,U 38,Number,N,TRUE,OE,p,999,shuf
CVOE updated,69,1,4,2,P 73,Number,N,TRUE,OE,p,880,shuf
CVOE updated,69,1,4,3,U 95,Letter,Y,FALSE,CV,p,1432,shuf
CVOE updated,69,1,4,4,J 61,Number,Y,TRUE,OE,q,1038,shuf
CVOE updated,69,1,4,5,D 51,Number,N,TRUE,OE,q,1055,shuf
CVOE updated,69,1,4,6,S 28,Number,N,FALSE,OE,p,826,shuf
CVOE updated,69,1,4,7,A 56,Letter,Y,TRUE,CV,p,1032,shuf
CVOE updated,69,1,4,8,H 78,Letter,N,FALSE,CV,q,1190,shuf
CVOE updated,69,1,4,9,P 92,Letter,N,FALSE,CV,q,1068,shuf
CVOE updated,69,1,4,10,E 05,Number,Y,FALSE,OE,q,2002,shuf
CVOE updated,69,1,4,11,P 57,Letter,Y,TRUE,CV,q,883,shuf
CVOE updated,69,1,4,12,D 88,Number,Y,FALSE,OE,p,803,shuf
CVOE updated,69,1,4,13,O 89,Letter,Y,FALSE,CV,q,1372,shuf
CVOE updated,69,1,4,14,U 43,Number,Y,FALSE,OE,q,1151,shuf
CVOE updated,69,1,4,15,H 10,Number,N,FALSE,OE,p,1117,shuf
CVOE updated,69,1,4,16,S 07,Letter,Y,TRUE,CV,q,1246,shuf
CVOE updated,69,1,4,17,J 10,Letter,N,FALSE,CV,q,1430,shuf
CVOE updated,69,1,4,18,H 54,Number,Y,FALSE,OE,p,821,shuf
CVOE updated,69,1,4,19,E 99,Number,N,FALSE,OE,q,1314,shuf
CVOE updated,69,1,4,20,J 36,Letter,Y,FALSE,CV,q,1459,shuf
CVOE updated,69,1,4,21,I 94,Letter,N,TRUE,CV,p,1270,shuf
CVOE updated,69,1,4,22,A 82,Letter,N,TRUE,CV,p,1533,shuf
CVOE updated,69,1,4,23,H 79,Number,Y,TRUE,OE,q,984,shuf
CVOE updated,69,1,4,24,J 60,Number,N,FALSE,OE,p,822,shuf
CVOE updated,69,1,4,25,S 28,Letter,Y,FALSE,CV,q,1028,shuf
CVOE updated,69,1,4,26,P 11,Number,Y,TRUE,OE,q,754,shuf
CVOE updated,69,1,4,27,D 39,Number,N,TRUE,OE,q,1194,shuf
CVOE updated,69,1,4,28,E 90,Number,N,TRUE,OE,p,1019,shuf
CVOE updated,69,1,4,29,I 38,Number,N,TRUE,OE,p,878,shuf
CVOE updated,69,1,4,30,S 35,Letter,Y,TRUE,CV,q,791,shuf
CVOE updated,69,1,4,31,D 41,Number,Y,TRUE,OE,q,916,shuf
CVOE updated,69,1,4,32,E 06,Number,N,TRUE,OE,p,933,shuf
CVOE updated,69,1,4,33,A 27,Number,N,FALSE,OE,q,1384,shuf
CVOE updated,69,1,4,34,U 95,Letter,Y,FALSE,CV,p,1206,shuf
CVOE updated,69,1,4,35,A 53,Letter,N,FALSE,CV,p,1079,shuf
CVOE updated,69,1,4,36,E 43,Letter,N,FALSE,CV,p,807,shuf
CVOE updated,69,1,4,37,P 05,Number,Y,TRUE,OE,q,899,shuf
CVOE updated,69,1,4,38,O 19,Letter,Y,FALSE,CV,p,790,shuf
CVOE updated,69,1,4,39,I 96,Number,Y,TRUE,OE,p,1036,shuf
CVOE updated,69,1,4,40,A 88,Number,N,TRUE,OE,p,908,shuf
CVOE updated,69,1,4,41,I 67,Number,N,FALSE,OE,q,698,shuf
CVOE updated,69,1,4,42,D 40,Number,N,FALSE,OE,p,781,shuf
CVOE updated,69,1,4,43,P 79,Letter,Y,TRUE,CV,q,851,shuf
CVOE updated,69,1,4,44,U 24,Number,Y,TRUE,OE,p,822,shuf
CVOE updated,69,1,4,45,P 74,Number,N,FALSE,OE,p,1524,shuf
CVOE updated,69,1,4,46,E 70,Number,N,TRUE,OE,p,965,shuf
CVOE updated,69,1,4,47,S 27,Number,N,TRUE,OE,q,781,shuf
CVOE updated,69,1,4,48,E 54,Letter,Y,TRUE,CV,p,931,shuf
CVOE updated,69,1,4,49,A 53,Letter,N,FALSE,CV,p,991,shuf
CVOE updated,69,1,4,50,P 34,Letter,N,FALSE,CV,q,724,shuf
CVOE updated,69,1,4,51,D 74,Number,Y,FALSE,OE,p,1269,shuf
CVOE updated,69,1,4,52,A 03,Letter,Y,FALSE,CV,p,1347,shuf
CVOE updated,69,1,4,53,E 24,Number,Y,TRUE,OE,p,881,shuf
CVOE updated,69,1,4,54,I 58,Letter,Y,TRUE,CV,p,1321,shuf
CVOE updated,69,1,4,55,D 77,Number,Y,TRUE,OE,q,778,shuf
CVOE updated,69,1,4,56,S 75,Number,N,TRUE,OE,q,789,shuf
CVOE updated,69,1,4,57,I 20,Letter,Y,TRUE,CV,p,1011,shuf
CVOE updated,69,1,4,58,J 52,Letter,N,FALSE,CV,q,1414,shuf
CVOE updated,69,1,4,59,A 38,Number,Y,TRUE,OE,p,994,shuf
CVOE updated,69,1,4,60,I 60,Letter,Y,TRUE,CV,p,1690,shuf
CVOE updated,69,1,4,61,S 51,Number,Y,TRUE,OE,q,926,shuf
CVOE updated,69,1,4,62,D 63,Letter,Y,TRUE,CV,q,886,shuf
CVOE updated,69,1,4,63,U 27,Letter,N,FALSE,CV,p,1127,shuf
CVOE updated,69,1,4,64,J 77,Letter,N,TRUE,CV,q,810,shuf
CVOE updated,69,1,4,65,O 15,Number,Y,FALSE,OE,q,1085,shuf
CVOE updated,69,1,4,66,J 20,Letter,Y,FALSE,CV,q,1062,shuf
CVOE updated,69,1,4,67,U 97,Number,Y,FALSE,OE,q,884,shuf
CVOE updated,69,1,4,68,H 03,Number,N,TRUE,OE,q,997,shuf
CVOE updated,69,1,4,69,O 04,Letter,Y,TRUE,CV,p,1245,shuf
CVOE updated,69,1,4,70,E 10,Letter,N,TRUE,CV,p,814,shuf
CVOE updated,69,1,4,71,I 52,Letter,N,TRUE,CV,p,713,shuf
CVOE updated,69,1,4,72,H 81,Number,Y,TRUE,OE,q,831,shuf
CVOE updated,69,1,4,73,I 41,Number,N,FALSE,OE,q,1165,shuf
CVOE updated,69,1,4,74,U 19,Letter,Y,FALSE,CV,p,821,shuf
CVOE updated,69,1,4,75,O 17,Number,Y,FALSE,OE,q,779,shuf
CVOE updated,69,1,4,76,A 10,Number,N,TRUE,OE,p,1022,shuf
CVOE updated,69,1,4,77,P 93,Letter,Y,TRUE,CV,q,660,shuf
CVOE updated,69,1,4,78,E 59,Letter,N,FALSE,CV,p,1047,shuf
CVOE updated,69,1,4,79,O 53,Letter,N,FALSE,CV,p,1003,shuf
CVOE updated,69,1,4,80,A 96,Letter,N,TRUE,CV,p,803,shuf
CVOE updated,69,1,4,81,H 36,Letter,Y,FALSE,CV,q,692,shuf
CVOE updated,69,1,4,82,A 63,Letter,N,FALSE,CV,p,719,shuf
CVOE updated,69,1,4,83,I 38,Letter,N,TRUE,CV,p,815,shuf
CVOE updated,69,1,4,84,O 51,Number,Y,FALSE,OE,q,826,shuf
CVOE updated,69,1,4,85,J 26,Number,N,FALSE,OE,q,920,shuf
CVOE updated,69,1,4,86,S 34,Letter,Y,FALSE,CV,q,1385,shuf
CVOE updated,69,1,4,87,U 85,Number,Y,FALSE,OE,q,959,shuf
CVOE updated,69,1,4,88,J 77,Number,N,TRUE,OE,q,1151,shuf
CVOE updated,69,1,4,89,I 73,Letter,Y,FALSE,CV,p,709,shuf
CVOE updated,69,1,4,90,H 46,Number,Y,FALSE,OE,p,1187,shuf
CVOE updated,69,1,4,91,D 04,Number,N,FALSE,OE,p,1105,shuf
CVOE updated,69,1,4,92,P 72,Letter,Y,FALSE,CV,q,1375,shuf
CVOE updated,69,1,4,93,D 99,Number,Y,TRUE,OE,q,1258,shuf
CVOE updated,69,1,4,94,U 25,Letter,Y,FALSE,CV,p,1518,shuf
CVOE updated,69,1,4,95,O 32,Letter,N,TRUE,CV,p,1975,shuf
CVOE updated,69,1,4,96,E 80,Letter,N,TRUE,CV,p,1042,shuf
CVOE updated,69,1,4,97,O 84,Number,Y,TRUE,OE,p,1139,shuf
CVOE updated,69,1,4,98,A 78,Number,N,TRUE,OE,p,1374,shuf
CVOE updated,69,1,4,99,S 05,Number,N,TRUE,OE,q,1073,shuf
CVOE updated,69,1,4,100,U 35,Letter,Y,FALSE,CV,p,962,shuf
CVOE updated,69,1,4,101,H 14,Letter,N,FALSE,CV,q,1203,shuf
CVOE updated,69,1,4,102,U 15,Number,Y,FALSE,OE,q,1019,shuf
CVOE updated,69,1,4,103,E 36,Letter,Y,TRUE,CV,p,2351,shuf
CVOE updated,69,1,4,104,P 70,Letter,N,FALSE,CV,q,861,shuf
CVOE updated,69,1,4,105,O 44,Number,Y,TRUE,OE,p,763,shuf
CVOE updated,69,1,4,106,S 41,Letter,Y,TRUE,CV,q,1011,shuf
CVOE updated,69,1,4,107,D 83,Letter,N,TRUE,CV,q,1111,shuf
CVOE updated,69,1,4,108,J 39,Letter,N,TRUE,CV,q,1029,shuf
CVOE updated,69,1,4,109,S 22,Number,Y,FALSE,OE,p,1114,shuf
CVOE updated,69,1,4,110,D 89,Letter,Y,TRUE,CV,q,1251,shuf
CVOE updated,69,1,4,111,P 87,Letter,N,TRUE,CV,q,774,shuf
CVOE updated,69,1,4,112,H 42,Letter,N,FALSE,CV,q,858,shuf
CVOE updated,69,1,4,113,S 49,Letter,N,TRUE,CV,q,725,shuf
CVOE updated,69,1,4,114,J 20,Number,Y,FALSE,OE,p,741,shuf
CVOE updated,69,1,4,115,O 19,Letter,Y,FALSE,CV,p,923,shuf
CVOE updated,69,1,4,116,H 50,Letter,N,FALSE,CV,q,1348,shuf
CVOE updated,69,1,4,117,I 68,Number,Y,TRUE,OE,p,1210,shuf
CVOE updated,69,1,4,118,J 72,Number,N,FALSE,OE,p,1181,shuf
CVOE updated,69,1,4,119,O 21,Number,N,FALSE,OE,q,1619,shuf
CVOE updated,69,1,4,120,H 22,Number,N,FALSE,OE,p,974,shuf
CVOE updated,73,1,1,11,A 71,,,FALSE,CV,p,1175,cv
CVOE updated,73,1,1,12,I 66,,,TRUE,CV,p,610,cv
CVOE updated,73,1,1,13,S 30,,,FALSE,CV,q,613,cv
CVOE updated,73,1,1,14,D 20,,,FALSE,CV,q,656,cv
CVOE updated,73,1,1,15,I 31,,,FALSE,CV,p,619,cv
CVOE updated,73,1,1,16,P 16,,,FALSE,CV,q,558,cv
CVOE updated,73,1,1,17,A 49,,,FALSE,CV,q,591,cv
CVOE updated,73,1,1,18,O 64,,,TRUE,CV,p,749,cv
CVOE updated,73,1,1,19,D 02,,,FALSE,CV,q,618,cv
CVOE updated,73,1,1,20,P 81,,,TRUE,CV,q,654,cv
CVOE updated,73,1,1,21,J 58,,,FALSE,CV,q,713,cv
CVOE updated,73,1,1,22,A 22,,,TRUE,CV,p,649,cv
CVOE updated,73,1,1,23,J 72,,,FALSE,CV,q,628,cv
CVOE updated,73,1,1,24,P 91,,,TRUE,CV,q,666,cv
CVOE updated,73,1,1,25,E 19,,,FALSE,CV,p,720,cv
CVOE updated,73,1,1,26,I 30,,,TRUE,CV,p,656,cv
CVOE updated,73,1,1,27,D 91,,,TRUE,CV,q,595,cv
CVOE updated,73,1,1,28,O 48,,,TRUE,CV,p,788,cv
CVOE updated,73,1,1,29,A 89,,,FALSE,CV,p,1226,cv
CVOE updated,73,1,1,30,U 11,,,FALSE,CV,p,600,cv
CVOE updated,73,1,1,31,I 76,,,TRUE,CV,p,648,cv
CVOE updated,73,1,1,32,U 89,,,FALSE,CV,p,611,cv
CVOE updated,73,1,1,33,D 63,,,TRUE,CV,q,590,cv
CVOE updated,73,1,1,34,H 70,,,FALSE,CV,q,884,cv
CVOE updated,73,1,1,35,D 48,,,FALSE,CV,q,717,cv
CVOE updated,73,1,1,36,P 56,,,FALSE,CV,q,685,cv
CVOE updated,73,1,1,37,O 77,,,FALSE,CV,p,726,cv
CVOE updated,73,1,1,38,P 42,,,FALSE,CV,q,670,cv
CVOE updated,73,1,1,39,H 22,,,FALSE,CV,q,820,cv
CVOE updated,73,1,1,40,E 42,,,TRUE,CV,p,618,cv
CVOE updated,73,1,1,41,J 28,,,FALSE,CV,q,693,cv
CVOE updated,73,1,1,42,E 95,,,FALSE,CV,p,752,cv
CVOE updated,73,1,1,43,S 63,,,TRUE,CV,q,606,cv
CVOE updated,73,1,1,44,H 50,,,FALSE,CV,q,766,cv
CVOE updated,73,1,1,45,S 33,,,TRUE,CV,q,649,cv
CVOE updated,73,1,1,46,P 57,,,TRUE,CV,q,612,cv
CVOE updated,73,1,1,47,E 23,,,FALSE,CV,p,665,cv
CVOE updated,73,1,1,48,S 61,,,TRUE,CV,q,557,cv
CVOE updated,73,1,1,49,U 67,,,FALSE,CV,p,718,cv
CVOE updated,73,1,1,50,H 32,,,FALSE,CV,q,662,cv
CVOE updated,73,1,1,51,U 50,,,TRUE,CV,p,1220,cv
CVOE updated,73,1,1,52,O 49,,,FALSE,CV,p,594,cv
CVOE updated,73,1,1,53,U 32,,,TRUE,CV,p,618,cv
CVOE updated,73,1,1,54,J 78,,,FALSE,CV,q,582,cv
CVOE updated,73,1,1,55,S 54,,,FALSE,CV,q,859,cv
CVOE updated,73,1,1,56,J 27,,,TRUE,CV,q,558,cv
CVOE updated,73,1,1,57,S 06,,,FALSE,CV,q,599,cv
CVOE updated,73,1,1,58,D 67,,,TRUE,CV,q,647,cv
CVOE updated,73,1,1,59,A 79,,,FALSE,CV,p,618,cv
CVOE updated,73,1,1,60,S 52,,,FALSE,CV,q,742,cv
CVOE updated,73,1,1,61,U 16,,,TRUE,CV,p,715,cv
CVOE updated,73,1,1,62,O 82,,,TRUE,CV,p,636,cv
CVOE updated,73,1,1,63,H 87,,,TRUE,CV,q,692,cv
CVOE updated,73,1,1,64,I 32,,,TRUE,CV,p,879,cv
CVOE updated,73,1,1,65,U 37,,,FALSE,CV,p,768,cv
CVOE updated,73,1,1,66,I 42,,,TRUE,CV,p,715,cv
CVOE updated,73,1,1,67,D 65,,,TRUE,CV,q,652,cv
CVOE updated,73,1,1,68,U 77,,,FALSE,CV,p,927,cv
CVOE updated,73,1,1,69,E 12,,,TRUE,CV,p,666,cv
CVOE updated,73,1,1,70,I 60,,,TRUE,CV,p,616,cv
CVOE updated,73,1,1,71,J 36,,,FALSE,CV,q,675,cv
CVOE updated,73,1,1,72,H 75,,,TRUE,CV,q,691,cv
CVOE updated,73,1,1,73,I 50,,,TRUE,CV,p,614,cv
CVOE updated,73,1,1,74,E 99,,,FALSE,CV,p,665,cv
CVOE updated,73,1,1,75,A 86,,,TRUE,CV,p,607,cv
CVOE updated,73,1,1,76,U 48,,,TRUE,CV,p,618,cv
CVOE updated,73,1,1,77,E 01,,,FALSE,CV,p,709,cv
CVOE updated,73,1,1,78,A 78,,,TRUE,CV,p,747,cv
CVOE updated,73,1,1,79,P 60,,,FALSE,CV,q,633,cv
CVOE updated,73,1,1,80,E 43,,,FALSE,CV,p,674,cv
CVOE updated,73,1,1,81,D 69,,,TRUE,CV,q,642,cv
CVOE updated,73,1,1,82,H 11,,,TRUE,CV,q,978,cv
CVOE updated,73,1,1,83,P 43,,,TRUE,CV,q,646,cv
CVOE updated,73,1,1,84,O 67,,,FALSE,CV,p,630,cv
CVOE updated,73,1,1,85,S 91,,,FALSE,CV,q,788,cv
CVOE updated,73,1,1,86,J 68,,,TRUE,CV,q,738,cv
CVOE updated,73,1,1,87,S 47,,,FALSE,CV,q,661,cv
CVOE updated,73,1,1,88,I 81,,,TRUE,CV,p,739,cv
CVOE updated,73,1,1,89,J 39,,,FALSE,CV,q,622,cv
CVOE updated,73,1,1,90,A 11,,,TRUE,CV,p,612,cv
CVOE updated,73,1,1,91,O 76,,,FALSE,CV,p,639,cv
CVOE updated,73,1,1,92,A 62,,,FALSE,CV,p,679,cv
CVOE updated,73,1,1,93,O 27,,,TRUE,CV,p,664,cv
CVOE updated,73,1,1,94,E 66,,,FALSE,CV,p,637,cv
CVOE updated,73,1,1,95,J 62,,,TRUE,CV,q,598,cv
CVOE updated,73,1,1,96,H 72,,,TRUE,CV,q,630,cv
CVOE updated,73,1,1,97,E 49,,,TRUE,CV,p,652,cv
CVOE updated,73,1,1,98,D 52,,,TRUE,CV,q,663,cv
CVOE updated,73,1,1,99,H 62,,,TRUE,CV,q,749,cv
CVOE updated,73,1,1,100,I 11,,,TRUE,CV,p,675,cv
CVOE updated,73,1,1,101,A 98,,,FALSE,CV,p,627,cv
CVOE updated,73,1,1,102,H 29,,,FALSE,CV,q,545,cv
CVOE updated,73,1,1,103,E 83,,,TRUE,CV,p,855,cv
CVOE updated,73,1,1,104,D 43,,,FALSE,CV,q,626,cv
CVOE updated,73,1,1,105,P 45,,,TRUE,CV,q,656,cv
CVOE updated,73,1,1,106,J 17,,,TRUE,CV,q,691,cv
CVOE updated,73,1,2,11,A 24,,,TRUE,OE,p,1164,oe
CVOE updated,73,1,2,12,O 83,,,FALSE,OE,q,668,oe
CVOE updated,73,1,2,13,H 55,,,TRUE,OE,q,1074,oe
CVOE updated,73,1,2,14,P 10,,,FALSE,OE,p,1211,oe
CVOE updated,73,1,2,15,D 30,,,FALSE,OE,p,1022,oe
CVOE updated,73,1,2,16,U 62,,,TRUE,OE,p,668,oe
CVOE updated,73,1,2,17,P 95,,,TRUE,OE,q,682,oe
CVOE updated,73,1,2,18,U 06,,,TRUE,OE,p,762,oe
CVOE updated,73,1,2,19,E 75,,,FALSE,OE,q,867,oe
CVOE updated,73,1,2,20,I 67,,,FALSE,OE,q,817,oe
CVOE updated,73,1,2,21,S 13,,,TRUE,OE,q,804,oe
CVOE updated,73,1,2,22,P 78,,,FALSE,OE,p,892,oe
CVOE updated,73,1,2,23,I 15,,,FALSE,OE,q,704,oe
CVOE updated,73,1,2,24,D 27,,,TRUE,OE,q,781,oe
CVOE updated,73,1,2,25,O 94,,,TRUE,OE,p,851,oe
CVOE updated,73,1,2,26,A 65,,,FALSE,OE,q,718,oe
CVOE updated,73,1,2,27,I 42,,,TRUE,OE,q,751,oe
CVOE updated,73,1,2,28,E 25,,,FALSE,OE,q,645,oe
CVOE updated,73,1,2,29,H 49,,,TRUE,OE,q,1253,oe
CVOE updated,73,1,2,30,S 18,,,FALSE,OE,p,768,oe
CVOE updated,73,1,2,31,H 51,,,TRUE,OE,q,724,oe
CVOE updated,73,1,2,32,U 14,,,TRUE,OE,p,860,oe
CVOE updated,73,1,2,33,E 02,,,TRUE,OE,p,1330,oe
CVOE updated,73,1,2,34,J 26,,,FALSE,OE,p,693,oe
CVOE updated,73,1,2,35,D 24,,,FALSE,OE,p,672,oe
CVOE updated,73,1,2,36,O 50,,,TRUE,OE,p,862,oe
CVOE updated,73,1,2,37,U 16,,,TRUE,OE,p,732,oe
CVOE updated,73,1,2,38,O 15,,,FALSE,OE,q,783,oe
CVOE updated,73,1,2,39,D 32,,,FALSE,OE,p,885,oe
CVOE updated,73,1,2,40,S 67,,,TRUE,OE,q,1182,oe
CVOE updated,73,1,2,41,J 74,,,FALSE,OE,p,748,oe
CVOE updated,73,1,2,42,D 92,,,FALSE,OE,q,937,oe
CVOE updated,73,1,2,43,A 65,,,FALSE,OE,q,1565,oe
CVOE updated,73,1,2,44,I 87,,,FALSE,OE,q,853,oe
CVOE updated,73,1,2,45,H 61,,,TRUE,OE,q,1441,oe
CVOE updated,73,1,2,46,E 59,,,FALSE,OE,q,1017,oe
CVOE updated,73,1,2,47,I 33,,,FALSE,OE,q,1485,oe
CVOE updated,73,1,2,48,O 90,,,TRUE,OE,p,605,oe
CVOE updated,73,1,2,49,U 51,,,FALSE,OE,q,854,oe
CVOE updated,73,1,2,50,A 10,,,TRUE,OE,p,1417,oe
CVOE updated,73,1,2,51,E 50,,,TRUE,OE,p,644,oe
CVOE updated,73,1,2,52,D 92,,,FALSE,OE,p,757,oe
CVOE updated,73,1,2,53,E 60,,,TRUE,OE,p,749,oe
CVOE updated,73,1,2,54,A 95,,,FALSE,OE,q,915,oe
CVOE updated,73,1,2,55,E 64,,,TRUE,OE,p,836,oe
CVOE updated,73,1,2,56,P 20,,,FALSE,OE,p,764,oe
CVOE updated,73,1,2,57,S 06,,,FALSE,OE,p,749,oe
CVOE updated,73,1,2,58,P 64,,,FALSE,OE,p,763,oe
CVOE updated,73,1,2,59,U 70,,,TRUE,OE,p,779,oe
CVOE updated,73,1,2,60,S 16,,,FALSE,OE,p,758,oe
CVOE updated,73,1,2,61,E 35,,,FALSE,OE,q,751,oe
CVOE updated,73,1,2,62,I 93,,,FALSE,OE,q,685,oe
CVOE updated,73,1,2,63,D 63,,,TRUE,OE,q,733,oe
CVOE updated,73,1,2,64,U 89,,,FALSE,OE,q,872,oe
CVOE updated,73,1,2,65,E 91,,,FALSE,OE,q,726,oe
CVOE updated,73,1,2,66,A 12,,,TRUE,OE,p,838,oe
CVOE updated,73,1,2,67,P 56,,,FALSE,OE,p,775,oe
CVOE updated,73,1,2,68,S 65,,,TRUE,OE,q,754,oe
CVOE updated,73,1,2,69,P 07,,,TRUE,OE,q,811,oe
CVOE updated,73,1,2,70,I 77,,,FALSE,OE,q,1014,oe
CVOE updated,73,1,2,71,J 19,,,TRUE,OE,q,817,oe
CVOE updated,73,1,2,72,O 59,,,FALSE,OE,q,908,oe
CVOE updated,73,1,2,73,J 15,,,TRUE,OE,q,850,oe
CVOE updated,73,1,2,74,I 89,,,FALSE,OE,q,869,oe
CVOE updated,73,1,2,75,O 97,,,FALSE,OE,q,819,oe
CVOE updated,73,1,2,76,A 92,,,TRUE,OE,p,846,oe
CVOE updated,73,1,2,77,J 90,,,FALSE,OE,p,730,oe
CVOE updated,73,1,2,78,H 65,,,TRUE,OE,q,725,oe
CVOE updated,73,1,2,79,H 17,,,TRUE,OE,q,829,oe
CVOE updated,73,1,2,80,S 26,,,FALSE,OE,p,787,oe
CVOE updated,73,1,2,81,D 56,,,FALSE,OE,p,745,oe
CVOE updated,73,1,2,82,I 91,,,FALSE,OE,q,775,oe
CVOE updated,73,1,2,83,J 11,,,TRUE,OE,q,666,oe
CVOE updated,73,1,2,84,O 28,,,TRUE,OE,p,816,oe
CVOE updated,73,1,2,85,H 29,,,TRUE,OE,q,739,oe
CVOE updated,73,1,2,86,J 25,,,TRUE,OE,q,790,oe
CVOE updated,73,1,2,87,A 73,,,FALSE,OE,q,788,oe
CVOE updated,73,1,2,88,J 63,,,TRUE,OE,q,722,oe
CVOE updated,73,1,2,89,U 84,,,TRUE,OE,p,1482,oe
CVOE updated,73,1,2,90,A 58,,,TRUE,OE,p,627,oe
CVOE updated,73,1,2,91,S 43,,,TRUE,OE,q,665,oe
CVOE updated,73,1,2,92,H 54,,,FALSE,OE,p,1006,oe
CVOE updated,73,1,2,93,D 4,,,FALSE,OE,p,746,oe
CVOE updated,73,1,2,94,J 75,,,TRUE,OE,q,847,oe
CVOE updated,73,1,2,95,D 19,,,TRUE,OE,q,1675,oe
CVOE updated,73,1,2,96,J 38,,,FALSE,OE,p,660,oe
CVOE updated,73,1,2,97,I 56,,,TRUE,OE,p,735,oe
CVOE updated,73,1,2,98,P 87,,,TRUE,OE,q,650,oe
CVOE updated,73,1,2,99,O 80,,,TRUE,OE,p,933,oe
CVOE updated,73,1,2,100,U 60,,,TRUE,OE,p,704,oe
CVOE updated,73,1,2,101,P 48,,,FALSE,OE,p,662,oe
CVOE updated,73,1,2,102,H 64,,,FALSE,OE,p,828,oe
CVOE updated,73,1,2,103,A 13,,,FALSE,OE,q,714,oe
CVOE updated,73,1,2,104,H 68,,,FALSE,OE,p,1578,oe
CVOE updated,73,1,2,105,E 16,,,TRUE,OE,p,734,oe
CVOE updated,73,1,2,106,S 71,,,TRUE,OE,q,1273,oe
CVOE updated,73,1,3,11,A 44,Letter,N,TRUE,CV,p,2364,alt
CVOE updated,73,1,3,12,D 94,Letter,N,FALSE,CV,q,1381,alt
CVOE updated,73,1,3,13,E 75,Number,Y,FALSE,OE,q,1067,alt
CVOE updated,73,1,3,14,H 81,Number,N,TRUE,OE,q,1201,alt
CVOE updated,73,1,3,15,I 64,Letter,Y,TRUE,CV,p,1457,alt
CVOE updated,73,1,3,16,J 54,Letter,N,FALSE,CV,q,1261,alt
CVOE updated,73,1,3,17,O 23,Number,Y,FALSE,OE,q,1259,alt
CVOE updated,73,1,3,18,P 05,Number,N,TRUE,OE,q,1182,alt
CVOE updated,73,1,3,19,S 34,Letter,Y,FALSE,CV,q,1284,alt
CVOE updated,73,1,3,20,U 88,Letter,N,TRUE,CV,p,1133,alt
CVOE updated,73,1,3,21,A 70,Number,Y,TRUE,OE,p,2024,alt
CVOE updated,73,1,3,22,D 12,Number,N,FALSE,OE,p,2063,alt
CVOE updated,73,1,3,23,E 79,Letter,Y,FALSE,CV,p,1405,alt
CVOE updated,73,1,3,24,H 72,Letter,N,FALSE,CV,q,1030,alt
CVOE updated,73,1,3,25,I 41,Number,Y,FALSE,OE,q,1484,alt
CVOE updated,73,1,3,26,J 63,Number,N,TRUE,OE,q,1916,alt
CVOE updated,73,1,3,27,O 03,Letter,Y,FALSE,CV,p,1285,alt
CVOE updated,73,1,3,28,P 75,Letter,N,TRUE,CV,q,1038,alt
CVOE updated,73,1,3,29,S 61,Number,Y,TRUE,OE,q,1486,alt
CVOE updated,73,1,3,30,U 28,Number,N,TRUE,OE,p,1178,alt
CVOE updated,73,1,3,31,A 21,Letter,Y,FALSE,CV,p,1317,alt
CVOE updated,73,1,3,32,D 18,Letter,N,FALSE,CV,q,1478,alt
CVOE updated,73,1,3,33,E 35,Number,Y,FALSE,OE,q,1823,alt
CVOE updated,73,1,3,34,H 62,Number,N,FALSE,OE,p,2181,alt
CVOE updated,73,1,3,35,I 82,Letter,Y,TRUE,CV,p,1299,alt
CVOE updated,73,1,3,36,J 78,Letter,N,FALSE,CV,q,1415,alt
CVOE updated,73,1,3,37,O 12,Number,Y,TRUE,OE,p,1050,alt
CVOE updated,73,1,3,38,P 13,Number,N,TRUE,OE,q,1117,alt
CVOE updated,73,1,3,39,S 07,Letter,Y,TRUE,CV,q,1318,alt
CVOE updated,73,1,3,40,U 36,Letter,N,TRUE,CV,p,1207,alt
CVOE updated,73,1,3,41,A 96,Number,Y,TRUE,OE,p,1514,alt
CVOE updated,73,1,3,42,D 04,Number,N,FALSE,OE,p,1859,alt
CVOE updated,73,1,3,43,E 60,Letter,Y,TRUE,CV,p,1174,alt
CVOE updated,73,1,3,44,H 83,Letter,N,TRUE,CV,q,1042,alt
CVOE updated,73,1,3,45,I 64,Number,Y,TRUE,OE,p,1442,alt
CVOE updated,73,1,3,46,J 76,Number,N,FALSE,OE,p,1075,alt
CVOE updated,73,1,3,47,O 78,Letter,Y,TRUE,CV,p,1428,alt
CVOE updated,73,1,3,48,P 09,Letter,N,TRUE,CV,q,2066,alt
CVOE updated,73,1,3,49,S 72,Number,Y,FALSE,OE,p,1240,alt
CVOE updated,73,1,3,50,U 47,Number,N,FALSE,OE,q,849,alt
CVOE updated,73,1,3,51,A 31,Letter,Y,FALSE,CV,p,1172,alt
CVOE updated,73,1,3,52,D 96,Letter,N,FALSE,CV,q,2399,alt
CVOE updated,73,1,3,53,E 40,Number,Y,TRUE,OE,p,1984,alt
CVOE updated,73,1,3,54,H 79,Number,N,TRUE,OE,q,1199,alt
CVOE updated,73,1,3,55,I 15,Letter,Y,FALSE,CV,p,1055,alt
CVOE updated,73,1,3,56,J 07,Letter,N,TRUE,CV,q,2043,alt
CVOE updated,73,1,3,57,O 61,Number,Y,FALSE,OE,q,1908,alt
CVOE updated,73,1,3,58,P 58,Number,N,FALSE,OE,p,1858,alt
CVOE updated,73,1,3,59,S 37,Letter,Y,TRUE,CV,q,1277,alt
CVOE updated,73,1,3,60,U 61,Letter,N,FALSE,CV,p,1806,alt
CVOE updated,73,1,3,61,A 17,Number,Y,FALSE,OE,q,1311,alt
CVOE updated,73,1,3,62,D 85,Number,N,TRUE,OE,q,1205,alt
CVOE updated,73,1,3,63,E 20,Letter,Y,TRUE,CV,p,830,alt
CVOE updated,73,1,3,64,H 86,Letter,N,FALSE,CV,q,1059,alt
CVOE updated,73,1,3,65,I 21,Number,Y,FALSE,OE,q,1847,alt
CVOE updated,73,1,3,66,J 29,Number,N,TRUE,OE,q,1946,alt
CVOE updated,73,1,3,67,O 13,Letter,Y,FALSE,CV,p,1209,alt
CVOE updated,73,1,3,68,P 82,Letter,N,FALSE,CV,q,1668,alt
CVOE updated,73,1,3,69,S 72,Number,Y,FALSE,OE,p,1146,alt
CVOE updated,73,1,3,70,U 84,Number,N,TRUE,OE,p,1032,alt
CVOE updated,73,1,3,71,A 49,Letter,Y,FALSE,CV,p,1150,alt
CVOE updated,73,1,3,72,D 91,Letter,N,TRUE,CV,q,2076,alt
CVOE updated,73,1,3,73,E 99,Number,Y,FALSE,OE,p,1293,alt
CVOE updated,73,1,3,74,H 16,Number,N,FALSE,OE,p,2528,alt
CVOE updated,73,1,3,75,I 45,Letter,Y,FALSE,CV,p,1212,alt
CVOE updated,73,1,3,76,J 70,Letter,N,FALSE,CV,q,1872,alt
CVOE updated,73,1,3,77,O 22,Number,Y,TRUE,OE,p,1302,alt
CVOE updated,73,1,3,78,P 41,Number,N,TRUE,OE,q,1428,alt
CVOE updated,73,1,3,79,S 93,Letter,Y,TRUE,CV,q,1034,alt
CVOE updated,73,1,3,80,U 70,Letter,N,TRUE,CV,p,1490,alt
CVOE updated,73,1,3,81,A 42,Number,Y,TRUE,OE,p,1182,alt
CVOE updated,73,1,3,82,D 85,Number,N,TRUE,OE,q,2252,alt
CVOE updated,73,1,3,83,E 68,Letter,Y,TRUE,CV,p,1448,alt
CVOE updated,73,1,3,84,H 17,Letter,N,TRUE,CV,q,1987,alt
CVOE updated,73,1,3,85,I 70,Number,Y,TRUE,OE,p,1233,alt
CVOE updated,73,1,3,86,J 88,Number,N,FALSE,OE,p,1250,alt
CVOE updated,73,1,3,87,O 32,Letter,Y,TRUE,CV,p,917,alt
CVOE updated,73,1,3,88,P 95,Letter,N,TRUE,CV,q,854,alt
CVOE updated,73,1,3,89,S 98,Number,Y,FALSE,OE,p,1433,alt
CVOE updated,73,1,3,90,U 37,Number,N,FALSE,OE,q,1055,alt
CVOE updated,73,1,3,91,A 56,Letter,Y,TRUE,CV,p,962,alt
CVOE updated,73,1,3,92,D 57,Letter,N,TRUE,CV,q,850,alt
CVOE updated,73,1,3,93,E 93,Number,Y,FALSE,OE,q,1182,alt
CVOE updated,73,1,3,94,H 27,Number,N,TRUE,OE,q,1756,alt
CVOE updated,73,1,3,95,I 35,Letter,Y,FALSE,CV,p,1829,alt
CVOE updated,73,1,3,96,J 03,Letter,N,TRUE,CV,q,1275,alt
CVOE updated,73,1,3,97,O 28,Number,Y,TRUE,OE,p,876,alt
CVOE updated,73,1,3,98,P 59,Number,N,TRUE,OE,q,1213,alt
CVOE updated,73,1,3,99,S 77,Letter,Y,TRUE,CV,q,1048,alt
CVOE updated,73,1,3,100,U 05,Letter,N,FALSE,CV,p,1738,alt
CVOE updated,73,1,3,101,A 56,Number,Y,TRUE,OE,p,1583,alt
CVOE updated,73,1,3,102,D 01,Number,N,TRUE,OE,q,1132,alt
CVOE updated,73,1,3,103,E 02,Letter,Y,TRUE,CV,p,943,alt
CVOE updated,73,1,3,104,H 68,Letter,N,FALSE,CV,q,1934,alt
CVOE updated,73,1,3,105,I 05,Number,Y,FALSE,OE,q,1209,alt
CVOE updated,73,1,3,106,J 55,Number,N,TRUE,OE,p,1300,alt
CVOE updated,73,1,3,107,O 73,Letter,Y,FALSE,CV,p,1675,alt
CVOE updated,73,1,3,108,P 41,Letter,N,TRUE,CV,q,2107,alt
CVOE updated,73,1,3,109,S 92,Number,Y,FALSE,OE,p,1546,alt
CVOE updated,73,1,3,110,U 34,Number,N,TRUE,OE,p,936,alt
CVOE updated,73,1,3,111,A 09,Letter,Y,FALSE,CV,p,2378,alt
CVOE updated,73,1,3,112,D 92,Letter,N,FALSE,CV,q,1055,alt
CVOE updated,73,1,3,113,E 48,Number,Y,TRUE,OE,p,1474,alt
CVOE updated,73,1,3,114,H 76,Number,N,FALSE,OE,p,2946,alt
CVOE updated,73,1,3,115,I 44,Letter,Y,TRUE,CV,p,1489,alt
CVOE updated,73,1,3,116,J 67,Letter,N,TRUE,CV,q,1348,alt
CVOE updated,73,1,3,117,O 48,Number,Y,TRUE,OE,p,1234,alt
CVOE updated,73,1,3,118,P 22,Number,N,FALSE,OE,p,1372,alt
CVOE updated,73,1,3,119,S 86,Letter,Y,FALSE,CV,q,822,alt
CVOE updated,73,1,3,120,U 35,Letter,N,FALSE,CV,p,1860,alt
CVOE updated,73,1,3,121,A 91,Number,Y,FALSE,OE,q,1235,alt
CVOE updated,73,1,3,122,D 78,Number,N,FALSE,OE,p,1003,alt
CVOE updated,73,1,3,123,E 91,Letter,Y,FALSE,CV,p,932,alt
CVOE updated,73,1,3,124,H 54,Letter,N,FALSE,CV,q,911,alt
CVOE updated,73,1,3,125,I 65,Number,Y,FALSE,OE,q,925,alt
CVOE updated,73,1,3,126,J 52,Number,N,FALSE,OE,p,1621,alt
CVOE updated,73,1,3,127,O 19,Letter,Y,FALSE,CV,p,852,alt
CVOE updated,73,1,3,128,P 48,Letter,N,FALSE,CV,q,1119,alt
CVOE updated,73,1,3,129,S 45,Number,Y,TRUE,OE,q,863,alt
CVOE updated,73,1,3,130,U 26,Number,N,TRUE,OE,p,1005,alt
CVOE updated,73,1,4,1,U 38,Number,N,TRUE,OE,p,1812,shuf
CVOE updated,73,1,4,2,P 73,Number,N,TRUE,OE,q,1048,shuf
CVOE updated,73,1,4,3,U 95,Letter,Y,FALSE,CV,p,987,shuf
CVOE updated,73,1,4,4,J 61,Number,Y,TRUE,OE,q,1137,shuf
CVOE updated,73,1,4,5,D 51,Number,N,TRUE,OE,q,1028,shuf
CVOE updated,73,1,4,6,S 28,Number,N,FALSE,OE,p,1034,shuf
CVOE updated,73,1,4,7,A 56,Letter,Y,TRUE,CV,p,1075,shuf
CVOE updated,73,1,4,8,H 78,Letter,N,FALSE,CV,q,995,shuf
CVOE updated,73,1,4,9,P 92,Letter,N,FALSE,CV,q,1412,shuf
CVOE updated,73,1,4,10,E 05,Number,Y,FALSE,OE,q,1031,shuf
CVOE updated,73,1,4,11,P 57,Letter,Y,TRUE,CV,q,973,shuf
CVOE updated,73,1,4,12,D 88,Number,Y,FALSE,OE,p,1144,shuf
CVOE updated,73,1,4,13,O 89,Letter,Y,FALSE,CV,p,966,shuf
CVOE updated,73,1,4,14,U 43,Number,Y,FALSE,OE,q,1234,shuf
CVOE updated,73,1,4,15,H 10,Number,N,FALSE,OE,p,1162,shuf
CVOE updated,73,1,4,16,S 07,Letter,Y,TRUE,CV,q,1779,shuf
CVOE updated,73,1,4,17,J 10,Letter,N,FALSE,CV,q,1198,shuf
CVOE updated,73,1,4,18,H 54,Number,Y,FALSE,OE,p,1007,shuf
CVOE updated,73,1,4,19,E 99,Number,N,FALSE,OE,q,970,shuf
CVOE updated,73,1,4,20,J 36,Letter,Y,FALSE,CV,q,1095,shuf
CVOE updated,73,1,4,21,I 94,Letter,N,TRUE,CV,p,1185,shuf
CVOE updated,73,1,4,22,A 82,Letter,N,TRUE,CV,p,1047,shuf
CVOE updated,73,1,4,23,H 79,Number,Y,TRUE,OE,q,1362,shuf
CVOE updated,73,1,4,24,J 60,Number,N,FALSE,OE,p,1339,shuf
CVOE updated,73,1,4,25,S 28,Letter,Y,FALSE,CV,q,1270,shuf
CVOE updated,73,1,4,26,P 11,Number,Y,TRUE,OE,q,1116,shuf
CVOE updated,73,1,4,27,D 39,Number,N,TRUE,OE,q,1021,shuf
CVOE updated,73,1,4,28,E 90,Number,N,TRUE,OE,p,979,shuf
CVOE updated,73,1,4,29,I 38,Number,N,TRUE,OE,p,1142,shuf
CVOE updated,73,1,4,30,S 35,Letter,Y,TRUE,CV,q,1036,shuf
CVOE updated,73,1,4,31,D 41,Number,Y,TRUE,OE,q,1029,shuf
CVOE updated,73,1,4,32,E 06,Number,N,TRUE,OE,p,1019,shuf
CVOE updated,73,1,4,33,A 27,Number,N,FALSE,OE,q,1006,shuf
CVOE updated,73,1,4,34,U 95,Letter,Y,FALSE,CV,p,1366,shuf
CVOE updated,73,1,4,35,A 53,Letter,N,FALSE,CV,p,1466,shuf
CVOE updated,73,1,4,36,E 43,Letter,N,FALSE,CV,p,904,shuf
CVOE updated,73,1,4,37,P 05,Number,Y,TRUE,OE,q,958,shuf
CVOE updated,73,1,4,38,O 19,Letter,Y,FALSE,CV,q,1030,shuf
CVOE updated,73,1,4,39,I 96,Number,Y,TRUE,OE,p,1756,shuf
CVOE updated,73,1,4,40,A 88,Number,N,TRUE,OE,p,1237,shuf
CVOE updated,73,1,4,41,I 67,Number,N,FALSE,OE,q,1374,shuf
CVOE updated,73,1,4,42,D 40,Number,N,FALSE,OE,p,1225,shuf
CVOE updated,73,1,4,43,P 79,Letter,Y,TRUE,CV,q,943,shuf
CVOE updated,73,1,4,44,U 24,Number,Y,TRUE,OE,p,1581,shuf
CVOE updated,73,1,4,45,P 74,Number,N,FALSE,OE,p,1395,shuf
CVOE updated,73,1,4,46,E 70,Number,N,TRUE,OE,p,1228,shuf
CVOE updated,73,1,4,47,S 27,Number,N,TRUE,OE,q,1370,shuf
CVOE updated,73,1,4,48,E 54,Letter,Y,TRUE,CV,p,869,shuf
CVOE updated,73,1,4,49,A 53,Letter,N,FALSE,CV,p,915,shuf
CVOE updated,73,1,4,50,P 34,Letter,N,FALSE,CV,q,788,shuf
CVOE updated,73,1,4,51,D 74,Number,Y,FALSE,OE,p,994,shuf
CVOE updated,73,1,4,52,A 03,Letter,Y,FALSE,CV,p,1570,shuf
CVOE updated,73,1,4,53,E 24,Number,Y,TRUE,OE,p,1070,shuf
CVOE updated,73,1,4,54,I 58,Letter,Y,TRUE,CV,p,1244,shuf
CVOE updated,73,1,4,55,D 77,Number,Y,TRUE,OE,q,1668,shuf
CVOE updated,73,1,4,56,S 75,Number,N,TRUE,OE,q,818,shuf
CVOE updated,73,1,4,57,I 20,Letter,Y,TRUE,CV,p,1126,shuf
CVOE updated,73,1,4,58,J 52,Letter,N,FALSE,CV,q,806,shuf
CVOE updated,73,1,4,59,A 38,Number,Y,TRUE,OE,p,1249,shuf
CVOE updated,73,1,4,60,I 60,Letter,Y,TRUE,CV,p,1125,shuf
CVOE updated,73,1,4,61,S 51,Number,Y,TRUE,OE,q,1165,shuf
CVOE updated,73,1,4,62,D 63,Letter,Y,TRUE,CV,q,1702,shuf
CVOE updated,73,1,4,63,U 27,Letter,N,FALSE,CV,p,900,shuf
CVOE updated,73,1,4,64,J 77,Letter,N,TRUE,CV,q,1426,shuf
CVOE updated,73,1,4,65,O 15,Number,Y,FALSE,OE,q,960,shuf
CVOE updated,73,1,4,66,J 20,Letter,Y,FALSE,CV,q,1049,shuf
CVOE updated,73,1,4,67,U 97,Number,Y,FALSE,OE,q,1796,shuf
CVOE updated,73,1,4,68,H 03,Number,N,TRUE,OE,q,1381,shuf
CVOE updated,73,1,4,69,O 04,Letter,Y,TRUE,CV,p,851,shuf
CVOE updated,73,1,4,70,E 10,Letter,N,TRUE,CV,p,806,shuf
CVOE updated,73,1,4,71,I 52,Letter,N,TRUE,CV,p,743,shuf
CVOE updated,73,1,4,72,H 81,Number,Y,TRUE,OE,q,940,shuf
CVOE updated,73,1,4,73,I 41,Number,N,FALSE,OE,q,1354,shuf
CVOE updated,73,1,4,74,U 19,Letter,Y,FALSE,CV,p,1003,shuf
CVOE updated,73,1,4,75,O 17,Number,Y,FALSE,OE,q,1044,shuf
CVOE updated,73,1,4,76,A 10,Number,N,TRUE,OE,p,996,shuf
CVOE updated,73,1,4,77,P 93,Letter,Y,TRUE,CV,q,1221,shuf
CVOE updated,73,1,4,78,E 59,Letter,N,FALSE,CV,p,731,shuf
CVOE updated,73,1,4,79,O 53,Letter,N,FALSE,CV,q,934,shuf
CVOE updated,73,1,4,80,A 96,Letter,N,TRUE,CV,p,1425,shuf
CVOE updated,73,1,4,81,H 36,Letter,Y,FALSE,CV,q,719,shuf
CVOE updated,73,1,4,82,A 63,Letter,N,FALSE,CV,p,1128,shuf
CVOE updated,73,1,4,83,I 38,Letter,N,TRUE,CV,p,819,shuf
CVOE updated,73,1,4,84,O 51,Number,Y,FALSE,OE,q,1689,shuf
CVOE updated,73,1,4,85,J 26,Number,N,FALSE,OE,p,1276,shuf
CVOE updated,73,1,4,86,S 34,Letter,Y,FALSE,CV,q,1085,shuf
CVOE updated,73,1,4,87,U 85,Number,Y,FALSE,OE,q,2150,shuf
CVOE updated,73,1,4,88,J 77,Number,N,TRUE,OE,q,1740,shuf
CVOE updated,73,1,4,89,I 73,Letter,Y,FALSE,CV,p,938,shuf
CVOE updated,73,1,4,90,H 46,Number,Y,FALSE,OE,p,1181,shuf
CVOE updated,73,1,4,91,D 04,Number,N,FALSE,OE,p,1555,shuf
CVOE updated,73,1,4,92,P 72,Letter,Y,FALSE,CV,q,1220,shuf
CVOE updated,73,1,4,93,D 99,Number,Y,TRUE,OE,q,970,shuf
CVOE updated,73,1,4,94,U 25,Letter,Y,FALSE,CV,p,1005,shuf
CVOE updated,73,1,4,95,O 32,Letter,N,TRUE,CV,p,1038,shuf
CVOE updated,73,1,4,96,E 80,Letter,N,TRUE,CV,p,943,shuf
CVOE updated,73,1,4,97,O 84,Number,Y,TRUE,OE,p,1613,shuf
CVOE updated,73,1,4,98,A 78,Number,N,TRUE,OE,p,1368,shuf
CVOE updated,73,1,4,99,S 05,Number,N,TRUE,OE,q,963,shuf
CVOE updated,73,1,4,100,U 35,Letter,Y,FALSE,CV,p,1860,shuf
CVOE updated,73,1,4,101,H 14,Letter,N,FALSE,CV,q,794,shuf
CVOE updated,73,1,4,102,U 15,Number,Y,FALSE,OE,q,1067,shuf
CVOE updated,73,1,4,103,E 36,Letter,Y,TRUE,CV,p,1265,shuf
CVOE updated,73,1,4,104,P 70,Letter,N,FALSE,CV,q,1071,shuf
CVOE updated,73,1,4,105,O 44,Number,Y,TRUE,OE,p,1053,shuf
CVOE updated,73,1,4,106,S 41,Letter,Y,TRUE,CV,q,1456,shuf
CVOE updated,73,1,4,107,D 83,Letter,N,TRUE,CV,q,1459,shuf
CVOE updated,73,1,4,108,J 39,Letter,N,TRUE,CV,q,1081,shuf
CVOE updated,73,1,4,109,S 22,Number,Y,FALSE,OE,p,1130,shuf
CVOE updated,73,1,4,110,D 89,Letter,Y,TRUE,CV,q,1349,shuf
CVOE updated,73,1,4,111,P 87,Letter,N,TRUE,CV,q,1659,shuf
CVOE updated,73,1,4,112,H 42,Letter,N,FALSE,CV,q,1215,shuf
CVOE updated,73,1,4,113,S 49,Letter,N,TRUE,CV,q,818,shuf
CVOE updated,73,1,4,114,J 20,Number,Y,FALSE,OE,p,1645,shuf
CVOE updated,73,1,4,115,O 19,Letter,Y,FALSE,CV,p,1894,shuf
CVOE updated,73,1,4,116,H 50,Letter,N,FALSE,CV,q,2194,shuf
CVOE updated,73,1,4,117,I 68,Number,Y,TRUE,OE,p,1299,shuf
CVOE updated,73,1,4,118,J 72,Number,N,FALSE,OE,p,1294,shuf
CVOE updated,73,1,4,119,O 21,Number,N,FALSE,OE,q,1066,shuf
CVOE updated,73,1,4,120,H 22,Number,N,FALSE,OE,p,1368,shuf
CVOE updated,77,1,1,11,A 71,,,FALSE,CV,p,1049,cv
CVOE updated,77,1,1,12,I 66,,,TRUE,CV,p,563,cv
CVOE updated,77,1,1,13,S 30,,,FALSE,CV,q,535,cv
CVOE updated,77,1,1,14,D 20,,,FALSE,CV,q,597,cv
CVOE updated,77,1,1,15,I 31,,,FALSE,CV,p,800,cv
CVOE updated,77,1,1,16,P 16,,,FALSE,CV,q,988,cv
CVOE updated,77,1,1,17,A 49,,,FALSE,CV,p,552,cv
CVOE updated,77,1,1,18,O 64,,,TRUE,CV,p,493,cv
CVOE updated,77,1,1,19,D 02,,,FALSE,CV,q,533,cv
CVOE updated,77,1,1,20,P 81,,,TRUE,CV,q,515,cv
CVOE updated,77,1,1,21,J 58,,,FALSE,CV,q,473,cv
CVOE updated,77,1,1,22,A 22,,,TRUE,CV,p,506,cv
CVOE updated,77,1,1,23,J 72,,,FALSE,CV,q,513,cv
CVOE updated,77,1,1,24,P 91,,,TRUE,CV,q,1136,cv
CVOE updated,77,1,1,25,E 19,,,FALSE,CV,p,542,cv
CVOE updated,77,1,1,26,I 30,,,TRUE,CV,p,532,cv
CVOE updated,77,1,1,27,D 91,,,TRUE,CV,q,490,cv
CVOE updated,77,1,1,28,O 48,,,TRUE,CV,p,457,cv
CVOE updated,77,1,1,29,A 89,,,FALSE,CV,p,707,cv
CVOE updated,77,1,1,30,U 11,,,FALSE,CV,p,538,cv
CVOE updated,77,1,1,31,I 76,,,TRUE,CV,p,552,cv
CVOE updated,77,1,1,32,U 89,,,FALSE,CV,p,485,cv
CVOE updated,77,1,1,33,D 63,,,TRUE,CV,q,549,cv
CVOE updated,77,1,1,34,H 70,,,FALSE,CV,q,682,cv
CVOE updated,77,1,1,35,D 48,,,FALSE,CV,q,338,cv
CVOE updated,77,1,1,36,P 56,,,FALSE,CV,q,496,cv
CVOE updated,77,1,1,37,O 77,,,FALSE,CV,p,535,cv
CVOE updated,77,1,1,38,P 42,,,FALSE,CV,q,453,cv
CVOE updated,77,1,1,39,H 22,,,FALSE,CV,q,631,cv
CVOE updated,77,1,1,40,E 42,,,TRUE,CV,p,521,cv
CVOE updated,77,1,1,41,J 28,,,FALSE,CV,q,471,cv
CVOE updated,77,1,1,42,E 95,,,FALSE,CV,p,488,cv
CVOE updated,77,1,1,43,S 63,,,TRUE,CV,q,592,cv
CVOE updated,77,1,1,44,H 50,,,FALSE,CV,p,340,cv
CVOE updated,77,1,1,45,S 33,,,TRUE,CV,q,1794,cv
CVOE updated,77,1,1,46,P 57,,,TRUE,CV,q,437,cv
CVOE updated,77,1,1,47,E 23,,,FALSE,CV,p,647,cv
CVOE updated,77,1,1,48,S 61,,,TRUE,CV,q,568,cv
CVOE updated,77,1,1,49,U 67,,,FALSE,CV,p,613,cv
CVOE updated,77,1,1,50,H 32,,,FALSE,CV,q,471,cv
CVOE updated,77,1,1,51,U 50,,,TRUE,CV,p,592,cv
CVOE updated,77,1,1,52,O 49,,,FALSE,CV,p,476,cv
CVOE updated,77,1,1,53,U 32,,,TRUE,CV,p,492,cv
CVOE updated,77,1,1,54,J 78,,,FALSE,CV,q,628,cv
CVOE updated,77,1,1,55,S 54,,,FALSE,CV,q,830,cv
CVOE updated,77,1,1,56,J 27,,,TRUE,CV,q,656,cv
CVOE updated,77,1,1,57,S 06,,,FALSE,CV,q,481,cv
CVOE updated,77,1,1,58,D 67,,,TRUE,CV,q,537,cv
CVOE updated,77,1,1,59,A 79,,,FALSE,CV,p,551,cv
CVOE updated,77,1,1,60,S 52,,,FALSE,CV,q,564,cv
CVOE updated,77,1,1,61,U 16,,,TRUE,CV,p,625,cv
CVOE updated,77,1,1,62,O 82,,,TRUE,CV,p,540,cv
CVOE updated,77,1,1,63,H 87,,,TRUE,CV,q,585,cv
CVOE updated,77,1,1,64,I 32,,,TRUE,CV,p,549,cv
CVOE updated,77,1,1,65,U 37,,,FALSE,CV,p,547,cv
CVOE updated,77,1,1,66,I 42,,,TRUE,CV,p,536,cv
CVOE updated,77,1,1,67,D 65,,,TRUE,CV,q,550,cv
CVOE updated,77,1,1,68,U 77,,,FALSE,CV,p,531,cv
CVOE updated,77,1,1,69,E 12,,,TRUE,CV,p,537,cv
CVOE updated,77,1,1,70,I 60,,,TRUE,CV,p,567,cv
CVOE updated,77,1,1,71,J 36,,,FALSE,CV,q,508,cv
CVOE updated,77,1,1,72,H 75,,,TRUE,CV,q,907,cv
CVOE updated,77,1,1,73,I 50,,,TRUE,CV,p,538,cv
CVOE updated,77,1,1,74,E 99,,,FALSE,CV,p,1016,cv
CVOE updated,77,1,1,75,A 86,,,TRUE,CV,p,571,cv
CVOE updated,77,1,1,76,U 48,,,TRUE,CV,q,1407,cv
CVOE updated,77,1,1,77,E 01,,,FALSE,CV,p,634,cv
CVOE updated,77,1,1,78,A 78,,,TRUE,CV,p,588,cv
CVOE updated,77,1,1,79,P 60,,,FALSE,CV,q,640,cv
CVOE updated,77,1,1,80,E 43,,,FALSE,CV,p,546,cv
CVOE updated,77,1,1,81,D 69,,,TRUE,CV,q,807,cv
CVOE updated,77,1,1,82,H 11,,,TRUE,CV,p,579,cv
CVOE updated,77,1,1,83,P 43,,,TRUE,CV,q,1279,cv
CVOE updated,77,1,1,84,O 67,,,FALSE,CV,p,574,cv
CVOE updated,77,1,1,85,S 91,,,FALSE,CV,q,859,cv
CVOE updated,77,1,1,86,J 68,,,TRUE,CV,q,764,cv
CVOE updated,77,1,1,87,S 47,,,FALSE,CV,q,537,cv
CVOE updated,77,1,1,88,I 81,,,TRUE,CV,p,647,cv
CVOE updated,77,1,1,89,J 39,,,FALSE,CV,q,752,cv
CVOE updated,77,1,1,90,A 11,,,TRUE,CV,p,525,cv
CVOE updated,77,1,1,91,O 76,,,FALSE,CV,p,516,cv
CVOE updated,77,1,1,92,A 62,,,FALSE,CV,p,442,cv
CVOE updated,77,1,1,93,O 27,,,TRUE,CV,p,404,cv
CVOE updated,77,1,1,94,E 66,,,FALSE,CV,p,544,cv
CVOE updated,77,1,1,95,J 62,,,TRUE,CV,q,581,cv
CVOE updated,77,1,1,96,H 72,,,TRUE,CV,q,617,cv
CVOE updated,77,1,1,97,E 49,,,TRUE,CV,p,515,cv
CVOE updated,77,1,1,98,D 52,,,TRUE,CV,q,514,cv
CVOE updated,77,1,1,99,H 62,,,TRUE,CV,q,809,cv
CVOE updated,77,1,1,100,I 11,,,TRUE,CV,p,604,cv
CVOE updated,77,1,1,101,A 98,,,FALSE,CV,p,583,cv
CVOE updated,77,1,1,102,H 29,,,FALSE,CV,q,563,cv
CVOE updated,77,1,1,103,E 83,,,TRUE,CV,p,536,cv
CVOE updated,77,1,1,104,D 43,,,FALSE,CV,q,798,cv
CVOE updated,77,1,1,105,P 45,,,TRUE,CV,q,473,cv
CVOE updated,77,1,1,106,J 17,,,TRUE,CV,q,689,cv
CVOE updated,77,1,2,11,A 24,,,TRUE,OE,p,2068,oe
CVOE updated,77,1,2,12,O 83,,,FALSE,OE,q,1276,oe
CVOE updated,77,1,2,13,H 55,,,TRUE,OE,q,836,oe
CVOE updated,77,1,2,14,P 10,,,FALSE,OE,p,766,oe
CVOE updated,77,1,2,15,D 30,,,FALSE,OE,p,563,oe
CVOE updated,77,1,2,16,U 62,,,TRUE,OE,p,575,oe
CVOE updated,77,1,2,17,P 95,,,TRUE,OE,q,524,oe
CVOE updated,77,1,2,18,U 06,,,TRUE,OE,p,595,oe
CVOE updated,77,1,2,19,E 75,,,FALSE,OE,q,718,oe
CVOE updated,77,1,2,20,I 67,,,FALSE,OE,q,620,oe
CVOE updated,77,1,2,21,S 13,,,TRUE,OE,q,551,oe
CVOE updated,77,1,2,22,P 78,,,FALSE,OE,p,732,oe
CVOE updated,77,1,2,23,I 15,,,FALSE,OE,q,514,oe
CVOE updated,77,1,2,24,D 27,,,TRUE,OE,q,1209,oe
CVOE updated,77,1,2,25,O 94,,,TRUE,OE,p,516,oe
CVOE updated,77,1,2,26,A 65,,,FALSE,OE,q,579,oe
CVOE updated,77,1,2,27,I 42,,,TRUE,OE,p,638,oe
CVOE updated,77,1,2,28,E 25,,,FALSE,OE,q,512,oe
CVOE updated,77,1,2,29,H 49,,,TRUE,OE,q,639,oe
CVOE updated,77,1,2,30,S 18,,,FALSE,OE,p,777,oe
CVOE updated,77,1,2,31,H 51,,,TRUE,OE,q,965,oe
CVOE updated,77,1,2,32,U 14,,,TRUE,OE,p,521,oe
CVOE updated,77,1,2,33,E 02,,,TRUE,OE,p,504,oe
CVOE updated,77,1,2,34,J 26,,,FALSE,OE,p,655,oe
CVOE updated,77,1,2,35,D 24,,,FALSE,OE,p,441,oe
CVOE updated,77,1,2,36,O 50,,,TRUE,OE,p,578,oe
CVOE updated,77,1,2,37,U 16,,,TRUE,OE,p,502,oe
CVOE updated,77,1,2,38,O 15,,,FALSE,OE,q,638,oe
CVOE updated,77,1,2,39,D 32,,,FALSE,OE,p,584,oe
CVOE updated,77,1,2,40,S 67,,,TRUE,OE,q,700,oe
CVOE updated,77,1,2,41,J 74,,,FALSE,OE,p,595,oe
CVOE updated,77,1,2,42,D 92,,,FALSE,OE,p,550,oe
CVOE updated,77,1,2,43,A 65,,,FALSE,OE,q,539,oe
CVOE updated,77,1,2,44,I 87,,,FALSE,OE,p,561,oe
CVOE updated,77,1,2,45,H 61,,,TRUE,OE,q,870,oe
CVOE updated,77,1,2,46,E 59,,,FALSE,OE,q,718,oe
CVOE updated,77,1,2,47,I 33,,,FALSE,OE,q,573,oe
CVOE updated,77,1,2,48,O 90,,,TRUE,OE,p,530,oe
CVOE updated,77,1,2,49,U 51,,,FALSE,OE,q,503,oe
CVOE updated,77,1,2,50,A 10,,,TRUE,OE,p,471,oe
CVOE updated,77,1,2,51,E 50,,,TRUE,OE,p,631,oe
CVOE updated,77,1,2,52,D 92,,,FALSE,OE,p,537,oe
CVOE updated,77,1,2,53,E 60,,,TRUE,OE,p,455,oe
CVOE updated,77,1,2,54,A 95,,,FALSE,OE,q,520,oe
CVOE updated,77,1,2,55,E 64,,,TRUE,OE,p,583,oe
CVOE updated,77,1,2,56,P 20,,,FALSE,OE,p,1899,oe
CVOE updated,77,1,2,57,S 06,,,FALSE,OE,p,554,oe
CVOE updated,77,1,2,58,P 64,,,FALSE,OE,p,535,oe
CVOE updated,77,1,2,59,U 70,,,TRUE,OE,p,749,oe
CVOE updated,77,1,2,60,S 16,,,FALSE,OE,p,603,oe
CVOE updated,77,1,2,61,E 35,,,FALSE,OE,q,702,oe
CVOE updated,77,1,2,62,I 93,,,FALSE,OE,q,789,oe
CVOE updated,77,1,2,63,D 63,,,TRUE,OE,q,593,oe
CVOE updated,77,1,2,64,U 89,,,FALSE,OE,q,580,oe
CVOE updated,77,1,2,65,E 91,,,FALSE,OE,q,480,oe
CVOE updated,77,1,2,66,A 12,,,TRUE,OE,p,472,oe
CVOE updated,77,1,2,67,P 56,,,FALSE,OE,p,1009,oe
CVOE updated,77,1,2,68,S 65,,,TRUE,OE,q,652,oe
CVOE updated,77,1,2,69,P 07,,,TRUE,OE,p,797,oe
CVOE updated,77,1,2,70,I 77,,,FALSE,OE,q,1608,oe
CVOE updated,77,1,2,71,J 19,,,TRUE,OE,q,604,oe
CVOE updated,77,1,2,72,O 59,,,FALSE,OE,q,1615,oe
CVOE updated,77,1,2,73,J 15,,,TRUE,OE,q,609,oe
CVOE updated,77,1,2,74,I 89,,,FALSE,OE,q,476,oe
CVOE updated,77,1,2,75,O 97,,,FALSE,OE,q,724,oe
CVOE updated,77,1,2,76,A 92,,,TRUE,OE,p,538,oe
CVOE updated,77,1,2,77,J 90,,,FALSE,OE,p,528,oe
CVOE updated,77,1,2,78,H 65,,,TRUE,OE,q,566,oe
CVOE updated,77,1,2,79,H 17,,,TRUE,OE,q,627,oe
CVOE updated,77,1,2,80,S 26,,,FALSE,OE,p,541,oe
CVOE updated,77,1,2,81,D 56,,,FALSE,OE,p,755,oe
CVOE updated,77,1,2,82,I 91,,,FALSE,OE,q,864,oe
CVOE updated,77,1,2,83,J 11,,,TRUE,OE,q,953,oe
CVOE updated,77,1,2,84,O 28,,,TRUE,OE,p,686,oe
CVOE updated,77,1,2,85,H 29,,,TRUE,OE,q,542,oe
CVOE updated,77,1,2,86,J 25,,,TRUE,OE,q,668,oe
CVOE updated,77,1,2,87,A 73,,,FALSE,OE,q,596,oe
CVOE updated,77,1,2,88,J 63,,,TRUE,OE,q,448,oe
CVOE updated,77,1,2,89,U 84,,,TRUE,OE,p,809,oe
CVOE updated,77,1,2,90,A 58,,,TRUE,OE,p,612,oe
CVOE updated,77,1,2,91,S 43,,,TRUE,OE,q,567,oe
CVOE updated,77,1,2,92,H 54,,,FALSE,OE,p,667,oe
CVOE updated,77,1,2,93,D 4,,,FALSE,OE,p,540,oe
CVOE updated,77,1,2,94,J 75,,,TRUE,OE,q,634,oe
CVOE updated,77,1,2,95,D 19,,,TRUE,OE,q,828,oe
CVOE updated,77,1,2,96,J 38,,,FALSE,OE,p,582,oe
CVOE updated,77,1,2,97,I 56,,,TRUE,OE,p,681,oe
CVOE updated,77,1,2,98,P 87,,,TRUE,OE,q,649,oe
CVOE updated,77,1,2,99,O 80,,,TRUE,OE,p,539,oe
CVOE updated,77,1,2,100,U 60,,,TRUE,OE,p,449,oe
CVOE updated,77,1,2,101,P 48,,,FALSE,OE,p,434,oe
CVOE updated,77,1,2,102,H 64,,,FALSE,OE,p,508,oe
CVOE updated,77,1,2,103,A 13,,,FALSE,OE,q,459,oe
CVOE updated,77,1,2,104,H 68,,,FALSE,OE,p,532,oe
CVOE updated,77,1,2,105,E 16,,,TRUE,OE,p,514,oe
CVOE updated,77,1,2,106,S 71,,,TRUE,OE,q,441,oe
CVOE updated,77,1,3,11,A 44,Letter,N,TRUE,CV,p,4114,alt
CVOE updated,77,1,3,12,D 94,Letter,N,FALSE,CV,q,1184,alt
CVOE updated,77,1,3,13,E 75,Number,Y,FALSE,OE,q,1292,alt
CVOE updated,77,1,3,14,H 81,Number,N,TRUE,OE,q,2748,alt
CVOE updated,77,1,3,15,I 64,Letter,Y,TRUE,CV,p,1617,alt
CVOE updated,77,1,3,16,J 54,Letter,N,FALSE,CV,q,1172,alt
CVOE updated,77,1,3,17,O 23,Number,Y,FALSE,OE,q,3352,alt
CVOE updated,77,1,3,18,P 05,Number,N,TRUE,OE,q,1885,alt
CVOE updated,77,1,3,19,S 34,Letter,Y,FALSE,CV,q,1357,alt
CVOE updated,77,1,3,20,U 88,Letter,N,TRUE,CV,p,1771,alt
CVOE updated,77,1,3,21,A 70,Number,Y,TRUE,OE,p,2087,alt
CVOE updated,77,1,3,22,D 12,Number,N,FALSE,OE,p,2447,alt
CVOE updated,77,1,3,23,E 79,Letter,Y,FALSE,CV,p,2136,alt
CVOE updated,77,1,3,24,H 72,Letter,N,FALSE,CV,q,934,alt
CVOE updated,77,1,3,25,I 41,Number,Y,FALSE,OE,q,3020,alt
CVOE updated,77,1,3,26,J 63,Number,N,TRUE,OE,q,1550,alt
CVOE updated,77,1,3,27,O 03,Letter,Y,FALSE,CV,p,1627,alt
CVOE updated,77,1,3,28,P 75,Letter,N,TRUE,CV,q,997,alt
CVOE updated,77,1,3,29,S 61,Number,Y,TRUE,OE,q,1072,alt
CVOE updated,77,1,3,30,U 28,Number,N,TRUE,OE,p,1129,alt
CVOE updated,77,1,3,31,A 21,Letter,Y,FALSE,CV,p,1455,alt
CVOE updated,77,1,3,32,D 18,Letter,N,FALSE,CV,q,1016,alt
CVOE updated,77,1,3,33,E 35,Number,Y,FALSE,OE,q,1091,alt
CVOE updated,77,1,3,34,H 62,Number,N,FALSE,OE,p,2402,alt
CVOE updated,77,1,3,35,I 82,Letter,Y,TRUE,CV,p,1326,alt
CVOE updated,77,1,3,36,J 78,Letter,N,FALSE,CV,q,1772,alt
CVOE updated,77,1,3,37,O 12,Number,Y,TRUE,OE,p,1441,alt
CVOE updated,77,1,3,38,P 13,Number,N,TRUE,OE,q,3386,alt
CVOE updated,77,1,3,39,S 07,Letter,Y,TRUE,CV,q,1190,alt
CVOE updated,77,1,3,40,U 36,Letter,N,TRUE,CV,p,1386,alt
CVOE updated,77,1,3,41,A 96,Number,Y,TRUE,OE,p,1814,alt
CVOE updated,77,1,3,42,D 04,Number,N,FALSE,OE,p,1569,alt
CVOE updated,77,1,3,43,E 60,Letter,Y,TRUE,CV,p,2285,alt
CVOE updated,77,1,3,44,H 83,Letter,N,TRUE,CV,q,941,alt
CVOE updated,77,1,3,45,I 64,Number,Y,TRUE,OE,p,859,alt
CVOE updated,77,1,3,46,J 76,Number,N,FALSE,OE,p,4908,alt
CVOE updated,77,1,3,47,O 78,Letter,Y,TRUE,CV,p,1067,alt
CVOE updated,77,1,3,48,P 09,Letter,N,TRUE,CV,q,1107,alt
CVOE updated,77,1,3,49,S 72,Number,Y,FALSE,OE,p,1011,alt
CVOE updated,77,1,3,50,U 47,Number,N,FALSE,OE,q,1333,alt
CVOE updated,77,1,3,51,A 31,Letter,Y,FALSE,CV,p,1227,alt
CVOE updated,77,1,3,52,D 96,Letter,N,FALSE,CV,q,1053,alt
CVOE updated,77,1,3,53,E 40,Number,Y,TRUE,OE,p,1078,alt
CVOE updated,77,1,3,54,H 79,Number,N,TRUE,OE,q,1630,alt
CVOE updated,77,1,3,55,I 15,Letter,Y,FALSE,CV,p,928,alt
CVOE updated,77,1,3,56,J 07,Letter,N,TRUE,CV,q,766,alt
CVOE updated,77,1,3,57,O 61,Number,Y,FALSE,OE,q,4458,alt
CVOE updated,77,1,3,58,P 58,Number,N,FALSE,OE,p,987,alt
CVOE updated,77,1,3,59,S 37,Letter,Y,TRUE,CV,q,1543,alt
CVOE updated,77,1,3,60,U 61,Letter,N,FALSE,CV,p,1765,alt
CVOE updated,77,1,3,61,A 17,Number,Y,FALSE,OE,q,1521,alt
CVOE updated,77,1,3,62,D 85,Number,N,TRUE,OE,q,1440,alt
CVOE updated,77,1,3,63,E 20,Letter,Y,TRUE,CV,p,1385,alt
CVOE updated,77,1,3,64,H 86,Letter,N,FALSE,CV,q,4413,alt
CVOE updated,77,1,3,65,I 21,Number,Y,FALSE,OE,q,2000,alt
CVOE updated,77,1,3,66,J 29,Number,N,TRUE,OE,q,1315,alt
CVOE updated,77,1,3,67,O 13,Letter,Y,FALSE,CV,p,897,alt
CVOE updated,77,1,3,68,P 82,Letter,N,FALSE,CV,q,793,alt
CVOE updated,77,1,3,69,S 72,Number,Y,FALSE,OE,p,2972,alt
CVOE updated,77,1,3,70,U 84,Number,N,TRUE,OE,p,920,alt
CVOE updated,77,1,3,71,A 49,Letter,Y,FALSE,CV,p,1343,alt
CVOE updated,77,1,3,72,D 91,Letter,N,TRUE,CV,q,1684,alt
CVOE updated,77,1,3,73,E 99,Number,Y,FALSE,OE,q,1172,alt
CVOE updated,77,1,3,74,H 16,Number,N,FALSE,OE,p,1512,alt
CVOE updated,77,1,3,75,I 45,Letter,Y,FALSE,CV,p,5311,alt
CVOE updated,77,1,3,76,J 70,Letter,N,FALSE,CV,q,893,alt
CVOE updated,77,1,3,77,O 22,Number,Y,TRUE,OE,p,1852,alt
CVOE updated,77,1,3,78,P 41,Number,N,TRUE,OE,q,1246,alt
CVOE updated,77,1,3,79,S 93,Letter,Y,TRUE,CV,q,1039,alt
CVOE updated,77,1,3,80,U 70,Letter,N,TRUE,CV,p,1057,alt
CVOE updated,77,1,3,81,A 42,Number,Y,TRUE,OE,p,1770,alt
CVOE updated,77,1,3,82,D 85,Number,N,TRUE,OE,q,3782,alt
CVOE updated,77,1,3,83,E 68,Letter,Y,TRUE,CV,p,1050,alt
CVOE updated,77,1,3,84,H 17,Letter,N,TRUE,CV,q,859,alt
CVOE updated,77,1,3,85,I 70,Number,Y,TRUE,OE,p,1436,alt
CVOE updated,77,1,3,86,J 88,Number,N,FALSE,OE,p,1998,alt
CVOE updated,77,1,3,87,O 32,Letter,Y,TRUE,CV,q,3041,alt
CVOE updated,77,1,3,88,P 95,Letter,N,TRUE,CV,q,1243,alt
CVOE updated,77,1,3,89,S 98,Number,Y,FALSE,OE,p,1716,alt
CVOE updated,77,1,3,90,U 37,Number,N,FALSE,OE,q,1442,alt
CVOE updated,77,1,3,91,A 56,Letter,Y,TRUE,CV,p,1708,alt
CVOE updated,77,1,3,92,D 57,Letter,N,TRUE,CV,q,2163,alt
CVOE updated,77,1,3,93,E 93,Number,Y,FALSE,OE,q,1087,alt
CVOE updated,77,1,3,94,H 27,Number,N,TRUE,OE,q,1103,alt
CVOE updated,77,1,3,95,I 35,Letter,Y,FALSE,CV,p,894,alt
CVOE updated,77,1,3,96,J 03,Letter,N,TRUE,CV,q,894,alt
CVOE updated,77,1,3,97,O 28,Number,Y,TRUE,OE,p,1437,alt
CVOE updated,77,1,3,98,P 59,Number,N,TRUE,OE,q,895,alt
CVOE updated,77,1,3,99,S 77,Letter,Y,TRUE,CV,q,1182,alt
CVOE updated,77,1,3,100,U 05,Letter,N,FALSE,CV,p,4722,alt
CVOE updated,77,1,3,101,A 56,Number,Y,TRUE,OE,p,2016,alt
CVOE updated,77,1,3,102,D 01,Number,N,TRUE,OE,q,1803,alt
CVOE updated,77,1,3,103,E 02,Letter,Y,TRUE,CV,p,1718,alt
CVOE updated,77,1,3,104,H 68,Letter,N,FALSE,CV,q,884,alt
CVOE updated,77,1,3,105,I 05,Number,Y,FALSE,OE,q,2300,alt
CVOE updated,77,1,3,106,J 55,Number,N,TRUE,OE,q,3355,alt
CVOE updated,77,1,3,107,O 73,Letter,Y,FALSE,CV,p,1080,alt
CVOE updated,77,1,3,108,P 41,Letter,N,TRUE,CV,q,800,alt
CVOE updated,77,1,3,109,S 92,Number,Y,FALSE,OE,p,1052,alt
CVOE updated,77,1,3,110,U 34,Number,N,TRUE,OE,p,829,alt
CVOE updated,77,1,3,111,A 09,Letter,Y,FALSE,CV,p,1887,alt
CVOE updated,77,1,3,112,D 92,Letter,N,FALSE,CV,q,848,alt
CVOE updated,77,1,3,113,E 48,Number,Y,TRUE,OE,p,1352,alt
CVOE updated,77,1,3,114,H 76,Number,N,FALSE,OE,p,4805,alt
CVOE updated,77,1,3,115,I 44,Letter,Y,TRUE,CV,p,1488,alt
CVOE updated,77,1,3,116,J 67,Letter,N,TRUE,CV,q,904,alt
CVOE updated,77,1,3,117,O 48,Number,Y,TRUE,OE,p,1367,alt
CVOE updated,77,1,3,118,P 22,Number,N,FALSE,OE,p,3244,alt
CVOE updated,77,1,3,119,S 86,Letter,Y,FALSE,CV,q,1422,alt
CVOE updated,77,1,3,120,U 35,Letter,N,FALSE,CV,p,1415,alt
CVOE updated,77,1,3,121,A 91,Number,Y,FALSE,OE,p,3915,alt
CVOE updated,77,1,3,122,D 78,Number,N,FALSE,OE,q,1448,alt
CVOE updated,77,1,3,123,E 91,Letter,Y,FALSE,CV,p,2001,alt
CVOE updated,77,1,3,124,H 54,Letter,N,FALSE,CV,q,932,alt
CVOE updated,77,1,3,125,I 65,Number,Y,FALSE,OE,q,1219,alt
CVOE updated,77,1,3,126,J 52,Number,N,FALSE,OE,p,1181,alt
CVOE updated,77,1,3,127,O 19,Letter,Y,FALSE,CV,p,1290,alt
CVOE updated,77,1,3,128,P 48,Letter,N,FALSE,CV,q,3786,alt
CVOE updated,77,1,3,129,S 45,Number,Y,TRUE,OE,q,5557,alt
CVOE updated,77,1,3,130,U 26,Number,N,TRUE,OE,p,810,alt
CVOE updated,77,1,4,1,U 38,Number,N,TRUE,OE,p,6638,shuf
CVOE updated,77,1,4,2,P 73,Number,N,TRUE,OE,q,1448,shuf
CVOE updated,77,1,4,3,U 95,Letter,Y,FALSE,CV,p,809,shuf
CVOE updated,77,1,4,4,J 61,Number,Y,TRUE,OE,q,1204,shuf
CVOE updated,77,1,4,5,D 51,Number,N,TRUE,OE,q,1944,shuf
CVOE updated,77,1,4,6,S 28,Number,N,FALSE,OE,p,1117,shuf
CVOE updated,77,1,4,7,A 56,Letter,Y,TRUE,CV,p,1195,shuf
CVOE updated,77,1,4,8,H 78,Letter,N,FALSE,CV,q,734,shuf
CVOE updated,77,1,4,9,P 92,Letter,N,FALSE,CV,q,1604,shuf
CVOE updated,77,1,4,10,E 05,Number,Y,FALSE,OE,q,1168,shuf
CVOE updated,77,1,4,11,P 57,Letter,Y,TRUE,CV,q,1516,shuf
CVOE updated,77,1,4,12,D 88,Number,Y,FALSE,OE,p,1019,shuf
CVOE updated,77,1,4,13,O 89,Letter,Y,FALSE,CV,q,1261,shuf
CVOE updated,77,1,4,14,U 43,Number,Y,FALSE,OE,q,2406,shuf
CVOE updated,77,1,4,15,H 10,Number,N,FALSE,OE,p,929,shuf
CVOE updated,77,1,4,16,S 07,Letter,Y,TRUE,CV,q,1039,shuf
CVOE updated,77,1,4,17,J 10,Letter,N,FALSE,CV,q,4201,shuf
CVOE updated,77,1,4,18,H 54,Number,Y,FALSE,OE,p,1124,shuf
CVOE updated,77,1,4,19,E 99,Number,N,FALSE,OE,q,994,shuf
CVOE updated,77,1,4,20,J 36,Letter,Y,FALSE,CV,q,1021,shuf
CVOE updated,77,1,4,21,I 94,Letter,N,TRUE,CV,p,1392,shuf
CVOE updated,77,1,4,22,A 82,Letter,N,TRUE,CV,p,1116,shuf
CVOE updated,77,1,4,23,H 79,Number,Y,TRUE,OE,q,1322,shuf
CVOE updated,77,1,4,24,J 60,Number,N,FALSE,OE,p,1417,shuf
CVOE updated,77,1,4,25,S 28,Letter,Y,FALSE,CV,q,1276,shuf
CVOE updated,77,1,4,26,P 11,Number,Y,TRUE,OE,q,908,shuf
CVOE updated,77,1,4,27,D 39,Number,N,TRUE,OE,q,1979,shuf
CVOE updated,77,1,4,28,E 90,Number,N,TRUE,OE,q,1383,shuf
CVOE updated,77,1,4,29,I 38,Number,N,TRUE,OE,p,1363,shuf
CVOE updated,77,1,4,30,S 35,Letter,Y,TRUE,CV,q,1768,shuf
CVOE updated,77,1,4,31,D 41,Number,Y,TRUE,OE,q,2732,shuf
CVOE updated,77,1,4,32,E 06,Number,N,TRUE,OE,p,2290,shuf
CVOE updated,77,1,4,33,A 27,Number,N,FALSE,OE,q,1122,shuf
CVOE updated,77,1,4,34,U 95,Letter,Y,FALSE,CV,p,1432,shuf
CVOE updated,77,1,4,35,A 53,Letter,N,FALSE,CV,p,866,shuf
CVOE updated,77,1,4,36,E 43,Letter,N,FALSE,CV,p,739,shuf
CVOE updated,77,1,4,37,P 05,Number,Y,TRUE,OE,q,657,shuf
CVOE updated,77,1,4,38,O 19,Letter,Y,FALSE,CV,p,3386,shuf
CVOE updated,77,1,4,39,I 96,Number,Y,TRUE,OE,p,1878,shuf
CVOE updated,77,1,4,40,A 88,Number,N,TRUE,OE,p,1301,shuf
CVOE updated,77,1,4,41,I 67,Number,N,FALSE,OE,q,861,shuf
CVOE updated,77,1,4,42,D 40,Number,N,FALSE,OE,p,789,shuf
CVOE updated,77,1,4,43,P 79,Letter,Y,TRUE,CV,q,1009,shuf
CVOE updated,77,1,4,44,U 24,Number,Y,TRUE,OE,p,1612,shuf
CVOE updated,77,1,4,45,P 74,Number,N,FALSE,OE,p,1391,shuf
CVOE updated,77,1,4,46,E 70,Number,N,TRUE,OE,p,995,shuf
CVOE updated,77,1,4,47,S 27,Number,N,TRUE,OE,q,1246,shuf
CVOE updated,77,1,4,48,E 54,Letter,Y,TRUE,CV,q,1487,shuf
CVOE updated,77,1,4,49,A 53,Letter,N,FALSE,CV,p,2415,shuf
CVOE updated,77,1,4,50,P 34,Letter,N,FALSE,CV,q,1209,shuf
CVOE updated,77,1,4,51,D 74,Number,Y,FALSE,OE,p,1452,shuf
CVOE updated,77,1,4,52,A 03,Letter,Y,FALSE,CV,p,1365,shuf
CVOE updated,77,1,4,53,E 24,Number,Y,TRUE,OE,p,1618,shuf
CVOE updated,77,1,4,54,I 58,Letter,Y,TRUE,CV,p,2180,shuf
CVOE updated,77,1,4,55,D 77,Number,Y,TRUE,OE,q,1544,shuf
CVOE updated,77,1,4,56,S 75,Number,N,TRUE,OE,q,1165,shuf
CVOE updated,77,1,4,57,I 20,Letter,Y,TRUE,CV,p,898,shuf
CVOE updated,77,1,4,58,J 52,Letter,N,FALSE,CV,q,1081,shuf
CVOE updated,77,1,4,59,A 38,Number,Y,TRUE,OE,p,1169,shuf
CVOE updated,77,1,4,60,I 60,Letter,Y,TRUE,CV,p,3333,shuf
CVOE updated,77,1,4,61,S 51,Number,Y,TRUE,OE,q,1763,shuf
CVOE updated,77,1,4,62,D 63,Letter,Y,TRUE,CV,q,1208,shuf
CVOE updated,77,1,4,63,U 27,Letter,N,FALSE,CV,p,995,shuf
CVOE updated,77,1,4,64,J 77,Letter,N,TRUE,CV,q,1406,shuf
CVOE updated,77,1,4,65,O 15,Number,Y,FALSE,OE,q,2161,shuf
CVOE updated,77,1,4,66,J 20,Letter,Y,FALSE,CV,q,2598,shuf
CVOE updated,77,1,4,67,U 97,Number,Y,FALSE,OE,q,1657,shuf
CVOE updated,77,1,4,68,H 03,Number,N,TRUE,OE,q,1250,shuf
CVOE updated,77,1,4,69,O 04,Letter,Y,TRUE,CV,p,2523,shuf
CVOE updated,77,1,4,70,E 10,Letter,N,TRUE,CV,p,4018,shuf
CVOE updated,77,1,4,71,I 52,Letter,N,TRUE,CV,p,2004,shuf
CVOE updated,77,1,4,72,H 81,Number,Y,TRUE,OE,q,799,shuf
CVOE updated,77,1,4,73,I 41,Number,N,FALSE,OE,q,2283,shuf
CVOE updated,77,1,4,74,U 19,Letter,Y,FALSE,CV,p,1434,shuf
CVOE updated,77,1,4,75,O 17,Number,Y,FALSE,OE,q,1268,shuf
CVOE updated,77,1,4,76,A 10,Number,N,TRUE,OE,p,917,shuf
CVOE updated,77,1,4,77,P 93,Letter,Y,TRUE,CV,q,1571,shuf
CVOE updated,77,1,4,78,E 59,Letter,N,FALSE,CV,p,944,shuf
CVOE updated,77,1,4,79,O 53,Letter,N,FALSE,CV,p,1445,shuf
CVOE updated,77,1,4,80,A 96,Letter,N,TRUE,CV,p,1006,shuf
CVOE updated,77,1,4,81,H 36,Letter,Y,FALSE,CV,q,1090,shuf
CVOE updated,77,1,4,82,A 63,Letter,N,FALSE,CV,p,1073,shuf
CVOE updated,77,1,4,83,I 38,Letter,N,TRUE,CV,p,914,shuf
CVOE updated,77,1,4,84,O 51,Number,Y,FALSE,OE,q,1473,shuf
CVOE updated,77,1,4,85,J 26,Number,N,FALSE,OE,p,1569,shuf
CVOE updated,77,1,4,86,S 34,Letter,Y,FALSE,CV,q,1910,shuf
CVOE updated,77,1,4,87,U 85,Number,Y,FALSE,OE,q,1628,shuf
CVOE updated,77,1,4,88,J 77,Number,N,TRUE,OE,q,1590,shuf
CVOE updated,77,1,4,89,I 73,Letter,Y,FALSE,CV,p,1946,shuf
CVOE updated,77,1,4,90,H 46,Number,Y,FALSE,OE,p,1535,shuf
CVOE updated,77,1,4,91,D 04,Number,N,FALSE,OE,p,1277,shuf
CVOE updated,77,1,4,92,P 72,Letter,Y,FALSE,CV,q,3469,shuf
CVOE updated,77,1,4,93,D 99,Number,Y,TRUE,OE,q,1141,shuf
CVOE updated,77,1,4,94,U 25,Letter,Y,FALSE,CV,p,3163,shuf
CVOE updated,77,1,4,95,O 32,Letter,N,TRUE,CV,p,2215,shuf
CVOE updated,77,1,4,96,E 80,Letter,N,TRUE,CV,p,1194,shuf
CVOE updated,77,1,4,97,O 84,Number,Y,TRUE,OE,p,1493,shuf
CVOE updated,77,1,4,98,A 78,Number,N,TRUE,OE,p,1748,shuf
CVOE updated,77,1,4,99,S 05,Number,N,TRUE,OE,q,1473,shuf
CVOE updated,77,1,4,100,U 35,Letter,Y,FALSE,CV,p,1314,shuf
CVOE updated,77,1,4,101,H 14,Letter,N,FALSE,CV,q,1289,shuf
CVOE updated,77,1,4,102,U 15,Number,Y,FALSE,OE,p,2016,shuf
CVOE updated,77,1,4,103,E 36,Letter,Y,TRUE,CV,p,1075,shuf
CVOE updated,77,1,4,104,P 70,Letter,N,FALSE,CV,q,923,shuf
CVOE updated,77,1,4,105,O 44,Number,Y,TRUE,OE,p,1050,shuf
CVOE updated,77,1,4,106,S 41,Letter,Y,TRUE,CV,q,1979,shuf
CVOE updated,77,1,4,107,D 83,Letter,N,TRUE,CV,q,1103,shuf
CVOE updated,77,1,4,108,J 39,Letter,N,TRUE,CV,q,934,shuf
CVOE updated,77,1,4,109,S 22,Number,Y,FALSE,OE,p,884,shuf
CVOE updated,77,1,4,110,D 89,Letter,Y,TRUE,CV,q,1164,shuf
CVOE updated,77,1,4,111,P 87,Letter,N,TRUE,CV,q,1321,shuf
CVOE updated,77,1,4,112,H 42,Letter,N,FALSE,CV,q,727,shuf
CVOE updated,77,1,4,113,S 49,Letter,N,TRUE,CV,q,717,shuf
CVOE updated,77,1,4,114,J 20,Number,Y,FALSE,OE,p,932,shuf
CVOE updated,77,1,4,115,O 19,Letter,Y,FALSE,CV,q,778,shuf
CVOE updated,77,1,4,116,H 50,Letter,N,FALSE,CV,q,3901,shuf
CVOE updated,77,1,4,117,I 68,Number,Y,TRUE,OE,p,1301,shuf
CVOE updated,77,1,4,118,J 72,Number,N,FALSE,OE,p,1020,shuf
CVOE updated,77,1,4,119,O 21,Number,N,FALSE,OE,q,902,shuf
CVOE updated,77,1,4,120,H 22,Number,N,FALSE,OE,p,838,shuf
CVOE updated,81,1,1,11,A 71,,,FALSE,CV,p,1476,cv
CVOE updated,81,1,1,12,I 66,,,TRUE,CV,p,884,cv
CVOE updated,81,1,1,13,S 30,,,FALSE,CV,q,508,cv
CVOE updated,81,1,1,14,D 20,,,FALSE,CV,q,603,cv
CVOE updated,81,1,1,15,I 31,,,FALSE,CV,p,703,cv
CVOE updated,81,1,1,16,P 16,,,FALSE,CV,q,702,cv
CVOE updated,81,1,1,17,A 49,,,FALSE,CV,p,1021,cv
CVOE updated,81,1,1,18,O 64,,,TRUE,CV,p,1048,cv
CVOE updated,81,1,1,19,D 02,,,FALSE,CV,q,1025,cv
CVOE updated,81,1,1,20,P 81,,,TRUE,CV,q,1731,cv
CVOE updated,81,1,1,21,J 58,,,FALSE,CV,q,857,cv
CVOE updated,81,1,1,22,A 22,,,TRUE,CV,p,794,cv
CVOE updated,81,1,1,23,J 72,,,FALSE,CV,q,918,cv
CVOE updated,81,1,1,24,P 91,,,TRUE,CV,q,788,cv
CVOE updated,81,1,1,25,E 19,,,FALSE,CV,p,848,cv
CVOE updated,81,1,1,26,I 30,,,TRUE,CV,p,625,cv
CVOE updated,81,1,1,27,D 91,,,TRUE,CV,q,500,cv
CVOE updated,81,1,1,28,O 48,,,TRUE,CV,p,523,cv
CVOE updated,81,1,1,29,A 89,,,FALSE,CV,p,650,cv
CVOE updated,81,1,1,30,U 11,,,FALSE,CV,p,691,cv
CVOE updated,81,1,1,31,I 76,,,TRUE,CV,p,899,cv
CVOE updated,81,1,1,32,U 89,,,FALSE,CV,p,714,cv
CVOE updated,81,1,1,33,D 63,,,TRUE,CV,q,505,cv
CVOE updated,81,1,1,34,H 70,,,FALSE,CV,q,752,cv
CVOE updated,81,1,1,35,D 48,,,FALSE,CV,q,765,cv
CVOE updated,81,1,1,36,P 56,,,FALSE,CV,q,898,cv
CVOE updated,81,1,1,37,O 77,,,FALSE,CV,p,849,cv
CVOE updated,81,1,1,38,P 42,,,FALSE,CV,q,714,cv
CVOE updated,81,1,1,39,H 22,,,FALSE,CV,q,1297,cv
CVOE updated,81,1,1,40,E 42,,,TRUE,CV,p,840,cv
CVOE updated,81,1,1,41,J 28,,,FALSE,CV,q,706,cv
CVOE updated,81,1,1,42,E 95,,,FALSE,CV,p,769,cv
CVOE updated,81,1,1,43,S 63,,,TRUE,CV,q,774,cv
CVOE updated,81,1,1,44,H 50,,,FALSE,CV,q,715,cv
CVOE updated,81,1,1,45,S 33,,,TRUE,CV,q,737,cv
CVOE updated,81,1,1,46,P 57,,,TRUE,CV,q,663,cv
CVOE updated,81,1,1,47,E 23,,,FALSE,CV,p,704,cv
CVOE updated,81,1,1,48,S 61,,,TRUE,CV,q,623,cv
CVOE updated,81,1,1,49,U 67,,,FALSE,CV,p,721,cv
CVOE updated,81,1,1,50,H 32,,,FALSE,CV,q,752,cv
CVOE updated,81,1,1,51,U 50,,,TRUE,CV,p,757,cv
CVOE updated,81,1,1,52,O 49,,,FALSE,CV,p,643,cv
CVOE updated,81,1,1,53,U 32,,,TRUE,CV,p,580,cv
CVOE updated,81,1,1,54,J 78,,,FALSE,CV,q,1016,cv
CVOE updated,81,1,1,55,S 54,,,FALSE,CV,q,826,cv
CVOE updated,81,1,1,56,J 27,,,TRUE,CV,q,884,cv
CVOE updated,81,1,1,57,S 06,,,FALSE,CV,q,868,cv
CVOE updated,81,1,1,58,D 67,,,TRUE,CV,q,981,cv
CVOE updated,81,1,1,59,A 79,,,FALSE,CV,p,945,cv
CVOE updated,81,1,1,60,S 52,,,FALSE,CV,q,934,cv
CVOE updated,81,1,1,61,U 16,,,TRUE,CV,p,964,cv
CVOE updated,81,1,1,62,O 82,,,TRUE,CV,p,680,cv
CVOE updated,81,1,1,63,H 87,,,TRUE,CV,q,600,cv
CVOE updated,81,1,1,64,I 32,,,TRUE,CV,p,675,cv
CVOE updated,81,1,1,65,U 37,,,FALSE,CV,p,724,cv
CVOE updated,81,1,1,66,I 42,,,TRUE,CV,p,747,cv
CVOE updated,81,1,1,67,D 65,,,TRUE,CV,q,736,cv
CVOE updated,81,1,1,68,U 77,,,FALSE,CV,p,670,cv
CVOE updated,81,1,1,69,E 12,,,TRUE,CV,p,838,cv
CVOE updated,81,1,1,70,I 60,,,TRUE,CV,p,768,cv
CVOE updated,81,1,1,71,J 36,,,FALSE,CV,q,797,cv
CVOE updated,81,1,1,72,H 75,,,TRUE,CV,q,1144,cv
CVOE updated,81,1,1,73,I 50,,,TRUE,CV,p,797,cv
CVOE updated,81,1,1,74,E 99,,,FALSE,CV,p,841,cv
CVOE updated,81,1,1,75,A 86,,,TRUE,CV,p,682,cv
CVOE updated,81,1,1,76,U 48,,,TRUE,CV,p,634,cv
CVOE updated,81,1,1,77,E 01,,,FALSE,CV,p,692,cv
CVOE updated,81,1,1,78,A 78,,,TRUE,CV,p,700,cv
CVOE updated,81,1,1,79,P 60,,,FALSE,CV,q,643,cv
CVOE updated,81,1,1,80,E 43,,,FALSE,CV,p,604,cv
CVOE updated,81,1,1,81,D 69,,,TRUE,CV,q,871,cv
CVOE updated,81,1,1,82,H 11,,,TRUE,CV,q,648,cv
CVOE updated,81,1,1,83,P 43,,,TRUE,CV,q,537,cv
CVOE updated,81,1,1,84,O 67,,,FALSE,CV,p,647,cv
CVOE updated,81,1,1,85,S 91,,,FALSE,CV,q,688,cv
CVOE updated,81,1,1,86,J 68,,,TRUE,CV,q,560,cv
CVOE updated,81,1,1,87,S 47,,,FALSE,CV,q,533,cv
CVOE updated,81,1,1,88,I 81,,,TRUE,CV,p,507,cv
CVOE updated,81,1,1,89,J 39,,,FALSE,CV,q,626,cv
CVOE updated,81,1,1,90,A 11,,,TRUE,CV,p,716,cv
CVOE updated,81,1,1,91,O 76,,,FALSE,CV,p,618,cv
CVOE updated,81,1,1,92,A 62,,,FALSE,CV,p,549,cv
CVOE updated,81,1,1,93,O 27,,,TRUE,CV,p,482,cv
CVOE updated,81,1,1,94,E 66,,,FALSE,CV,p,482,cv
CVOE updated,81,1,1,95,J 62,,,TRUE,CV,q,570,cv
CVOE updated,81,1,1,96,H 72,,,TRUE,CV,q,575,cv
CVOE updated,81,1,1,97,E 49,,,TRUE,CV,p,547,cv
CVOE updated,81,1,1,98,D 52,,,TRUE,CV,q,577,cv
CVOE updated,81,1,1,99,H 62,,,TRUE,CV,q,485,cv
CVOE updated,81,1,1,100,I 11,,,TRUE,CV,p,476,cv
CVOE updated,81,1,1,101,A 98,,,FALSE,CV,p,588,cv
CVOE updated,81,1,1,102,H 29,,,FALSE,CV,q,536,cv
CVOE updated,81,1,1,103,E 83,,,TRUE,CV,p,574,cv
CVOE updated,81,1,1,104,D 43,,,FALSE,CV,q,643,cv
CVOE updated,81,1,1,105,P 45,,,TRUE,CV,q,508,cv
CVOE updated,81,1,1,106,J 17,,,TRUE,CV,q,483,cv
CVOE updated,81,1,2,11,A 24,,,TRUE,OE,p,1721,oe
CVOE updated,81,1,2,12,O 83,,,FALSE,OE,q,672,oe
CVOE updated,81,1,2,13,H 55,,,TRUE,OE,q,664,oe
CVOE updated,81,1,2,14,P 10,,,FALSE,OE,p,561,oe
CVOE updated,81,1,2,15,D 30,,,FALSE,OE,p,693,oe
CVOE updated,81,1,2,16,U 62,,,TRUE,OE,p,749,oe
CVOE updated,81,1,2,17,P 95,,,TRUE,OE,q,610,oe
CVOE updated,81,1,2,18,U 06,,,TRUE,OE,p,756,oe
CVOE updated,81,1,2,19,E 75,,,FALSE,OE,q,762,oe
CVOE updated,81,1,2,20,I 67,,,FALSE,OE,q,606,oe
CVOE updated,81,1,2,21,S 13,,,TRUE,OE,q,666,oe
CVOE updated,81,1,2,22,P 78,,,FALSE,OE,p,1090,oe
CVOE updated,81,1,2,23,I 15,,,FALSE,OE,q,626,oe
CVOE updated,81,1,2,24,D 27,,,TRUE,OE,q,644,oe
CVOE updated,81,1,2,25,O 94,,,TRUE,OE,p,653,oe
CVOE updated,81,1,2,26,A 65,,,FALSE,OE,q,702,oe
CVOE updated,81,1,2,27,I 42,,,TRUE,OE,p,478,oe
CVOE updated,81,1,2,28,E 25,,,FALSE,OE,q,502,oe
CVOE updated,81,1,2,29,H 49,,,TRUE,OE,q,797,oe
CVOE updated,81,1,2,30,S 18,,,FALSE,OE,p,568,oe
CVOE updated,81,1,2,31,H 51,,,TRUE,OE,q,565,oe
CVOE updated,81,1,2,32,U 14,,,TRUE,OE,p,641,oe
CVOE updated,81,1,2,33,E 02,,,TRUE,OE,p,611,oe
CVOE updated,81,1,2,34,J 26,,,FALSE,OE,p,686,oe
CVOE updated,81,1,2,35,D 24,,,FALSE,OE,p,566,oe
CVOE updated,81,1,2,36,O 50,,,TRUE,OE,p,658,oe
CVOE updated,81,1,2,37,U 16,,,TRUE,OE,p,548,oe
CVOE updated,81,1,2,38,O 15,,,FALSE,OE,q,769,oe
CVOE updated,81,1,2,39,D 32,,,FALSE,OE,p,830,oe
CVOE updated,81,1,2,40,S 67,,,TRUE,OE,q,1015,oe
CVOE updated,81,1,2,41,J 74,,,FALSE,OE,p,778,oe
CVOE updated,81,1,2,42,D 92,,,FALSE,OE,p,726,oe
CVOE updated,81,1,2,43,A 65,,,FALSE,OE,q,732,oe
CVOE updated,81,1,2,44,I 87,,,FALSE,OE,q,905,oe
CVOE updated,81,1,2,45,H 61,,,TRUE,OE,q,1217,oe
CVOE updated,81,1,2,46,E 59,,,FALSE,OE,q,884,oe
CVOE updated,81,1,2,47,I 33,,,FALSE,OE,q,947,oe
CVOE updated,81,1,2,48,O 90,,,TRUE,OE,p,944,oe
CVOE updated,81,1,2,49,U 51,,,FALSE,OE,q,735,oe
CVOE updated,81,1,2,50,A 10,,,TRUE,OE,p,628,oe
CVOE updated,81,1,2,51,E 50,,,TRUE,OE,p,662,oe
CVOE updated,81,1,2,52,D 92,,,FALSE,OE,p,695,oe
CVOE updated,81,1,2,53,E 60,,,TRUE,OE,p,518,oe
CVOE updated,81,1,2,54,A 95,,,FALSE,OE,q,620,oe
CVOE updated,81,1,2,55,E 64,,,TRUE,OE,p,744,oe
CVOE updated,81,1,2,56,P 20,,,FALSE,OE,p,557,oe
CVOE updated,81,1,2,57,S 06,,,FALSE,OE,p,634,oe
CVOE updated,81,1,2,58,P 64,,,FALSE,OE,p,596,oe
CVOE updated,81,1,2,59,U 70,,,TRUE,OE,p,855,oe
CVOE updated,81,1,2,60,S 16,,,FALSE,OE,p,736,oe
CVOE updated,81,1,2,61,E 35,,,FALSE,OE,q,550,oe
CVOE updated,81,1,2,62,I 93,,,FALSE,OE,q,1652,oe
CVOE updated,81,1,2,63,D 63,,,TRUE,OE,q,1045,oe
CVOE updated,81,1,2,64,U 89,,,FALSE,OE,q,1214,oe
CVOE updated,81,1,2,65,E 91,,,FALSE,OE,q,1025,oe
CVOE updated,81,1,2,66,A 12,,,TRUE,OE,p,675,oe
CVOE updated,81,1,2,67,P 56,,,FALSE,OE,p,740,oe
CVOE updated,81,1,2,68,S 65,,,TRUE,OE,q,842,oe
CVOE updated,81,1,2,69,P 07,,,TRUE,OE,q,820,oe
CVOE updated,81,1,2,70,I 77,,,FALSE,OE,q,630,oe
CVOE updated,81,1,2,71,J 19,,,TRUE,OE,q,760,oe
CVOE updated,81,1,2,72,O 59,,,FALSE,OE,q,661,oe
CVOE updated,81,1,2,73,J 15,,,TRUE,OE,q,741,oe
CVOE updated,81,1,2,74,I 89,,,FALSE,OE,q,723,oe
CVOE updated,81,1,2,75,O 97,,,FALSE,OE,q,738,oe
CVOE updated,81,1,2,76,A 92,,,TRUE,OE,p,544,oe
CVOE updated,81,1,2,77,J 90,,,FALSE,OE,p,557,oe
CVOE updated,81,1,2,78,H 65,,,TRUE,OE,q,594,oe
CVOE updated,81,1,2,79,H 17,,,TRUE,OE,q,637,oe
CVOE updated,81,1,2,80,S 26,,,FALSE,OE,p,655,oe
CVOE updated,81,1,2,81,D 56,,,FALSE,OE,p,681,oe
CVOE updated,81,1,2,82,I 91,,,FALSE,OE,q,832,oe
CVOE updated,81,1,2,83,J 11,,,TRUE,OE,q,962,oe
CVOE updated,81,1,2,84,O 28,,,TRUE,OE,p,663,oe
CVOE updated,81,1,2,85,H 29,,,TRUE,OE,q,672,oe
CVOE updated,81,1,2,86,J 25,,,TRUE,OE,q,632,oe
CVOE updated,81,1,2,87,A 73,,,FALSE,OE,q,650,oe
CVOE updated,81,1,2,88,J 63,,,TRUE,OE,q,699,oe
CVOE updated,81,1,2,89,U 84,,,TRUE,OE,p,619,oe
CVOE updated,81,1,2,90,A 58,,,TRUE,OE,p,909,oe
CVOE updated,81,1,2,91,S 43,,,TRUE,OE,q,636,oe
CVOE updated,81,1,2,92,H 54,,,FALSE,OE,p,774,oe
CVOE updated,81,1,2,93,D 4,,,FALSE,OE,p,779,oe
CVOE updated,81,1,2,94,J 75,,,TRUE,OE,q,703,oe
CVOE updated,81,1,2,95,D 19,,,TRUE,OE,q,790,oe
CVOE updated,81,1,2,96,J 38,,,FALSE,OE,p,1026,oe
CVOE updated,81,1,2,97,I 56,,,TRUE,OE,p,724,oe
CVOE updated,81,1,2,98,P 87,,,TRUE,OE,q,675,oe
CVOE updated,81,1,2,99,O 80,,,TRUE,OE,p,668,oe
CVOE updated,81,1,2,100,U 60,,,TRUE,OE,p,652,oe
CVOE updated,81,1,2,101,P 48,,,FALSE,OE,p,677,oe
CVOE updated,81,1,2,102,H 64,,,FALSE,OE,p,725,oe
CVOE updated,81,1,2,103,A 13,,,FALSE,OE,q,708,oe
CVOE updated,81,1,2,104,H 68,,,FALSE,OE,p,851,oe
CVOE updated,81,1,2,105,E 16,,,TRUE,OE,p,772,oe
CVOE updated,81,1,2,106,S 71,,,TRUE,OE,q,905,oe
CVOE updated,81,1,3,11,A 44,Letter,N,TRUE,CV,p,3118,alt
CVOE updated,81,1,3,12,D 94,Letter,N,FALSE,CV,q,2924,alt
CVOE updated,81,1,3,13,E 75,Number,Y,FALSE,OE,q,1283,alt
CVOE updated,81,1,3,14,H 81,Number,N,TRUE,OE,q,1162,alt
CVOE updated,81,1,3,15,I 64,Letter,Y,TRUE,CV,p,1223,alt
CVOE updated,81,1,3,16,J 54,Letter,N,FALSE,CV,q,1138,alt
CVOE updated,81,1,3,17,O 23,Number,Y,FALSE,OE,q,1599,alt
CVOE updated,81,1,3,18,P 05,Number,N,TRUE,OE,q,1235,alt
CVOE updated,81,1,3,19,S 34,Letter,Y,FALSE,CV,q,2612,alt
CVOE updated,81,1,3,20,U 88,Letter,N,TRUE,CV,p,1727,alt
CVOE updated,81,1,3,21,A 70,Number,Y,TRUE,OE,p,2573,alt
CVOE updated,81,1,3,22,D 12,Number,N,FALSE,OE,p,2097,alt
CVOE updated,81,1,3,23,E 79,Letter,Y,FALSE,CV,p,1680,alt
CVOE updated,81,1,3,24,H 72,Letter,N,FALSE,CV,q,1256,alt
CVOE updated,81,1,3,25,I 41,Number,Y,FALSE,OE,q,1793,alt
CVOE updated,81,1,3,26,J 63,Number,N,TRUE,OE,q,1317,alt
CVOE updated,81,1,3,27,O 03,Letter,Y,FALSE,CV,p,1243,alt
CVOE updated,81,1,3,28,P 75,Letter,N,TRUE,CV,q,1372,alt
CVOE updated,81,1,3,29,S 61,Number,Y,TRUE,OE,q,1905,alt
CVOE updated,81,1,3,30,U 28,Number,N,TRUE,OE,p,1344,alt
CVOE updated,81,1,3,31,A 21,Letter,Y,FALSE,CV,p,1253,alt
CVOE updated,81,1,3,32,D 18,Letter,N,FALSE,CV,q,1046,alt
CVOE updated,81,1,3,33,E 35,Number,Y,FALSE,OE,q,1256,alt
CVOE updated,81,1,3,34,H 62,Number,N,FALSE,OE,p,1273,alt
CVOE updated,81,1,3,35,I 82,Letter,Y,TRUE,CV,p,3153,alt
CVOE updated,81,1,3,36,J 78,Letter,N,FALSE,CV,q,1559,alt
CVOE updated,81,1,3,37,O 12,Number,Y,TRUE,OE,p,1380,alt
CVOE updated,81,1,3,38,P 13,Number,N,TRUE,OE,q,1424,alt
CVOE updated,81,1,3,39,S 07,Letter,Y,TRUE,CV,q,1402,alt
CVOE updated,81,1,3,40,U 36,Letter,N,TRUE,CV,p,1413,alt
CVOE updated,81,1,3,41,A 96,Number,Y,TRUE,OE,p,1424,alt
CVOE updated,81,1,3,42,D 04,Number,N,FALSE,OE,p,2490,alt
CVOE updated,81,1,3,43,E 60,Letter,Y,TRUE,CV,p,1474,alt
CVOE updated,81,1,3,44,H 83,Letter,N,TRUE,CV,q,1451,alt
CVOE updated,81,1,3,45,I 64,Number,Y,TRUE,OE,p,1428,alt
CVOE updated,81,1,3,46,J 76,Number,N,FALSE,OE,p,1278,alt
CVOE updated,81,1,3,47,O 78,Letter,Y,TRUE,CV,p,1470,alt
CVOE updated,81,1,3,48,P 09,Letter,N,TRUE,CV,q,1334,alt
CVOE updated,81,1,3,49,S 72,Number,Y,FALSE,OE,p,1268,alt
CVOE updated,81,1,3,50,U 47,Number,N,FALSE,OE,q,1453,alt
CVOE updated,81,1,3,51,A 31,Letter,Y,FALSE,CV,p,1534,alt
CVOE updated,81,1,3,52,D 96,Letter,N,FALSE,CV,q,1228,alt
CVOE updated,81,1,3,53,E 40,Number,Y,TRUE,OE,p,1390,alt
CVOE updated,81,1,3,54,H 79,Number,N,TRUE,OE,q,1553,alt
CVOE updated,81,1,3,55,I 15,Letter,Y,FALSE,CV,p,1663,alt
CVOE updated,81,1,3,56,J 07,Letter,N,TRUE,CV,q,1383,alt
CVOE updated,81,1,3,57,O 61,Number,Y,FALSE,OE,q,1131,alt
CVOE updated,81,1,3,58,P 58,Number,N,FALSE,OE,p,1641,alt
CVOE updated,81,1,3,59,S 37,Letter,Y,TRUE,CV,q,883,alt
CVOE updated,81,1,3,60,U 61,Letter,N,FALSE,CV,p,1011,alt
CVOE updated,81,1,3,61,A 17,Number,Y,FALSE,OE,q,941,alt
CVOE updated,81,1,3,62,D 85,Number,N,TRUE,OE,q,1467,alt
CVOE updated,81,1,3,63,E 20,Letter,Y,TRUE,CV,p,1324,alt
CVOE updated,81,1,3,64,H 86,Letter,N,FALSE,CV,q,954,alt
CVOE updated,81,1,3,65,I 21,Number,Y,FALSE,OE,q,1911,alt
CVOE updated,81,1,3,66,J 29,Number,N,TRUE,OE,q,1406,alt
CVOE updated,81,1,3,67,O 13,Letter,Y,FALSE,CV,p,921,alt
CVOE updated,81,1,3,68,P 82,Letter,N,FALSE,CV,q,840,alt
CVOE updated,81,1,3,69,S 72,Number,Y,FALSE,OE,q,1106,alt
CVOE updated,81,1,3,70,U 84,Number,N,TRUE,OE,p,1961,alt
CVOE updated,81,1,3,71,A 49,Letter,Y,FALSE,CV,p,893,alt
CVOE updated,81,1,3,72,D 91,Letter,N,TRUE,CV,q,813,alt
CVOE updated,81,1,3,73,E 99,Number,Y,FALSE,OE,q,1031,alt
CVOE updated,81,1,3,74,H 16,Number,N,FALSE,OE,p,1001,alt
CVOE updated,81,1,3,75,I 45,Letter,Y,FALSE,CV,q,1252,alt
CVOE updated,81,1,3,76,J 70,Letter,N,FALSE,CV,p,853,alt
CVOE updated,81,1,3,77,O 22,Number,Y,TRUE,OE,p,2687,alt
CVOE updated,81,1,3,78,P 41,Number,N,TRUE,OE,q,1574,alt
CVOE updated,81,1,3,79,S 93,Letter,Y,TRUE,CV,q,955,alt
CVOE updated,81,1,3,80,U 70,Letter,N,TRUE,CV,p,1704,alt
CVOE updated,81,1,3,81,A 42,Number,Y,TRUE,OE,p,2023,alt
CVOE updated,81,1,3,82,D 85,Number,N,TRUE,OE,q,1458,alt
CVOE updated,81,1,3,83,E 68,Letter,Y,TRUE,CV,p,1067,alt
CVOE updated,81,1,3,84,H 17,Letter,N,TRUE,CV,q,1724,alt
CVOE updated,81,1,3,85,I 70,Number,Y,TRUE,OE,p,3402,alt
CVOE updated,81,1,3,86,J 88,Number,N,FALSE,OE,p,1485,alt
CVOE updated,81,1,3,87,O 32,Letter,Y,TRUE,CV,p,1189,alt
CVOE updated,81,1,3,88,P 95,Letter,N,TRUE,CV,q,1473,alt
CVOE updated,81,1,3,89,S 98,Number,Y,FALSE,OE,p,1321,alt
CVOE updated,81,1,3,90,U 37,Number,N,FALSE,OE,q,1160,alt
CVOE updated,81,1,3,91,A 56,Letter,Y,TRUE,CV,p,1053,alt
CVOE updated,81,1,3,92,D 57,Letter,N,TRUE,CV,q,1182,alt
CVOE updated,81,1,3,93,E 93,Number,Y,FALSE,OE,q,1658,alt
CVOE updated,81,1,3,94,H 27,Number,N,TRUE,OE,q,955,alt
CVOE updated,81,1,3,95,I 35,Letter,Y,FALSE,CV,p,952,alt
CVOE updated,81,1,3,96,J 03,Letter,N,TRUE,CV,q,829,alt
CVOE updated,81,1,3,97,O 28,Number,Y,TRUE,OE,p,999,alt
CVOE updated,81,1,3,98,P 59,Number,N,TRUE,OE,q,1354,alt
CVOE updated,81,1,3,99,S 77,Letter,Y,TRUE,CV,q,1928,alt
CVOE updated,81,1,3,100,U 05,Letter,N,FALSE,CV,p,1301,alt
CVOE updated,81,1,3,101,A 56,Number,Y,TRUE,OE,p,1637,alt
CVOE updated,81,1,3,102,D 01,Number,N,TRUE,OE,q,1207,alt
CVOE updated,81,1,3,103,E 02,Letter,Y,TRUE,CV,p,3210,alt
CVOE updated,81,1,3,104,H 68,Letter,N,FALSE,CV,q,764,alt
CVOE updated,81,1,3,105,I 05,Number,Y,FALSE,OE,q,1185,alt
CVOE updated,81,1,3,106,J 55,Number,N,TRUE,OE,q,1117,alt
CVOE updated,81,1,3,107,O 73,Letter,Y,FALSE,CV,q,1867,alt
CVOE updated,81,1,3,108,P 41,Letter,N,TRUE,CV,q,1084,alt
CVOE updated,81,1,3,109,S 92,Number,Y,FALSE,OE,p,1132,alt
CVOE updated,81,1,3,110,U 34,Number,N,TRUE,OE,p,1489,alt
CVOE updated,81,1,3,111,A 09,Letter,Y,FALSE,CV,p,2425,alt
CVOE updated,81,1,3,112,D 92,Letter,N,FALSE,CV,q,932,alt
CVOE updated,81,1,3,113,E 48,Number,Y,TRUE,OE,p,1154,alt
CVOE updated,81,1,3,114,H 76,Number,N,FALSE,OE,p,1239,alt
CVOE updated,81,1,3,115,I 44,Letter,Y,TRUE,CV,p,1177,alt
CVOE updated,81,1,3,116,J 67,Letter,N,TRUE,CV,q,1965,alt
CVOE updated,81,1,3,117,O 48,Number,Y,TRUE,OE,p,2601,alt
CVOE updated,81,1,3,118,P 22,Number,N,FALSE,OE,p,948,alt
CVOE updated,81,1,3,119,S 86,Letter,Y,FALSE,CV,q,1090,alt
CVOE updated,81,1,3,120,U 35,Letter,N,FALSE,CV,p,1409,alt
CVOE updated,81,1,3,121,A 91,Number,Y,FALSE,OE,q,1844,alt
CVOE updated,81,1,3,122,D 78,Number,N,FALSE,OE,p,1285,alt
CVOE updated,81,1,3,123,E 91,Letter,Y,FALSE,CV,p,1261,alt
CVOE updated,81,1,3,124,H 54,Letter,N,FALSE,CV,q,718,alt
CVOE updated,81,1,3,125,I 65,Number,Y,FALSE,OE,q,1564,alt
CVOE updated,81,1,3,126,J 52,Number,N,FALSE,OE,p,1241,alt
CVOE updated,81,1,3,127,O 19,Letter,Y,FALSE,CV,p,1706,alt
CVOE updated,81,1,3,128,P 48,Letter,N,FALSE,CV,q,1322,alt
CVOE updated,81,1,3,129,S 45,Number,Y,TRUE,OE,q,1168,alt
CVOE updated,81,1,3,130,U 26,Number,N,TRUE,OE,p,1213,alt
CVOE updated,81,1,4,1,U 38,Number,N,TRUE,OE,p,7737,shuf
CVOE updated,81,1,4,2,P 73,Number,N,TRUE,OE,q,1086,shuf
CVOE updated,81,1,4,3,U 95,Letter,Y,FALSE,CV,p,806,shuf
CVOE updated,81,1,4,4,J 61,Number,Y,TRUE,OE,q,1138,shuf
CVOE updated,81,1,4,5,D 51,Number,N,TRUE,OE,q,1063,shuf
CVOE updated,81,1,4,6,S 28,Number,N,FALSE,OE,p,1096,shuf
CVOE updated,81,1,4,7,A 56,Letter,Y,TRUE,CV,p,831,shuf
CVOE updated,81,1,4,8,H 78,Letter,N,FALSE,CV,q,833,shuf
CVOE updated,81,1,4,9,P 92,Letter,N,FALSE,CV,q,1115,shuf
CVOE updated,81,1,4,10,E 05,Number,Y,FALSE,OE,q,954,shuf
CVOE updated,81,1,4,11,P 57,Letter,Y,TRUE,CV,q,2111,shuf
CVOE updated,81,1,4,12,D 88,Number,Y,FALSE,OE,p,1725,shuf
CVOE updated,81,1,4,13,O 89,Letter,Y,FALSE,CV,p,1108,shuf
CVOE updated,81,1,4,14,U 43,Number,Y,FALSE,OE,q,1211,shuf
CVOE updated,81,1,4,15,H 10,Number,N,FALSE,OE,p,1038,shuf
CVOE updated,81,1,4,16,S 07,Letter,Y,TRUE,CV,q,1048,shuf
CVOE updated,81,1,4,17,J 10,Letter,N,FALSE,CV,q,1153,shuf
CVOE updated,81,1,4,18,H 54,Number,Y,FALSE,OE,p,1286,shuf
CVOE updated,81,1,4,19,E 99,Number,N,FALSE,OE,q,1054,shuf
CVOE updated,81,1,4,20,J 36,Letter,Y,FALSE,CV,q,1159,shuf
CVOE updated,81,1,4,21,I 94,Letter,N,TRUE,CV,p,1532,shuf
CVOE updated,81,1,4,22,A 82,Letter,N,TRUE,CV,p,929,shuf
CVOE updated,81,1,4,23,H 79,Number,Y,TRUE,OE,q,1463,shuf
CVOE updated,81,1,4,24,J 60,Number,N,FALSE,OE,p,992,shuf
CVOE updated,81,1,4,25,S 28,Letter,Y,FALSE,CV,q,1132,shuf
CVOE updated,81,1,4,26,P 11,Number,Y,TRUE,OE,q,1322,shuf
CVOE updated,81,1,4,27,D 39,Number,N,TRUE,OE,q,1160,shuf
CVOE updated,81,1,4,28,E 90,Number,N,TRUE,OE,p,1453,shuf
CVOE updated,81,1,4,29,I 38,Number,N,TRUE,OE,p,1334,shuf
CVOE updated,81,1,4,30,S 35,Letter,Y,TRUE,CV,q,1428,shuf
CVOE updated,81,1,4,31,D 41,Number,Y,TRUE,OE,q,1374,shuf
CVOE updated,81,1,4,32,E 06,Number,N,TRUE,OE,p,1002,shuf
CVOE updated,81,1,4,33,A 27,Number,N,FALSE,OE,q,1445,shuf
CVOE updated,81,1,4,34,U 95,Letter,Y,FALSE,CV,p,967,shuf
CVOE updated,81,1,4,35,A 53,Letter,N,FALSE,CV,p,1147,shuf
CVOE updated,81,1,4,36,E 43,Letter,N,FALSE,CV,p,1120,shuf
CVOE updated,81,1,4,37,P 05,Number,Y,TRUE,OE,q,1295,shuf
CVOE updated,81,1,4,38,O 19,Letter,Y,FALSE,CV,p,838,shuf
CVOE updated,81,1,4,39,I 96,Number,Y,TRUE,OE,p,1528,shuf
CVOE updated,81,1,4,40,A 88,Number,N,TRUE,OE,p,1190,shuf
CVOE updated,81,1,4,41,I 67,Number,N,FALSE,OE,q,1130,shuf
CVOE updated,81,1,4,42,D 40,Number,N,FALSE,OE,p,984,shuf
CVOE updated,81,1,4,43,P 79,Letter,Y,TRUE,CV,q,996,shuf
CVOE updated,81,1,4,44,U 24,Number,Y,TRUE,OE,p,1423,shuf
CVOE updated,81,1,4,45,P 74,Number,N,FALSE,OE,p,1393,shuf
CVOE updated,81,1,4,46,E 70,Number,N,TRUE,OE,p,725,shuf
CVOE updated,81,1,4,47,S 27,Number,N,TRUE,OE,q,651,shuf
CVOE updated,81,1,4,48,E 54,Letter,Y,TRUE,CV,p,2396,shuf
CVOE updated,81,1,4,49,A 53,Letter,N,FALSE,CV,p,791,shuf
CVOE updated,81,1,4,50,P 34,Letter,N,FALSE,CV,q,747,shuf
CVOE updated,81,1,4,51,D 74,Number,Y,FALSE,OE,p,824,shuf
CVOE updated,81,1,4,52,A 03,Letter,Y,FALSE,CV,p,899,shuf
CVOE updated,81,1,4,53,E 24,Number,Y,TRUE,OE,p,1162,shuf
CVOE updated,81,1,4,54,I 58,Letter,Y,TRUE,CV,p,1566,shuf
CVOE updated,81,1,4,55,D 77,Number,Y,TRUE,OE,q,595,shuf
CVOE updated,81,1,4,56,S 75,Number,N,TRUE,OE,q,694,shuf
CVOE updated,81,1,4,57,I 20,Letter,Y,TRUE,CV,p,957,shuf
CVOE updated,81,1,4,58,J 52,Letter,N,FALSE,CV,q,931,shuf
CVOE updated,81,1,4,59,A 38,Number,Y,TRUE,OE,p,1377,shuf
CVOE updated,81,1,4,60,I 60,Letter,Y,TRUE,CV,p,1188,shuf
CVOE updated,81,1,4,61,S 51,Number,Y,TRUE,OE,q,1152,shuf
CVOE updated,81,1,4,62,D 63,Letter,Y,TRUE,CV,q,1022,shuf
CVOE updated,81,1,4,63,U 27,Letter,N,FALSE,CV,p,1432,shuf
CVOE updated,81,1,4,64,J 77,Letter,N,TRUE,CV,q,1250,shuf
CVOE updated,81,1,4,65,O 15,Number,Y,FALSE,OE,q,1059,shuf
CVOE updated,81,1,4,66,J 20,Letter,Y,FALSE,CV,q,1076,shuf
CVOE updated,81,1,4,67,U 97,Number,Y,FALSE,OE,q,2372,shuf
CVOE updated,81,1,4,68,H 03,Number,N,TRUE,OE,q,1608,shuf
CVOE updated,81,1,4,69,O 04,Letter,Y,TRUE,CV,p,1163,shuf
CVOE updated,81,1,4,70,E 10,Letter,N,TRUE,CV,p,968,shuf
CVOE updated,81,1,4,71,I 52,Letter,N,TRUE,CV,p,748,shuf
CVOE updated,81,1,4,72,H 81,Number,Y,TRUE,OE,q,938,shuf
CVOE updated,81,1,4,73,I 41,Number,N,FALSE,OE,q,992,shuf
CVOE updated,81,1,4,74,U 19,Letter,Y,FALSE,CV,p,2147,shuf
CVOE updated,81,1,4,75,O 17,Number,Y,FALSE,OE,q,2025,shuf
CVOE updated,81,1,4,76,A 10,Number,N,TRUE,OE,p,1539,shuf
CVOE updated,81,1,4,77,P 93,Letter,Y,TRUE,CV,q,2465,shuf
CVOE updated,81,1,4,78,E 59,Letter,N,FALSE,CV,p,1137,shuf
CVOE updated,81,1,4,79,O 53,Letter,N,FALSE,CV,p,679,shuf
CVOE updated,81,1,4,80,A 96,Letter,N,TRUE,CV,p,727,shuf
CVOE updated,81,1,4,81,H 36,Letter,Y,FALSE,CV,q,901,shuf
CVOE updated,81,1,4,82,A 63,Letter,N,FALSE,CV,p,668,shuf
CVOE updated,81,1,4,83,I 38,Letter,N,TRUE,CV,p,853,shuf
CVOE updated,81,1,4,84,O 51,Number,Y,FALSE,OE,q,1038,shuf
CVOE updated,81,1,4,85,J 26,Number,N,FALSE,OE,p,848,shuf
CVOE updated,81,1,4,86,S 34,Letter,Y,FALSE,CV,q,865,shuf
CVOE updated,81,1,4,87,U 85,Number,Y,FALSE,OE,q,1290,shuf
CVOE updated,81,1,4,88,J 77,Number,N,TRUE,OE,q,1026,shuf
CVOE updated,81,1,4,89,I 73,Letter,Y,FALSE,CV,p,1340,shuf
CVOE updated,81,1,4,90,H 46,Number,Y,FALSE,OE,p,978,shuf
CVOE updated,81,1,4,91,D 04,Number,N,FALSE,OE,p,965,shuf
CVOE updated,81,1,4,92,P 72,Letter,Y,FALSE,CV,q,1963,shuf
CVOE updated,81,1,4,93,D 99,Number,Y,TRUE,OE,q,1214,shuf
CVOE updated,81,1,4,94,U 25,Letter,Y,FALSE,CV,p,1641,shuf
CVOE updated,81,1,4,95,O 32,Letter,N,TRUE,CV,p,980,shuf
CVOE updated,81,1,4,96,E 80,Letter,N,TRUE,CV,p,767,shuf
CVOE updated,81,1,4,97,O 84,Number,Y,TRUE,OE,p,1227,shuf
CVOE updated,81,1,4,98,A 78,Number,N,TRUE,OE,q,1013,shuf
CVOE updated,81,1,4,99,S 05,Number,N,TRUE,OE,q,1952,shuf
CVOE updated,81,1,4,100,U 35,Letter,Y,FALSE,CV,q,1213,shuf
CVOE updated,81,1,4,101,H 14,Letter,N,FALSE,CV,q,2399,shuf
CVOE updated,81,1,4,102,U 15,Number,Y,FALSE,OE,q,1291,shuf
CVOE updated,81,1,4,103,E 36,Letter,Y,TRUE,CV,p,874,shuf
CVOE updated,81,1,4,104,P 70,Letter,N,FALSE,CV,q,1275,shuf
CVOE updated,81,1,4,105,O 44,Number,Y,TRUE,OE,p,1196,shuf
CVOE updated,81,1,4,106,S 41,Letter,Y,TRUE,CV,q,2071,shuf
CVOE updated,81,1,4,107,D 83,Letter,N,TRUE,CV,q,1119,shuf
CVOE updated,81,1,4,108,J 39,Letter,N,TRUE,CV,q,726,shuf
CVOE updated,81,1,4,109,S 22,Number,Y,FALSE,OE,p,2596,shuf
CVOE updated,81,1,4,110,D 89,Letter,Y,TRUE,CV,q,2327,shuf
CVOE updated,81,1,4,111,P 87,Letter,N,TRUE,CV,q,789,shuf
CVOE updated,81,1,4,112,H 42,Letter,N,FALSE,CV,q,769,shuf
CVOE updated,81,1,4,113,S 49,Letter,N,TRUE,CV,q,709,shuf
CVOE updated,81,1,4,114,J 20,Number,Y,FALSE,OE,p,1604,shuf
CVOE updated,81,1,4,115,O 19,Letter,Y,FALSE,CV,p,1351,shuf
CVOE updated,81,1,4,116,H 50,Letter,N,FALSE,CV,q,1572,shuf
CVOE updated,81,1,4,117,I 68,Number,Y,TRUE,OE,p,4833,shuf
CVOE updated,81,1,4,118,J 72,Number,N,FALSE,OE,p,1482,shuf
CVOE updated,81,1,4,119,O 21,Number,N,FALSE,OE,q,2410,shuf
CVOE updated,81,1,4,120,H 22,Number,N,FALSE,OE,p,1493,shuf
CVOE updated,85,1,1,11,A 71,,,FALSE,CV,p,1981,cv
CVOE updated,85,1,1,12,I 66,,,TRUE,CV,p,585,cv
CVOE updated,85,1,1,13,S 30,,,FALSE,CV,q,492,cv
CVOE updated,85,1,1,14,D 20,,,FALSE,CV,q,932,cv
CVOE updated,85,1,1,15,I 31,,,FALSE,CV,p,554,cv
CVOE updated,85,1,1,16,P 16,,,FALSE,CV,q,823,cv
CVOE updated,85,1,1,17,A 49,,,FALSE,CV,p,865,cv
CVOE updated,85,1,1,18,O 64,,,TRUE,CV,p,1674,cv
CVOE updated,85,1,1,19,D 02,,,FALSE,CV,q,603,cv
CVOE updated,85,1,1,20,P 81,,,TRUE,CV,q,1454,cv
CVOE updated,85,1,1,21,J 58,,,FALSE,CV,q,655,cv
CVOE updated,85,1,1,22,A 22,,,TRUE,CV,p,448,cv
CVOE updated,85,1,1,23,J 72,,,FALSE,CV,q,826,cv
CVOE updated,85,1,1,24,P 91,,,TRUE,CV,p,532,cv
CVOE updated,85,1,1,25,E 19,,,FALSE,CV,p,938,cv
CVOE updated,85,1,1,26,I 30,,,TRUE,CV,p,1120,cv
CVOE updated,85,1,1,27,D 91,,,TRUE,CV,q,766,cv
CVOE updated,85,1,1,28,O 48,,,TRUE,CV,p,1371,cv
CVOE updated,85,1,1,29,A 89,,,FALSE,CV,p,1136,cv
CVOE updated,85,1,1,30,U 11,,,FALSE,CV,p,589,cv
CVOE updated,85,1,1,31,I 76,,,TRUE,CV,p,537,cv
CVOE updated,85,1,1,32,U 89,,,FALSE,CV,p,1063,cv
CVOE updated,85,1,1,33,D 63,,,TRUE,CV,q,664,cv
CVOE updated,85,1,1,34,H 70,,,FALSE,CV,q,488,cv
CVOE updated,85,1,1,35,D 48,,,FALSE,CV,q,960,cv
CVOE updated,85,1,1,36,P 56,,,FALSE,CV,q,389,cv
CVOE updated,85,1,1,37,O 77,,,FALSE,CV,p,953,cv
CVOE updated,85,1,1,38,P 42,,,FALSE,CV,q,742,cv
CVOE updated,85,1,1,39,H 22,,,FALSE,CV,q,956,cv
CVOE updated,85,1,1,40,E 42,,,TRUE,CV,p,601,cv
CVOE updated,85,1,1,41,J 28,,,FALSE,CV,q,573,cv
CVOE updated,85,1,1,42,E 95,,,FALSE,CV,p,881,cv
CVOE updated,85,1,1,43,S 63,,,TRUE,CV,q,673,cv
CVOE updated,85,1,1,44,H 50,,,FALSE,CV,q,434,cv
CVOE updated,85,1,1,45,S 33,,,TRUE,CV,q,460,cv
CVOE updated,85,1,1,46,P 57,,,TRUE,CV,q,1052,cv
CVOE updated,85,1,1,47,E 23,,,FALSE,CV,p,765,cv
CVOE updated,85,1,1,48,S 61,,,TRUE,CV,q,1050,cv
CVOE updated,85,1,1,49,U 67,,,FALSE,CV,p,683,cv
CVOE updated,85,1,1,50,H 32,,,FALSE,CV,q,587,cv
CVOE updated,85,1,1,51,U 50,,,TRUE,CV,p,647,cv
CVOE updated,85,1,1,52,O 49,,,FALSE,CV,p,496,cv
CVOE updated,85,1,1,53,U 32,,,TRUE,CV,p,496,cv
CVOE updated,85,1,1,54,J 78,,,FALSE,CV,q,367,cv
CVOE updated,85,1,1,55,S 54,,,FALSE,CV,p,515,cv
CVOE updated,85,1,1,56,J 27,,,TRUE,CV,q,698,cv
CVOE updated,85,1,1,57,S 06,,,FALSE,CV,q,649,cv
CVOE updated,85,1,1,58,D 67,,,TRUE,CV,q,522,cv
CVOE updated,85,1,1,59,A 79,,,FALSE,CV,p,921,cv
CVOE updated,85,1,1,60,S 52,,,FALSE,CV,q,496,cv
CVOE updated,85,1,1,61,U 16,,,TRUE,CV,p,719,cv
CVOE updated,85,1,1,62,O 82,,,TRUE,CV,p,605,cv
CVOE updated,85,1,1,63,H 87,,,TRUE,CV,q,457,cv
CVOE updated,85,1,1,64,I 32,,,TRUE,CV,p,802,cv
CVOE updated,85,1,1,65,U 37,,,FALSE,CV,p,1461,cv
CVOE updated,85,1,1,66,I 42,,,TRUE,CV,p,1030,cv
CVOE updated,85,1,1,67,D 65,,,TRUE,CV,q,432,cv
CVOE updated,85,1,1,68,U 77,,,FALSE,CV,p,530,cv
CVOE updated,85,1,1,69,E 12,,,TRUE,CV,p,984,cv
CVOE updated,85,1,1,70,I 60,,,TRUE,CV,p,475,cv
CVOE updated,85,1,1,71,J 36,,,FALSE,CV,q,468,cv
CVOE updated,85,1,1,72,H 75,,,TRUE,CV,q,365,cv
CVOE updated,85,1,1,73,I 50,,,TRUE,CV,p,593,cv
CVOE updated,85,1,1,74,E 99,,,FALSE,CV,p,924,cv
CVOE updated,85,1,1,75,A 86,,,TRUE,CV,p,603,cv
CVOE updated,85,1,1,76,U 48,,,TRUE,CV,p,590,cv
CVOE updated,85,1,1,77,E 01,,,FALSE,CV,p,1226,cv
CVOE updated,85,1,1,78,A 78,,,TRUE,CV,p,588,cv
CVOE updated,85,1,1,79,P 60,,,FALSE,CV,q,768,cv
CVOE updated,85,1,1,80,E 43,,,FALSE,CV,p,637,cv
CVOE updated,85,1,1,81,D 69,,,TRUE,CV,q,439,cv
CVOE updated,85,1,1,82,H 11,,,TRUE,CV,q,472,cv
CVOE updated,85,1,1,83,P 43,,,TRUE,CV,q,633,cv
CVOE updated,85,1,1,84,O 67,,,FALSE,CV,p,819,cv
CVOE updated,85,1,1,85,S 91,,,FALSE,CV,q,598,cv
CVOE updated,85,1,1,86,J 68,,,TRUE,CV,q,489,cv
CVOE updated,85,1,1,87,S 47,,,FALSE,CV,q,577,cv
CVOE updated,85,1,1,88,I 81,,,TRUE,CV,p,661,cv
CVOE updated,85,1,1,89,J 39,,,FALSE,CV,q,557,cv
CVOE updated,85,1,1,90,A 11,,,TRUE,CV,p,555,cv
CVOE updated,85,1,1,91,O 76,,,FALSE,CV,p,1336,cv
CVOE updated,85,1,1,92,A 62,,,FALSE,CV,p,534,cv
CVOE updated,85,1,1,93,O 27,,,TRUE,CV,p,452,cv
CVOE updated,85,1,1,94,E 66,,,FALSE,CV,p,517,cv
CVOE updated,85,1,1,95,J 62,,,TRUE,CV,q,443,cv
CVOE updated,85,1,1,96,H 72,,,TRUE,CV,q,429,cv
CVOE updated,85,1,1,97,E 49,,,TRUE,CV,p,559,cv
CVOE updated,85,1,1,98,D 52,,,TRUE,CV,q,676,cv
CVOE updated,85,1,1,99,H 62,,,TRUE,CV,q,436,cv
CVOE updated,85,1,1,100,I 11,,,TRUE,CV,p,670,cv
CVOE updated,85,1,1,101,A 98,,,FALSE,CV,p,1014,cv
CVOE updated,85,1,1,102,H 29,,,FALSE,CV,q,481,cv
CVOE updated,85,1,1,103,E 83,,,TRUE,CV,p,521,cv
CVOE updated,85,1,1,104,D 43,,,FALSE,CV,q,431,cv
CVOE updated,85,1,1,105,P 45,,,TRUE,CV,q,545,cv
CVOE updated,85,1,1,106,J 17,,,TRUE,CV,q,815,cv
CVOE updated,85,1,2,11,A 24,,,TRUE,OE,p,2036,oe
CVOE updated,85,1,2,12,O 83,,,FALSE,OE,q,630,oe
CVOE updated,85,1,2,13,H 55,,,TRUE,OE,q,864,oe
CVOE updated,85,1,2,14,P 10,,,FALSE,OE,p,912,oe
CVOE updated,85,1,2,15,D 30,,,FALSE,OE,p,655,oe
CVOE updated,85,1,2,16,U 62,,,TRUE,OE,p,3944,oe
CVOE updated,85,1,2,17,P 95,,,TRUE,OE,q,1157,oe
CVOE updated,85,1,2,18,U 06,,,TRUE,OE,p,1171,oe
CVOE updated,85,1,2,19,E 75,,,FALSE,OE,q,2463,oe
CVOE updated,85,1,2,20,I 67,,,FALSE,OE,q,1008,oe
CVOE updated,85,1,2,21,S 13,,,TRUE,OE,q,691,oe
CVOE updated,85,1,2,22,P 78,,,FALSE,OE,p,939,oe
CVOE updated,85,1,2,23,I 15,,,FALSE,OE,q,1081,oe
CVOE updated,85,1,2,24,D 27,,,TRUE,OE,q,1745,oe
CVOE updated,85,1,2,25,O 94,,,TRUE,OE,p,2686,oe
CVOE updated,85,1,2,26,A 65,,,FALSE,OE,q,829,oe
CVOE updated,85,1,2,27,I 42,,,TRUE,OE,p,1583,oe
CVOE updated,85,1,2,28,E 25,,,FALSE,OE,q,1931,oe
CVOE updated,85,1,2,29,H 49,,,TRUE,OE,q,1553,oe
CVOE updated,85,1,2,30,S 18,,,FALSE,OE,p,838,oe
CVOE updated,85,1,2,31,H 51,,,TRUE,OE,q,824,oe
CVOE updated,85,1,2,32,U 14,,,TRUE,OE,p,963,oe
CVOE updated,85,1,2,33,E 02,,,TRUE,OE,p,1743,oe
CVOE updated,85,1,2,34,J 26,,,FALSE,OE,p,932,oe
CVOE updated,85,1,2,35,D 24,,,FALSE,OE,p,618,oe
CVOE updated,85,1,2,36,O 50,,,TRUE,OE,p,1325,oe
CVOE updated,85,1,2,37,U 16,,,TRUE,OE,p,947,oe
CVOE updated,85,1,2,38,O 15,,,FALSE,OE,q,1913,oe
CVOE updated,85,1,2,39,D 32,,,FALSE,OE,p,1303,oe
CVOE updated,85,1,2,40,S 67,,,TRUE,OE,q,870,oe
CVOE updated,85,1,2,41,J 74,,,FALSE,OE,p,1447,oe
CVOE updated,85,1,2,42,D 92,,,FALSE,OE,p,840,oe
CVOE updated,85,1,2,43,A 65,,,FALSE,OE,q,1026,oe
CVOE updated,85,1,2,44,I 87,,,FALSE,OE,q,732,oe
CVOE updated,85,1,2,45,H 61,,,TRUE,OE,q,586,oe
CVOE updated,85,1,2,46,E 59,,,FALSE,OE,q,998,oe
CVOE updated,85,1,2,47,I 33,,,FALSE,OE,q,1522,oe
CVOE updated,85,1,2,48,O 90,,,TRUE,OE,p,1073,oe
CVOE updated,85,1,2,49,U 51,,,FALSE,OE,q,752,oe
CVOE updated,85,1,2,50,A 10,,,TRUE,OE,p,629,oe
CVOE updated,85,1,2,51,E 50,,,TRUE,OE,p,575,oe
CVOE updated,85,1,2,52,D 92,,,FALSE,OE,p,956,oe
CVOE updated,85,1,2,53,E 60,,,TRUE,OE,p,544,oe
CVOE updated,85,1,2,54,A 95,,,FALSE,OE,q,823,oe
CVOE updated,85,1,2,55,E 64,,,TRUE,OE,p,2081,oe
CVOE updated,85,1,2,56,P 20,,,FALSE,OE,p,569,oe
CVOE updated,85,1,2,57,S 06,,,FALSE,OE,p,606,oe
CVOE updated,85,1,2,58,P 64,,,FALSE,OE,p,553,oe
CVOE updated,85,1,2,59,U 70,,,TRUE,OE,p,878,oe
CVOE updated,85,1,2,60,S 16,,,FALSE,OE,p,998,oe
CVOE updated,85,1,2,61,E 35,,,FALSE,OE,q,1225,oe
CVOE updated,85,1,2,62,I 93,,,FALSE,OE,q,708,oe
CVOE updated,85,1,2,63,D 63,,,TRUE,OE,q,451,oe
CVOE updated,85,1,2,64,U 89,,,FALSE,OE,q,835,oe
CVOE updated,85,1,2,65,E 91,,,FALSE,OE,q,862,oe
CVOE updated,85,1,2,66,A 12,,,TRUE,OE,p,551,oe
CVOE updated,85,1,2,67,P 56,,,FALSE,OE,p,1028,oe
CVOE updated,85,1,2,68,S 65,,,TRUE,OE,q,862,oe
CVOE updated,85,1,2,69,P 07,,,TRUE,OE,q,1479,oe
CVOE updated,85,1,2,70,I 77,,,FALSE,OE,q,550,oe
CVOE updated,85,1,2,71,J 19,,,TRUE,OE,q,788,oe
CVOE updated,85,1,2,72,O 59,,,FALSE,OE,q,560,oe
CVOE updated,85,1,2,73,J 15,,,TRUE,OE,q,1164,oe
CVOE updated,85,1,2,74,I 89,,,FALSE,OE,q,545,oe
CVOE updated,85,1,2,75,O 97,,,FALSE,OE,q,486,oe
CVOE updated,85,1,2,76,A 92,,,TRUE,OE,p,1078,oe
CVOE updated,85,1,2,77,J 90,,,FALSE,OE,p,574,oe
CVOE updated,85,1,2,78,H 65,,,TRUE,OE,q,834,oe
CVOE updated,85,1,2,79,H 17,,,TRUE,OE,q,452,oe
CVOE updated,85,1,2,80,S 26,,,FALSE,OE,p,934,oe
CVOE updated,85,1,2,81,D 56,,,FALSE,OE,p,716,oe
CVOE updated,85,1,2,82,I 91,,,FALSE,OE,q,522,oe
CVOE updated,85,1,2,83,J 11,,,TRUE,OE,q,841,oe
CVOE updated,85,1,2,84,O 28,,,TRUE,OE,p,867,oe
CVOE updated,85,1,2,85,H 29,,,TRUE,OE,q,515,oe
CVOE updated,85,1,2,86,J 25,,,TRUE,OE,q,1122,oe
CVOE updated,85,1,2,87,A 73,,,FALSE,OE,q,480,oe
CVOE updated,85,1,2,88,J 63,,,TRUE,OE,q,528,oe
CVOE updated,85,1,2,89,U 84,,,TRUE,OE,p,606,oe
CVOE updated,85,1,2,90,A 58,,,TRUE,OE,p,577,oe
CVOE updated,85,1,2,91,S 43,,,TRUE,OE,q,565,oe
CVOE updated,85,1,2,92,H 54,,,FALSE,OE,p,562,oe
CVOE updated,85,1,2,93,D 4,,,FALSE,OE,p,679,oe
CVOE updated,85,1,2,94,J 75,,,TRUE,OE,q,590,oe
CVOE updated,85,1,2,95,D 19,,,TRUE,OE,q,714,oe
