ExperimentName,Subject,Group,Block,Trial,STIM,TASK,Switch,Congruent,CVOE,Response,RT,block_type,letter,number,key2,response2,match2,score2,score
CVOE updated,37,1,1,11,A 71,,,FALSE,CV,p,1180,cv,A,1,v,v,TRUE,1,1
CVOE updated,37,1,1,12,I 66,,,TRUE,CV,p,810,cv,I,6,v,v,TRUE,1,1
CVOE updated,37,1,1,13,S 30,,,FALSE,CV,q,590,cv,S,0,c,c,TRUE,1,1
CVOE updated,37,1,1,14,D 20,,,FALSE,CV,q,747,cv,D,0,c,c,TRUE,1,1
CVOE updated,37,1,1,15,I 31,,,FALSE,CV,p,577,cv,I,1,v,v,TRUE,1,1
CVOE updated,37,1,1,16,P 16,,,FALSE,CV,q,612,cv,P,6,c,c,TRUE,1,1
CVOE updated,37,1,1,17,A 49,,,FALSE,CV,p,599,cv,A,9,v,v,TRUE,1,1
CVOE updated,37,1,1,18,O 64,,,TRUE,CV,p,672,cv,O,4,v,v,TRUE,1,1
CVOE updated,37,1,1,19,D 02,,,FALSE,CV,q,630,cv,D,2,c,c,TRUE,1,1
CVOE updated,37,1,1,20,P 81,,,TRUE,CV,q,835,cv,P,1,c,c,TRUE,1,1
CVOE updated,37,1,1,21,J 58,,,FALSE,CV,q,684,cv,J,8,c,c,TRUE,1,1
CVOE updated,37,1,1,22,A 22,,,TRUE,CV,p,564,cv,A,2,v,v,TRUE,1,1
CVOE updated,37,1,1,23,J 72,,,FALSE,CV,q,1717,cv,J,2,c,c,TRUE,1,1
CVOE updated,37,1,1,24,P 91,,,TRUE,CV,q,894,cv,P,1,c,c,TRUE,1,1
CVOE updated,37,1,1,25,E 19,,,FALSE,CV,p,1081,cv,E,9,v,v,TRUE,1,1
CVOE updated,37,1,1,26,I 30,,,TRUE,CV,q,1009,cv,I,0,v,c,FALSE,0,0
CVOE updated,37,1,1,27,D 91,,,TRUE,CV,q,1045,cv,D,1,c,c,TRUE,1,1
CVOE updated,37,1,1,28,O 48,,,TRUE,CV,p,589,cv,O,8,v,v,TRUE,1,1
CVOE updated,37,1,1,29,A 89,,,FALSE,CV,p,651,cv,A,9,v,v,TRUE,1,1
CVOE updated,37,1,1,30,U 11,,,FALSE,CV,p,806,cv,U,1,v,v,TRUE,1,1
CVOE updated,37,1,1,31,I 76,,,TRUE,CV,p,631,cv,I,6,v,v,TRUE,1,1
CVOE updated,37,1,1,32,U 89,,,FALSE,CV,p,580,cv,U,9,v,v,TRUE,1,1
CVOE updated,37,1,1,33,D 63,,,TRUE,CV,q,602,cv,D,3,c,c,TRUE,1,1
CVOE updated,37,1,1,34,H 70,,,FALSE,CV,q,1115,cv,H,0,c,c,TRUE,1,1
CVOE updated,37,1,1,35,D 48,,,FALSE,CV,q,955,cv,D,8,c,c,TRUE,1,1
CVOE updated,37,1,1,36,P 56,,,FALSE,CV,q,1236,cv,P,6,c,c,TRUE,1,1
CVOE updated,37,1,1,37,O 77,,,FALSE,CV,p,1037,cv,O,7,v,v,TRUE,1,1
CVOE updated,37,1,1,38,P 42,,,FALSE,CV,q,917,cv,P,2,c,c,TRUE,1,1
CVOE updated,37,1,1,39,H 22,,,FALSE,CV,q,1286,cv,H,2,c,c,TRUE,1,1
CVOE updated,37,1,1,40,E 42,,,TRUE,CV,p,726,cv,E,2,v,v,TRUE,1,1
CVOE updated,37,1,1,41,J 28,,,FALSE,CV,q,1183,cv,J,8,c,c,TRUE,1,1
CVOE updated,37,1,1,42,E 95,,,FALSE,CV,p,781,cv,E,5,v,v,TRUE,1,1
CVOE updated,37,1,1,43,S 63,,,TRUE,CV,q,1043,cv,S,3,c,c,TRUE,1,1
CVOE updated,37,1,1,44,H 50,,,FALSE,CV,q,1259,cv,H,0,c,c,TRUE,1,1
CVOE updated,37,1,1,45,S 33,,,TRUE,CV,q,1151,cv,S,3,c,c,TRUE,1,1
CVOE updated,37,1,1,46,P 57,,,TRUE,CV,q,565,cv,P,7,c,c,TRUE,1,1
CVOE updated,37,1,1,47,E 23,,,FALSE,CV,p,805,cv,E,3,v,v,TRUE,1,1
CVOE updated,37,1,1,48,S 61,,,TRUE,CV,q,517,cv,S,1,c,c,TRUE,1,1
CVOE updated,37,1,1,49,U 67,,,FALSE,CV,p,910,cv,U,7,v,v,TRUE,1,1
CVOE updated,37,1,1,50,H 32,,,FALSE,CV,q,596,cv,H,2,c,c,TRUE,1,1
CVOE updated,37,1,1,51,U 50,,,TRUE,CV,p,836,cv,U,0,v,v,TRUE,1,1
CVOE updated,37,1,1,52,O 49,,,FALSE,CV,p,757,cv,O,9,v,v,TRUE,1,1
CVOE updated,37,1,1,53,U 32,,,TRUE,CV,p,589,cv,U,2,v,v,TRUE,1,1
CVOE updated,37,1,1,54,J 78,,,FALSE,CV,q,595,cv,J,8,c,c,TRUE,1,1
CVOE updated,37,1,1,55,S 54,,,FALSE,CV,q,715,cv,S,4,c,c,TRUE,1,1
CVOE updated,37,1,1,56,J 27,,,TRUE,CV,q,548,cv,J,7,c,c,TRUE,1,1
CVOE updated,37,1,1,57,S 06,,,FALSE,CV,q,634,cv,S,6,c,c,TRUE,1,1
CVOE updated,37,1,1,58,D 67,,,TRUE,CV,q,695,cv,D,7,c,c,TRUE,1,1
CVOE updated,37,1,1,59,A 79,,,FALSE,CV,p,586,cv,A,9,v,v,TRUE,1,1
CVOE updated,37,1,1,60,S 52,,,FALSE,CV,q,624,cv,S,2,c,c,TRUE,1,1
CVOE updated,37,1,1,61,U 16,,,TRUE,CV,p,606,cv,U,6,v,v,TRUE,1,1
CVOE updated,37,1,1,62,O 82,,,TRUE,CV,p,646,cv,O,2,v,v,TRUE,1,1
CVOE updated,37,1,1,63,H 87,,,TRUE,CV,q,543,cv,H,7,c,c,TRUE,1,1
CVOE updated,37,1,1,64,I 32,,,TRUE,CV,p,765,cv,I,2,v,v,TRUE,1,1
CVOE updated,37,1,1,65,U 37,,,FALSE,CV,p,1093,cv,U,7,v,v,TRUE,1,1
CVOE updated,37,1,1,66,I 42,,,TRUE,CV,p,1152,cv,I,2,v,v,TRUE,1,1
CVOE updated,37,1,1,67,D 65,,,TRUE,CV,q,1182,cv,D,5,c,c,TRUE,1,1
CVOE updated,37,1,1,68,U 77,,,FALSE,CV,p,716,cv,U,7,v,v,TRUE,1,1
CVOE updated,37,1,1,69,E 12,,,TRUE,CV,p,2125,cv,E,2,v,v,TRUE,1,1
CVOE updated,37,1,1,70,I 60,,,TRUE,CV,p,1310,cv,I,0,v,v,TRUE,1,1
CVOE updated,37,1,1,71,J 36,,,FALSE,CV,q,660,cv,J,6,c,c,TRUE,1,1
CVOE updated,37,1,1,72,H 75,,,TRUE,CV,q,1351,cv,H,5,c,c,TRUE,1,1
CVOE updated,37,1,1,73,I 50,,,TRUE,CV,q,756,cv,I,0,v,c,FALSE,0,0
CVOE updated,37,1,1,74,E 99,,,FALSE,CV,p,862,cv,E,9,v,v,TRUE,1,1
CVOE updated,37,1,1,75,A 86,,,TRUE,CV,q,891,cv,A,6,v,c,FALSE,0,0
CVOE updated,37,1,1,76,U 48,,,TRUE,CV,q,999,cv,U,8,v,c,FALSE,0,0
CVOE updated,37,1,1,77,E 01,,,FALSE,CV,p,815,cv,E,1,v,v,TRUE,1,1
CVOE updated,37,1,1,78,A 78,,,TRUE,CV,p,730,cv,A,8,v,v,TRUE,1,1
CVOE updated,37,1,1,79,P 60,,,FALSE,CV,q,758,cv,P,0,c,c,TRUE,1,1
CVOE updated,37,1,1,80,E 43,,,FALSE,CV,p,710,cv,E,3,v,v,TRUE,1,1
CVOE updated,37,1,1,81,D 69,,,TRUE,CV,q,796,cv,D,9,c,c,TRUE,1,1
CVOE updated,37,1,1,82,H 11,,,TRUE,CV,q,1212,cv,H,1,c,c,TRUE,1,1
CVOE updated,37,1,1,83,P 43,,,TRUE,CV,q,880,cv,P,3,c,c,TRUE,1,1
CVOE updated,37,1,1,84,O 67,,,FALSE,CV,p,952,cv,O,7,v,v,TRUE,1,1
CVOE updated,37,1,1,85,S 91,,,FALSE,CV,q,973,cv,S,1,c,c,TRUE,1,1
CVOE updated,37,1,1,86,J 68,,,TRUE,CV,q,624,cv,J,8,c,c,TRUE,1,1
CVOE updated,37,1,1,87,S 47,,,FALSE,CV,q,527,cv,S,7,c,c,TRUE,1,1
CVOE updated,37,1,1,88,I 81,,,TRUE,CV,q,678,cv,I,1,v,c,FALSE,0,0
CVOE updated,37,1,1,89,J 39,,,FALSE,CV,q,760,cv,J,9,c,c,TRUE,1,1
CVOE updated,37,1,1,90,A 11,,,TRUE,CV,p,559,cv,A,1,v,v,TRUE,1,1
CVOE updated,37,1,1,91,O 76,,,FALSE,CV,p,616,cv,O,6,v,v,TRUE,1,1
CVOE updated,37,1,1,92,A 62,,,FALSE,CV,p,579,cv,A,2,v,v,TRUE,1,1
CVOE updated,37,1,1,93,O 27,,,TRUE,CV,p,710,cv,O,7,v,v,TRUE,1,1
CVOE updated,37,1,1,94,E 66,,,FALSE,CV,p,1364,cv,E,6,v,v,TRUE,1,1
CVOE updated,37,1,1,95,J 62,,,TRUE,CV,q,1493,cv,J,2,c,c,TRUE,1,1
CVOE updated,37,1,1,96,H 72,,,TRUE,CV,q,632,cv,H,2,c,c,TRUE,1,1
CVOE updated,37,1,1,97,E 49,,,TRUE,CV,p,614,cv,E,9,v,v,TRUE,1,1
CVOE updated,37,1,1,98,D 52,,,TRUE,CV,q,1314,cv,D,2,c,c,TRUE,1,1
CVOE updated,37,1,1,99,H 62,,,TRUE,CV,q,1387,cv,H,2,c,c,TRUE,1,1
CVOE updated,37,1,1,100,I 11,,,TRUE,CV,p,737,cv,I,1,v,v,TRUE,1,1
CVOE updated,37,1,1,101,A 98,,,FALSE,CV,p,579,cv,A,8,v,v,TRUE,1,1
CVOE updated,37,1,1,102,H 29,,,FALSE,CV,q,854,cv,H,9,c,c,TRUE,1,1
CVOE updated,37,1,1,103,E 83,,,TRUE,CV,p,2353,cv,E,3,v,v,TRUE,1,1
CVOE updated,37,1,1,104,D 43,,,FALSE,CV,q,850,cv,D,3,c,c,TRUE,1,1
CVOE updated,37,1,1,105,P 45,,,TRUE,CV,q,1046,cv,P,5,c,c,TRUE,1,1
CVOE updated,37,1,1,106,J 17,,,TRUE,CV,p,1102,cv,J,7,c,v,FALSE,0,0
CVOE updated,41,1,1,11,A 71,,,FALSE,CV,p,1422,cv,A,1,v,v,TRUE,1,1
CVOE updated,41,1,1,12,I 66,,,TRUE,CV,q,797,cv,I,6,v,c,FALSE,0,0
CVOE updated,41,1,1,13,S 30,,,FALSE,CV,q,1007,cv,S,0,c,c,TRUE,1,1
CVOE updated,41,1,1,14,D 20,,,FALSE,CV,q,684,cv,D,0,c,c,TRUE,1,1
CVOE updated,41,1,1,15,I 31,,,FALSE,CV,p,389,cv,I,1,v,v,TRUE,1,1
CVOE updated,41,1,1,16,P 16,,,FALSE,CV,q,665,cv,P,6,c,c,TRUE,1,1
CVOE updated,41,1,1,17,A 49,,,FALSE,CV,p,1053,cv,A,9,v,v,TRUE,1,1
CVOE updated,41,1,1,18,O 64,,,TRUE,CV,p,570,cv,O,4,v,v,TRUE,1,1
CVOE updated,41,1,1,19,D 02,,,FALSE,CV,q,450,cv,D,2,c,c,TRUE,1,1
CVOE updated,41,1,1,20,P 81,,,TRUE,CV,q,674,cv,P,1,c,c,TRUE,1,1
CVOE updated,41,1,1,21,J 58,,,FALSE,CV,q,547,cv,J,8,c,c,TRUE,1,1
CVOE updated,41,1,1,22,A 22,,,TRUE,CV,p,514,cv,A,2,v,v,TRUE,1,1
CVOE updated,41,1,1,23,J 72,,,FALSE,CV,q,449,cv,J,2,c,c,TRUE,1,1
CVOE updated,41,1,1,24,P 91,,,TRUE,CV,q,536,cv,P,1,c,c,TRUE,1,1
CVOE updated,41,1,1,25,E 19,,,FALSE,CV,p,480,cv,E,9,v,v,TRUE,1,1
CVOE updated,41,1,1,26,I 30,,,TRUE,CV,p,606,cv,I,0,v,v,TRUE,1,1
CVOE updated,41,1,1,27,D 91,,,TRUE,CV,q,496,cv,D,1,c,c,TRUE,1,1
CVOE updated,41,1,1,28,O 48,,,TRUE,CV,p,498,cv,O,8,v,v,TRUE,1,1
CVOE updated,41,1,1,29,A 89,,,FALSE,CV,p,569,cv,A,9,v,v,TRUE,1,1
CVOE updated,41,1,1,30,U 11,,,FALSE,CV,q,425,cv,U,1,v,c,FALSE,0,0
CVOE updated,41,1,1,31,I 76,,,TRUE,CV,p,489,cv,I,6,v,v,TRUE,1,1
CVOE updated,41,1,1,32,U 89,,,FALSE,CV,p,362,cv,U,9,v,v,TRUE,1,1
CVOE updated,41,1,1,33,D 63,,,TRUE,CV,q,517,cv,D,3,c,c,TRUE,1,1
CVOE updated,41,1,1,34,H 70,,,FALSE,CV,q,472,cv,H,0,c,c,TRUE,1,1
CVOE updated,41,1,1,35,D 48,,,FALSE,CV,p,353,cv,D,8,c,v,FALSE,0,0
CVOE updated,41,1,1,36,P 56,,,FALSE,CV,q,846,cv,P,6,c,c,TRUE,1,1
CVOE updated,41,1,1,37,O 77,,,FALSE,CV,p,485,cv,O,7,v,v,TRUE,1,1
CVOE updated,41,1,1,38,P 42,,,FALSE,CV,q,606,cv,P,2,c,c,TRUE,1,1
CVOE updated,41,1,1,39,H 22,,,FALSE,CV,q,632,cv,H,2,c,c,TRUE,1,1
CVOE updated,41,1,1,40,E 42,,,TRUE,CV,p,499,cv,E,2,v,v,TRUE,1,1
CVOE updated,41,1,1,41,J 28,,,FALSE,CV,q,510,cv,J,8,c,c,TRUE,1,1
CVOE updated,41,1,1,42,E 95,,,FALSE,CV,p,471,cv,E,5,v,v,TRUE,1,1
CVOE updated,41,1,1,43,S 63,,,TRUE,CV,q,468,cv,S,3,c,c,TRUE,1,1
CVOE updated,41,1,1,44,H 50,,,FALSE,CV,p,447,cv,H,0,c,v,FALSE,0,0
CVOE updated,41,1,1,45,S 33,,,TRUE,CV,q,705,cv,S,3,c,c,TRUE,1,1
CVOE updated,41,1,1,46,P 57,,,TRUE,CV,q,442,cv,P,7,c,c,TRUE,1,1
CVOE updated,41,1,1,47,E 23,,,FALSE,CV,p,365,cv,E,3,v,v,TRUE,1,1
CVOE updated,41,1,1,48,S 61,,,TRUE,CV,q,509,cv,S,1,c,c,TRUE,1,1
CVOE updated,41,1,1,49,U 67,,,FALSE,CV,p,574,cv,U,7,v,v,TRUE,1,1
CVOE updated,41,1,1,50,H 32,,,FALSE,CV,q,458,cv,H,2,c,c,TRUE,1,1
CVOE updated,41,1,1,51,U 50,,,TRUE,CV,p,557,cv,U,0,v,v,TRUE,1,1
CVOE updated,41,1,1,52,O 49,,,FALSE,CV,p,531,cv,O,9,v,v,TRUE,1,1
CVOE updated,41,1,1,53,U 32,,,TRUE,CV,p,394,cv,U,2,v,v,TRUE,1,1
CVOE updated,41,1,1,54,J 78,,,FALSE,CV,q,430,cv,J,8,c,c,TRUE,1,1
CVOE updated,41,1,1,55,S 54,,,FALSE,CV,p,400,cv,S,4,c,v,FALSE,0,0
CVOE updated,41,1,1,56,J 27,,,TRUE,CV,q,436,cv,J,7,c,c,TRUE,1,1
CVOE updated,41,1,1,57,S 06,,,FALSE,CV,q,430,cv,S,6,c,c,TRUE,1,1
CVOE updated,41,1,1,58,D 67,,,TRUE,CV,q,466,cv,D,7,c,c,TRUE,1,1
CVOE updated,41,1,1,59,A 79,,,FALSE,CV,p,520,cv,A,9,v,v,TRUE,1,1
CVOE updated,41,1,1,60,S 52,,,FALSE,CV,q,434,cv,S,2,c,c,TRUE,1,1
CVOE updated,41,1,1,61,U 16,,,TRUE,CV,p,718,cv,U,6,v,v,TRUE,1,1
CVOE updated,41,1,1,62,O 82,,,TRUE,CV,q,418,cv,O,2,v,c,FALSE,0,0
CVOE updated,41,1,1,63,H 87,,,TRUE,CV,q,424,cv,H,7,c,c,TRUE,1,1
CVOE updated,41,1,1,64,I 32,,,TRUE,CV,p,541,cv,I,2,v,v,TRUE,1,1
CVOE updated,41,1,1,65,U 37,,,FALSE,CV,p,455,cv,U,7,v,v,TRUE,1,1
CVOE updated,41,1,1,66,I 42,,,TRUE,CV,p,277,cv,I,2,v,v,TRUE,1,1
CVOE updated,41,1,1,67,D 65,,,TRUE,CV,q,408,cv,D,5,c,c,TRUE,1,1
CVOE updated,41,1,1,68,U 77,,,FALSE,CV,p,488,cv,U,7,v,v,TRUE,1,1
CVOE updated,41,1,1,69,E 12,,,TRUE,CV,p,304,cv,E,2,v,v,TRUE,1,1
CVOE updated,41,1,1,70,I 60,,,TRUE,CV,p,272,cv,I,0,v,v,TRUE,1,1
CVOE updated,41,1,1,71,J 36,,,FALSE,CV,q,458,cv,J,6,c,c,TRUE,1,1
CVOE updated,41,1,1,72,H 75,,,TRUE,CV,p,429,cv,H,5,c,v,FALSE,0,0
CVOE updated,41,1,1,73,I 50,,,TRUE,CV,p,477,cv,I,0,v,v,TRUE,1,1
CVOE updated,41,1,1,74,E 99,,,FALSE,CV,q,371,cv,E,9,v,c,FALSE,0,0
CVOE updated,41,1,1,75,A 86,,,TRUE,CV,p,450,cv,A,6,v,v,TRUE,1,1
CVOE updated,41,1,1,76,U 48,,,TRUE,CV,p,510,cv,U,8,v,v,TRUE,1,1
CVOE updated,41,1,1,77,E 01,,,FALSE,CV,p,338,cv,E,1,v,v,TRUE,1,1
CVOE updated,41,1,1,78,A 78,,,TRUE,CV,p,240,cv,A,8,v,v,TRUE,1,1
CVOE updated,41,1,1,79,P 60,,,FALSE,CV,q,376,cv,P,0,c,c,TRUE,1,1
CVOE updated,41,1,1,80,E 43,,,FALSE,CV,p,377,cv,E,3,v,v,TRUE,1,1
CVOE updated,41,1,1,81,D 69,,,TRUE,CV,q,422,cv,D,9,c,c,TRUE,1,1
CVOE updated,41,1,1,82,H 11,,,TRUE,CV,p,506,cv,H,1,c,v,FALSE,0,0
CVOE updated,41,1,1,83,P 43,,,TRUE,CV,q,666,cv,P,3,c,c,TRUE,1,1
CVOE updated,41,1,1,84,O 67,,,FALSE,CV,p,461,cv,O,7,v,v,TRUE,1,1
CVOE updated,41,1,1,85,S 91,,,FALSE,CV,q,468,cv,S,1,c,c,TRUE,1,1
CVOE updated,41,1,1,86,J 68,,,TRUE,CV,q,433,cv,J,8,c,c,TRUE,1,1
CVOE updated,41,1,1,87,S 47,,,FALSE,CV,q,401,cv,S,7,c,c,TRUE,1,1
CVOE updated,41,1,1,88,I 81,,,TRUE,CV,p,407,cv,I,1,v,v,TRUE,1,1
CVOE updated,41,1,1,89,J 39,,,FALSE,CV,q,478,cv,J,9,c,c,TRUE,1,1
CVOE updated,41,1,1,90,A 11,,,TRUE,CV,p,489,cv,A,1,v,v,TRUE,1,1
CVOE updated,41,1,1,91,O 76,,,FALSE,CV,p,564,cv,O,6,v,v,TRUE,1,1
CVOE updated,41,1,1,92,A 62,,,FALSE,CV,p,476,cv,A,2,v,v,TRUE,1,1
CVOE updated,41,1,1,93,O 27,,,TRUE,CV,p,564,cv,O,7,v,v,TRUE,1,1
CVOE updated,41,1,1,94,E 66,,,FALSE,CV,p,318,cv,E,6,v,v,TRUE,1,1
CVOE updated,41,1,1,95,J 62,,,TRUE,CV,q,417,cv,J,2,c,c,TRUE,1,1
CVOE updated,41,1,1,96,H 72,,,TRUE,CV,p,499,cv,H,2,c,v,FALSE,0,0
CVOE updated,41,1,1,97,E 49,,,TRUE,CV,p,381,cv,E,9,v,v,TRUE,1,1
CVOE updated,41,1,1,98,D 52,,,TRUE,CV,q,481,cv,D,2,c,c,TRUE,1,1
CVOE updated,41,1,1,99,H 62,,,TRUE,CV,q,458,cv,H,2,c,c,TRUE,1,1
CVOE updated,41,1,1,100,I 11,,,TRUE,CV,p,454,cv,I,1,v,v,TRUE,1,1
CVOE updated,41,1,1,101,A 98,,,FALSE,CV,p,426,cv,A,8,v,v,TRUE,1,1
CVOE updated,41,1,1,102,H 29,,,FALSE,CV,q,426,cv,H,9,c,c,TRUE,1,1
CVOE updated,41,1,1,103,E 83,,,TRUE,CV,p,437,cv,E,3,v,v,TRUE,1,1
CVOE updated,41,1,1,104,D 43,,,FALSE,CV,q,311,cv,D,3,c,c,TRUE,1,1
CVOE updated,41,1,1,105,P 45,,,TRUE,CV,q,561,cv,P,5,c,c,TRUE,1,1
CVOE updated,41,1,1,106,J 17,,,TRUE,CV,q,332,cv,J,7,c,c,TRUE,1,1
CVOE_B,34,1,2,11,A 71,,,FALSE,CV,p,1378,cv,A,1,v,v,TRUE,1,1
CVOE_B,34,1,2,12,I 66,,,TRUE,CV,p,1238,cv,I,6,v,v,TRUE,1,1
CVOE_B,34,1,2,13,S 30,,,FALSE,CV,q,592,cv,S,0,c,c,TRUE,1,1
CVOE_B,34,1,2,14,D 20,,,FALSE,CV,q,691,cv,D,0,c,c,TRUE,1,1
CVOE_B,34,1,2,15,I 31,,,FALSE,CV,p,490,cv,I,1,v,v,TRUE,1,1
CVOE_B,34,1,2,16,P 16,,,FALSE,CV,q,463,cv,P,6,c,c,TRUE,1,1
CVOE_B,34,1,2,17,A 49,,,FALSE,CV,p,417,cv,A,9,v,v,TRUE,1,1
CVOE_B,34,1,2,18,O 64,,,TRUE,CV,p,685,cv,O,4,v,v,TRUE,1,1
CVOE_B,34,1,2,19,D 02,,,FALSE,CV,q,546,cv,D,2,c,c,TRUE,1,1
CVOE_B,34,1,2,20,P 81,,,TRUE,CV,q,905,cv,P,1,c,c,TRUE,1,1
CVOE_B,34,1,2,21,J 58,,,FALSE,CV,q,574,cv,J,8,c,c,TRUE,1,1
CVOE_B,34,1,2,22,A 22,,,TRUE,CV,p,483,cv,A,2,v,v,TRUE,1,1
CVOE_B,34,1,2,23,J 72,,,FALSE,CV,q,530,cv,J,2,c,c,TRUE,1,1
CVOE_B,34,1,2,24,P 91,,,TRUE,CV,q,593,cv,P,1,c,c,TRUE,1,1
CVOE_B,34,1,2,25,E 19,,,FALSE,CV,p,409,cv,E,9,v,v,TRUE,1,1
CVOE_B,34,1,2,26,I 30,,,TRUE,CV,p,516,cv,I,0,v,v,TRUE,1,1
CVOE_B,34,1,2,27,D 91,,,TRUE,CV,q,500,cv,D,1,c,c,TRUE,1,1
CVOE_B,34,1,2,28,O 48,,,TRUE,CV,p,513,cv,O,8,v,v,TRUE,1,1
CVOE_B,34,1,2,29,A 89,,,FALSE,CV,p,465,cv,A,9,v,v,TRUE,1,1
CVOE_B,34,1,2,30,U 11,,,FALSE,CV,p,476,cv,U,1,v,v,TRUE,1,1
CVOE_B,34,1,2,31,I 76,,,TRUE,CV,p,587,cv,I,6,v,v,TRUE,1,1
CVOE_B,34,1,2,32,U 89,,,FALSE,CV,p,528,cv,U,9,v,v,TRUE,1,1
CVOE_B,34,1,2,33,D 63,,,TRUE,CV,q,578,cv,D,3,c,c,TRUE,1,1
CVOE_B,34,1,2,34,H 70,,,FALSE,CV,q,559,cv,H,0,c,c,TRUE,1,1
CVOE_B,34,1,2,35,D 48,,,FALSE,CV,p,489,cv,D,8,c,v,FALSE,0,0
CVOE_B,34,1,2,36,P 56,,,FALSE,CV,q,722,cv,P,6,c,c,TRUE,1,1
CVOE_B,34,1,2,37,O 77,,,FALSE,CV,p,686,cv,O,7,v,v,TRUE,1,1
CVOE_B,34,1,2,38,P 42,,,FALSE,CV,q,524,cv,P,2,c,c,TRUE,1,1
CVOE_B,34,1,2,39,H 22,,,FALSE,CV,q,578,cv,H,2,c,c,TRUE,1,1
CVOE_B,34,1,2,40,E 42,,,TRUE,CV,p,613,cv,E,2,v,v,TRUE,1,1
CVOE_B,34,1,2,41,J 28,,,FALSE,CV,q,595,cv,J,8,c,c,TRUE,1,1
CVOE_B,34,1,2,42,E 95,,,FALSE,CV,p,938,cv,E,5,v,v,TRUE,1,1
CVOE_B,34,1,2,43,S 63,,,TRUE,CV,q,498,cv,S,3,c,c,TRUE,1,1
CVOE_B,34,1,2,44,H 50,,,FALSE,CV,q,781,cv,H,0,c,c,TRUE,1,1
CVOE_B,34,1,2,45,S 33,,,TRUE,CV,q,589,cv,S,3,c,c,TRUE,1,1
CVOE_B,34,1,2,46,P 57,,,TRUE,CV,q,887,cv,P,7,c,c,TRUE,1,1
CVOE_B,34,1,2,47,E 23,,,FALSE,CV,p,563,cv,E,3,v,v,TRUE,1,1
CVOE_B,34,1,2,48,S 61,,,TRUE,CV,q,505,cv,S,1,c,c,TRUE,1,1
CVOE_B,34,1,2,49,U 67,,,FALSE,CV,p,606,cv,U,7,v,v,TRUE,1,1
CVOE_B,34,1,2,50,H 32,,,FALSE,CV,q,529,cv,H,2,c,c,TRUE,1,1
CVOE_B,34,1,2,51,U 50,,,TRUE,CV,p,447,cv,U,0,v,v,TRUE,1,1
CVOE_B,34,1,2,52,O 49,,,FALSE,CV,p,516,cv,O,9,v,v,TRUE,1,1
CVOE_B,34,1,2,53,U 32,,,TRUE,CV,p,491,cv,U,2,v,v,TRUE,1,1
CVOE_B,34,1,2,54,J 78,,,FALSE,CV,q,467,cv,J,8,c,c,TRUE,1,1
CVOE_B,34,1,2,55,S 54,,,FALSE,CV,q,525,cv,S,4,c,c,TRUE,1,1
CVOE_B,34,1,2,56,J 27,,,TRUE,CV,q,450,cv,J,7,c,c,TRUE,1,1
CVOE_B,34,1,2,57,S 06,,,FALSE,CV,q,513,cv,S,6,c,c,TRUE,1,1
CVOE_B,34,1,2,58,D 67,,,TRUE,CV,q,751,cv,D,7,c,c,TRUE,1,1
CVOE_B,34,1,2,59,A 79,,,FALSE,CV,p,542,cv,A,9,v,v,TRUE,1,1
CVOE_B,34,1,2,60,S 52,,,FALSE,CV,q,483,cv,S,2,c,c,TRUE,1,1
CVOE_B,34,1,2,61,U 16,,,TRUE,CV,p,557,cv,U,6,v,v,TRUE,1,1
CVOE_B,34,1,2,62,O 82,,,TRUE,CV,p,558,cv,O,2,v,v,TRUE,1,1
CVOE_B,34,1,2,63,H 87,,,TRUE,CV,q,638,cv,H,7,c,c,TRUE,1,1
CVOE_B,34,1,2,64,I 32,,,TRUE,CV,p,530,cv,I,2,v,v,TRUE,1,1
CVOE_B,34,1,2,65,U 37,,,FALSE,CV,p,553,cv,U,7,v,v,TRUE,1,1
CVOE_B,34,1,2,66,I 42,,,TRUE,CV,p,912,cv,I,2,v,v,TRUE,1,1
CVOE_B,34,1,2,67,D 65,,,TRUE,CV,q,512,cv,D,5,c,c,TRUE,1,1
CVOE_B,34,1,2,68,U 77,,,FALSE,CV,p,501,cv,U,7,v,v,TRUE,1,1
CVOE_B,34,1,2,69,E 12,,,TRUE,CV,p,480,cv,E,2,v,v,TRUE,1,1
CVOE_B,34,1,2,70,I 60,,,TRUE,CV,p,1356,cv,I,0,v,v,TRUE,1,1
CVOE_B,34,1,2,71,J 36,,,FALSE,CV,q,1092,cv,J,6,c,c,TRUE,1,1
CVOE_B,34,1,2,72,H 75,,,TRUE,CV,q,806,cv,H,5,c,c,TRUE,1,1
CVOE_B,34,1,2,73,I 50,,,TRUE,CV,p,597,cv,I,0,v,v,TRUE,1,1
CVOE_B,34,1,2,74,E 99,,,FALSE,CV,p,471,cv,E,9,v,v,TRUE,1,1
CVOE_B,34,1,2,75,A 86,,,TRUE,CV,p,520,cv,A,6,v,v,TRUE,1,1
CVOE_B,34,1,2,76,U 48,,,TRUE,CV,p,517,cv,U,8,v,v,TRUE,1,1
CVOE_B,34,1,2,77,E 01,,,FALSE,CV,p,575,cv,E,1,v,v,TRUE,1,1
CVOE_B,34,1,2,78,A 78,,,TRUE,CV,p,597,cv,A,8,v,v,TRUE,1,1
CVOE_B,34,1,2,79,P 60,,,FALSE,CV,q,502,cv,P,0,c,c,TRUE,1,1
CVOE_B,34,1,2,80,E 43,,,FALSE,CV,p,507,cv,E,3,v,v,TRUE,1,1
CVOE_B,34,1,2,81,D 69,,,TRUE,CV,q,870,cv,D,9,c,c,TRUE,1,1
CVOE_B,34,1,2,82,H 11,,,TRUE,CV,q,641,cv,H,1,c,c,TRUE,1,1
CVOE_B,34,1,2,83,P 43,,,TRUE,CV,q,662,cv,P,3,c,c,TRUE,1,1
CVOE_B,34,1,2,84,O 67,,,FALSE,CV,p,451,cv,O,7,v,v,TRUE,1,1
CVOE_B,34,1,2,85,S 91,,,FALSE,CV,q,583,cv,S,1,c,c,TRUE,1,1
CVOE_B,34,1,2,86,J 68,,,TRUE,CV,q,652,cv,J,8,c,c,TRUE,1,1
CVOE_B,34,1,2,87,S 47,,,FALSE,CV,q,590,cv,S,7,c,c,TRUE,1,1
CVOE_B,34,1,2,88,I 81,,,TRUE,CV,p,534,cv,I,1,v,v,TRUE,1,1
CVOE_B,34,1,2,89,J 39,,,FALSE,CV,q,901,cv,J,9,c,c,TRUE,1,1
CVOE_B,34,1,2,90,A 11,,,TRUE,CV,p,547,cv,A,1,v,v,TRUE,1,1
CVOE_B,34,1,2,91,O 76,,,FALSE,CV,p,435,cv,O,6,v,v,TRUE,1,1
CVOE_B,34,1,2,92,A 62,,,FALSE,CV,p,512,cv,A,2,v,v,TRUE,1,1
CVOE_B,34,1,2,93,O 27,,,TRUE,CV,p,445,cv,O,7,v,v,TRUE,1,1
CVOE_B,34,1,2,94,E 66,,,FALSE,CV,p,474,cv,E,6,v,v,TRUE,1,1
CVOE_B,34,1,2,95,J 62,,,TRUE,CV,q,606,cv,J,2,c,c,TRUE,1,1
CVOE_B,34,1,2,96,H 72,,,TRUE,CV,q,619,cv,H,2,c,c,TRUE,1,1
CVOE_B,34,1,2,97,E 49,,,TRUE,CV,p,528,cv,E,9,v,v,TRUE,1,1
CVOE_B,34,1,2,98,D 52,,,TRUE,CV,q,576,cv,D,2,c,c,TRUE,1,1
CVOE_B,34,1,2,99,H 62,,,TRUE,CV,q,613,cv,H,2,c,c,TRUE,1,1
CVOE_B,34,1,2,100,I 11,,,TRUE,CV,p,579,cv,I,1,v,v,TRUE,1,1
CVOE_B,34,1,2,101,A 98,,,FALSE,CV,p,606,cv,A,8,v,v,TRUE,1,1
CVOE_B,34,1,2,102,H 29,,,FALSE,CV,q,499,cv,H,9,c,c,TRUE,1,1
CVOE_B,34,1,2,103,E 83,,,TRUE,CV,p,473,cv,E,3,v,v,TRUE,1,1
CVOE_B,34,1,2,104,D 43,,,FALSE,CV,q,571,cv,D,3,c,c,TRUE,1,1
CVOE_B,34,1,2,105,P 45,,,TRUE,CV,q,556,cv,P,5,c,c,TRUE,1,1
CVOE_B,34,1,2,106,J 17,,,TRUE,CV,q,558,cv,J,7,c,c,TRUE,1,1
CVOE_B,38,1,2,11,A 71,,,FALSE,CV,p,1315,cv,A,1,v,v,TRUE,1,1
CVOE_B,38,1,2,12,I 66,,,TRUE,CV,p,523,cv,I,6,v,v,TRUE,1,1
CVOE_B,38,1,2,13,S 30,,,FALSE,CV,q,532,cv,S,0,c,c,TRUE,1,1
CVOE_B,38,1,2,14,D 20,,,FALSE,CV,q,647,cv,D,0,c,c,TRUE,1,1
CVOE_B,38,1,2,15,I 31,,,FALSE,CV,p,530,cv,I,1,v,v,TRUE,1,1
CVOE_B,38,1,2,16,P 16,,,FALSE,CV,q,581,cv,P,6,c,c,TRUE,1,1
CVOE_B,38,1,2,17,A 49,,,FALSE,CV,p,491,cv,A,9,v,v,TRUE,1,1
CVOE_B,38,1,2,18,O 64,,,TRUE,CV,p,574,cv,O,4,v,v,TRUE,1,1
CVOE_B,38,1,2,19,D 02,,,FALSE,CV,q,521,cv,D,2,c,c,TRUE,1,1
CVOE_B,38,1,2,20,P 81,,,TRUE,CV,q,505,cv,P,1,c,c,TRUE,1,1
CVOE_B,38,1,2,21,J 58,,,FALSE,CV,q,471,cv,J,8,c,c,TRUE,1,1
CVOE_B,38,1,2,22,A 22,,,TRUE,CV,p,573,cv,A,2,v,v,TRUE,1,1
CVOE_B,38,1,2,23,J 72,,,FALSE,CV,q,512,cv,J,2,c,c,TRUE,1,1
CVOE_B,38,1,2,24,P 91,,,TRUE,CV,q,518,cv,P,1,c,c,TRUE,1,1
CVOE_B,38,1,2,25,E 19,,,FALSE,CV,p,518,cv,E,9,v,v,TRUE,1,1
CVOE_B,38,1,2,26,I 30,,,TRUE,CV,p,494,cv,I,0,v,v,TRUE,1,1
CVOE_B,38,1,2,27,D 91,,,TRUE,CV,q,506,cv,D,1,c,c,TRUE,1,1
CVOE_B,38,1,2,28,O 48,,,TRUE,CV,p,367,cv,O,8,v,v,TRUE,1,1
CVOE_B,38,1,2,29,A 89,,,FALSE,CV,p,482,cv,A,9,v,v,TRUE,1,1
CVOE_B,38,1,2,30,U 11,,,FALSE,CV,p,507,cv,U,1,v,v,TRUE,1,1
CVOE_B,38,1,2,31,I 76,,,TRUE,CV,p,432,cv,I,6,v,v,TRUE,1,1
CVOE_B,38,1,2,32,U 89,,,FALSE,CV,p,510,cv,U,9,v,v,TRUE,1,1
CVOE_B,38,1,2,33,D 63,,,TRUE,CV,q,468,cv,D,3,c,c,TRUE,1,1
CVOE_B,38,1,2,34,H 70,,,FALSE,CV,q,497,cv,H,0,c,c,TRUE,1,1
CVOE_B,38,1,2,35,D 48,,,FALSE,CV,q,469,cv,D,8,c,c,TRUE,1,1
CVOE_B,38,1,2,36,P 56,,,FALSE,CV,q,514,cv,P,6,c,c,TRUE,1,1
CVOE_B,38,1,2,37,O 77,,,FALSE,CV,p,603,cv,O,7,v,v,TRUE,1,1
CVOE_B,38,1,2,38,P 42,,,FALSE,CV,q,475,cv,P,2,c,c,TRUE,1,1
CVOE_B,38,1,2,39,H 22,,,FALSE,CV,q,539,cv,H,2,c,c,TRUE,1,1
CVOE_B,38,1,2,40,E 42,,,TRUE,CV,p,647,cv,E,2,v,v,TRUE,1,1
CVOE_B,38,1,2,41,J 28,,,FALSE,CV,q,482,cv,J,8,c,c,TRUE,1,1
CVOE_B,38,1,2,42,E 95,,,FALSE,CV,p,538,cv,E,5,v,v,TRUE,1,1
CVOE_B,38,1,2,43,S 63,,,TRUE,CV,q,485,cv,S,3,c,c,TRUE,1,1
CVOE_B,38,1,2,44,H 50,,,FALSE,CV,p,549,cv,H,0,c,v,FALSE,0,0
CVOE_B,38,1,2,45,S 33,,,TRUE,CV,q,683,cv,S,3,c,c,TRUE,1,1
CVOE_B,38,1,2,46,P 57,,,TRUE,CV,q,452,cv,P,7,c,c,TRUE,1,1
CVOE_B,38,1,2,47,E 23,,,FALSE,CV,p,639,cv,E,3,v,v,TRUE,1,1
CVOE_B,38,1,2,48,S 61,,,TRUE,CV,q,471,cv,S,1,c,c,TRUE,1,1
CVOE_B,38,1,2,49,U 67,,,FALSE,CV,p,581,cv,U,7,v,v,TRUE,1,1
CVOE_B,38,1,2,50,H 32,,,FALSE,CV,q,571,cv,H,2,c,c,TRUE,1,1
CVOE_B,38,1,2,51,U 50,,,TRUE,CV,p,534,cv,U,0,v,v,TRUE,1,1
CVOE_B,38,1,2,52,O 49,,,FALSE,CV,q,689,cv,O,9,v,c,FALSE,0,0
CVOE_B,38,1,2,53,U 32,,,TRUE,CV,p,860,cv,U,2,v,v,TRUE,1,1
CVOE_B,38,1,2,54,J 78,,,FALSE,CV,q,530,cv,J,8,c,c,TRUE,1,1
CVOE_B,38,1,2,55,S 54,,,FALSE,CV,q,709,cv,S,4,c,c,TRUE,1,1
CVOE_B,38,1,2,56,J 27,,,TRUE,CV,q,459,cv,J,7,c,c,TRUE,1,1
CVOE_B,38,1,2,57,S 06,,,FALSE,CV,q,814,cv,S,6,c,c,TRUE,1,1
CVOE_B,38,1,2,58,D 67,,,TRUE,CV,q,561,cv,D,7,c,c,TRUE,1,1
CVOE_B,38,1,2,59,A 79,,,FALSE,CV,p,505,cv,A,9,v,v,TRUE,1,1
CVOE_B,38,1,2,60,S 52,,,FALSE,CV,q,511,cv,S,2,c,c,TRUE,1,1
CVOE_B,38,1,2,61,U 16,,,TRUE,CV,p,469,cv,U,6,v,v,TRUE,1,1
CVOE_B,38,1,2,62,O 82,,,TRUE,CV,p,578,cv,O,2,v,v,TRUE,1,1
CVOE_B,38,1,2,63,H 87,,,TRUE,CV,q,550,cv,H,7,c,c,TRUE,1,1
CVOE_B,38,1,2,64,I 32,,,TRUE,CV,p,467,cv,I,2,v,v,TRUE,1,1
CVOE_B,38,1,2,65,U 37,,,FALSE,CV,p,497,cv,U,7,v,v,TRUE,1,1
CVOE_B,38,1,2,66,I 42,,,TRUE,CV,p,380,cv,I,2,v,v,TRUE,1,1
CVOE_B,38,1,2,67,D 65,,,TRUE,CV,q,434,cv,D,5,c,c,TRUE,1,1
CVOE_B,38,1,2,68,U 77,,,FALSE,CV,p,466,cv,U,7,v,v,TRUE,1,1
CVOE_B,38,1,2,69,E 12,,,TRUE,CV,p,480,cv,E,2,v,v,TRUE,1,1
CVOE_B,38,1,2,70,I 60,,,TRUE,CV,p,464,cv,I,0,v,v,TRUE,1,1
CVOE_B,38,1,2,71,J 36,,,FALSE,CV,q,614,cv,J,6,c,c,TRUE,1,1
CVOE_B,38,1,2,72,H 75,,,TRUE,CV,q,673,cv,H,5,c,c,TRUE,1,1
CVOE_B,38,1,2,73,I 50,,,TRUE,CV,p,503,cv,I,0,v,v,TRUE,1,1
CVOE_B,38,1,2,74,E 99,,,FALSE,CV,p,420,cv,E,9,v,v,TRUE,1,1
CVOE_B,38,1,2,75,A 86,,,TRUE,CV,p,530,cv,A,6,v,v,TRUE,1,1
CVOE_B,38,1,2,76,U 48,,,TRUE,CV,p,405,cv,U,8,v,v,TRUE,1,1
CVOE_B,38,1,2,77,E 01,,,FALSE,CV,p,422,cv,E,1,v,v,TRUE,1,1
CVOE_B,38,1,2,78,A 78,,,TRUE,CV,p,395,cv,A,8,v,v,TRUE,1,1
CVOE_B,38,1,2,79,P 60,,,FALSE,CV,q,428,cv,P,0,c,c,TRUE,1,1
CVOE_B,38,1,2,80,E 43,,,FALSE,CV,p,561,cv,E,3,v,v,TRUE,1,1
CVOE_B,38,1,2,81,D 69,,,TRUE,CV,q,722,cv,D,9,c,c,TRUE,1,1
CVOE_B,38,1,2,82,H 11,,,TRUE,CV,q,546,cv,H,1,c,c,TRUE,1,1
CVOE_B,38,1,2,83,P 43,,,TRUE,CV,q,512,cv,P,3,c,c,TRUE,1,1
CVOE_B,38,1,2,84,O 67,,,FALSE,CV,p,502,cv,O,7,v,v,TRUE,1,1
CVOE_B,38,1,2,85,S 91,,,FALSE,CV,q,427,cv,S,1,c,c,TRUE,1,1
CVOE_B,38,1,2,86,J 68,,,TRUE,CV,q,561,cv,J,8,c,c,TRUE,1,1
CVOE_B,38,1,2,87,S 47,,,FALSE,CV,q,426,cv,S,7,c,c,TRUE,1,1
CVOE_B,38,1,2,88,I 81,,,TRUE,CV,p,687,cv,I,1,v,v,TRUE,1,1
CVOE_B,38,1,2,89,J 39,,,FALSE,CV,q,554,cv,J,9,c,c,TRUE,1,1
CVOE_B,38,1,2,90,A 11,,,TRUE,CV,p,499,cv,A,1,v,v,TRUE,1,1
CVOE_B,38,1,2,91,O 76,,,FALSE,CV,q,766,cv,O,6,v,c,FALSE,0,0
CVOE_B,38,1,2,92,A 62,,,FALSE,CV,p,758,cv,A,2,v,v,TRUE,1,1
CVOE_B,38,1,2,93,O 27,,,TRUE,CV,p,367,cv,O,7,v,v,TRUE,1,1
CVOE_B,38,1,2,94,E 66,,,FALSE,CV,p,842,cv,E,6,v,v,TRUE,1,1
CVOE_B,38,1,2,95,J 62,,,TRUE,CV,q,578,cv,J,2,c,c,TRUE,1,1
CVOE_B,38,1,2,96,H 72,,,TRUE,CV,q,845,cv,H,2,c,c,TRUE,1,1
CVOE_B,38,1,2,97,E 49,,,TRUE,CV,p,542,cv,E,9,v,v,TRUE,1,1
CVOE_B,38,1,2,98,D 52,,,TRUE,CV,q,548,cv,D,2,c,c,TRUE,1,1
CVOE_B,38,1,2,99,H 62,,,TRUE,CV,q,505,cv,H,2,c,c,TRUE,1,1
CVOE_B,38,1,2,100,I 11,,,TRUE,CV,p,511,cv,I,1,v,v,TRUE,1,1
CVOE_B,38,1,2,101,A 98,,,FALSE,CV,p,1021,cv,A,8,v,v,TRUE,1,1
CVOE_B,38,1,2,102,H 29,,,FALSE,CV,q,507,cv,H,9,c,c,TRUE,1,1
CVOE_B,38,1,2,103,E 83,,,TRUE,CV,p,465,cv,E,3,v,v,TRUE,1,1
CVOE_B,38,1,2,104,D 43,,,FALSE,CV,q,838,cv,D,3,c,c,TRUE,1,1
CVOE_B,38,1,2,105,P 45,,,TRUE,CV,q,495,cv,P,5,c,c,TRUE,1,1
CVOE_B,38,1,2,106,J 17,,,TRUE,CV,q,482,cv,J,7,c,c,TRUE,1,1
CVOE_B,42,1,2,11,A 71,,,FALSE,CV,p,2159,cv,A,1,v,v,TRUE,1,1
CVOE_B,42,1,2,12,I 66,,,TRUE,CV,p,858,cv,I,6,v,v,TRUE,1,1
CVOE_B,42,1,2,13,S 30,,,FALSE,CV,q,551,cv,S,0,c,c,TRUE,1,1
CVOE_B,42,1,2,14,D 20,,,FALSE,CV,q,573,cv,D,0,c,c,TRUE,1,1
CVOE_B,42,1,2,15,I 31,,,FALSE,CV,p,526,cv,I,1,v,v,TRUE,1,1
CVOE_B,42,1,2,16,P 16,,,FALSE,CV,q,458,cv,P,6,c,c,TRUE,1,1
CVOE_B,42,1,2,17,A 49,,,FALSE,CV,p,547,cv,A,9,v,v,TRUE,1,1
CVOE_B,42,1,2,18,O 64,,,TRUE,CV,p,493,cv,O,4,v,v,TRUE,1,1
CVOE_B,42,1,2,19,D 02,,,FALSE,CV,q,546,cv,D,2,c,c,TRUE,1,1
CVOE_B,42,1,2,20,P 81,,,TRUE,CV,p,586,cv,P,1,c,v,FALSE,0,0
CVOE_B,42,1,2,21,J 58,,,FALSE,CV,q,703,cv,J,8,c,c,TRUE,1,1
CVOE_B,42,1,2,22,A 22,,,TRUE,CV,p,583,cv,A,2,v,v,TRUE,1,1
CVOE_B,42,1,2,23,J 72,,,FALSE,CV,q,521,cv,J,2,c,c,TRUE,1,1
CVOE_B,42,1,2,24,P 91,,,TRUE,CV,q,576,cv,P,1,c,c,TRUE,1,1
CVOE_B,42,1,2,25,E 19,,,FALSE,CV,p,662,cv,E,9,v,v,TRUE,1,1
CVOE_B,42,1,2,26,I 30,,,TRUE,CV,p,443,cv,I,0,v,v,TRUE,1,1
CVOE_B,42,1,2,27,D 91,,,TRUE,CV,q,471,cv,D,1,c,c,TRUE,1,1
CVOE_B,42,1,2,28,O 48,,,TRUE,CV,p,436,cv,O,8,v,v,TRUE,1,1
CVOE_B,42,1,2,29,A 89,,,FALSE,CV,p,469,cv,A,9,v,v,TRUE,1,1
CVOE_B,42,1,2,30,U 11,,,FALSE,CV,p,365,cv,U,1,v,v,TRUE,1,1
CVOE_B,42,1,2,31,I 76,,,TRUE,CV,p,578,cv,I,6,v,v,TRUE,1,1
CVOE_B,42,1,2,32,U 89,,,FALSE,CV,p,340,cv,U,9,v,v,TRUE,1,1
CVOE_B,42,1,2,33,D 63,,,TRUE,CV,p,366,cv,D,3,c,v,FALSE,0,0
CVOE_B,42,1,2,34,H 70,,,FALSE,CV,q,542,cv,H,0,c,c,TRUE,1,1
CVOE_B,42,1,2,35,D 48,,,FALSE,CV,q,457,cv,D,8,c,c,TRUE,1,1
CVOE_B,42,1,2,36,P 56,,,FALSE,CV,q,581,cv,P,6,c,c,TRUE,1,1
CVOE_B,42,1,2,37,O 77,,,FALSE,CV,p,544,cv,O,7,v,v,TRUE,1,1
CVOE_B,42,1,2,38,P 42,,,FALSE,CV,q,489,cv,P,2,c,c,TRUE,1,1
CVOE_B,42,1,2,39,H 22,,,FALSE,CV,q,519,cv,H,2,c,c,TRUE,1,1
CVOE_B,42,1,2,40,E 42,,,TRUE,CV,p,406,cv,E,2,v,v,TRUE,1,1
CVOE_B,42,1,2,41,J 28,,,FALSE,CV,q,453,cv,J,8,c,c,TRUE,1,1
CVOE_B,42,1,2,42,E 95,,,FALSE,CV,p,426,cv,E,5,v,v,TRUE,1,1
CVOE_B,42,1,2,43,S 63,,,TRUE,CV,q,758,cv,S,3,c,c,TRUE,1,1
CVOE_B,42,1,2,44,H 50,,,FALSE,CV,q,560,cv,H,0,c,c,TRUE,1,1
CVOE_B,42,1,2,45,S 33,,,TRUE,CV,q,758,cv,S,3,c,c,TRUE,1,1
CVOE_B,42,1,2,46,P 57,,,TRUE,CV,q,665,cv,P,7,c,c,TRUE,1,1
CVOE_B,42,1,2,47,E 23,,,FALSE,CV,p,636,cv,E,3,v,v,TRUE,1,1
CVOE_B,42,1,2,48,S 61,,,TRUE,CV,q,589,cv,S,1,c,c,TRUE,1,1
CVOE_B,42,1,2,49,U 67,,,FALSE,CV,p,541,cv,U,7,v,v,TRUE,1,1
CVOE_B,42,1,2,50,H 32,,,FALSE,CV,q,450,cv,H,2,c,c,TRUE,1,1
CVOE_B,42,1,2,51,U 50,,,TRUE,CV,p,614,cv,U,0,v,v,TRUE,1,1
CVOE_B,42,1,2,52,O 49,,,FALSE,CV,p,550,cv,O,9,v,v,TRUE,1,1
CVOE_B,42,1,2,53,U 32,,,TRUE,CV,p,585,cv,U,2,v,v,TRUE,1,1
CVOE_B,42,1,2,54,J 78,,,FALSE,CV,q,581,cv,J,8,c,c,TRUE,1,1
CVOE_B,42,1,2,55,S 54,,,FALSE,CV,q,578,cv,S,4,c,c,TRUE,1,1
CVOE_B,42,1,2,56,J 27,,,TRUE,CV,q,504,cv,J,7,c,c,TRUE,1,1
CVOE_B,42,1,2,57,S 06,,,FALSE,CV,q,651,cv,S,6,c,c,TRUE,1,1
CVOE_B,42,1,2,58,D 67,,,TRUE,CV,q,503,cv,D,7,c,c,TRUE,1,1
CVOE_B,42,1,2,59,A 79,,,FALSE,CV,p,799,cv,A,9,v,v,TRUE,1,1
CVOE_B,42,1,2,60,S 52,,,FALSE,CV,q,518,cv,S,2,c,c,TRUE,1,1
CVOE_B,42,1,2,61,U 16,,,TRUE,CV,p,630,cv,U,6,v,v,TRUE,1,1
CVOE_B,42,1,2,62,O 82,,,TRUE,CV,p,479,cv,O,2,v,v,TRUE,1,1
CVOE_B,42,1,2,63,H 87,,,TRUE,CV,q,450,cv,H,7,c,c,TRUE,1,1
CVOE_B,42,1,2,64,I 32,,,TRUE,CV,p,417,cv,I,2,v,v,TRUE,1,1
CVOE_B,42,1,2,65,U 37,,,FALSE,CV,p,405,cv,U,7,v,v,TRUE,1,1
CVOE_B,42,1,2,66,I 42,,,TRUE,CV,p,355,cv,I,2,v,v,TRUE,1,1
CVOE_B,42,1,2,67,D 65,,,TRUE,CV,q,469,cv,D,5,c,c,TRUE,1,1
CVOE_B,42,1,2,68,U 77,,,FALSE,CV,p,438,cv,U,7,v,v,TRUE,1,1
CVOE_B,42,1,2,69,E 12,,,TRUE,CV,p,476,cv,E,2,v,v,TRUE,1,1
CVOE_B,42,1,2,70,I 60,,,TRUE,CV,p,324,cv,I,0,v,v,TRUE,1,1
CVOE_B,42,1,2,71,J 36,,,FALSE,CV,q,420,cv,J,6,c,c,TRUE,1,1
CVOE_B,42,1,2,72,H 75,,,TRUE,CV,q,538,cv,H,5,c,c,TRUE,1,1
CVOE_B,42,1,2,73,I 50,,,TRUE,CV,p,428,cv,I,0,v,v,TRUE,1,1
CVOE_B,42,1,2,74,E 99,,,FALSE,CV,p,465,cv,E,9,v,v,TRUE,1,1
CVOE_B,42,1,2,75,A 86,,,TRUE,CV,p,357,cv,A,6,v,v,TRUE,1,1
CVOE_B,42,1,2,76,U 48,,,TRUE,CV,q,371,cv,U,8,v,c,FALSE,0,0
CVOE_B,42,1,2,77,E 01,,,FALSE,CV,p,1322,cv,E,1,v,v,TRUE,1,1
CVOE_B,42,1,2,78,A 78,,,TRUE,CV,p,536,cv,A,8,v,v,TRUE,1,1
CVOE_B,42,1,2,79,P 60,,,FALSE,CV,q,507,cv,P,0,c,c,TRUE,1,1
CVOE_B,42,1,2,80,E 43,,,FALSE,CV,p,728,cv,E,3,v,v,TRUE,1,1
CVOE_B,42,1,2,81,D 69,,,TRUE,CV,q,451,cv,D,9,c,c,TRUE,1,1
CVOE_B,42,1,2,82,H 11,,,TRUE,CV,q,550,cv,H,1,c,c,TRUE,1,1
CVOE_B,42,1,2,83,P 43,,,TRUE,CV,q,464,cv,P,3,c,c,TRUE,1,1
CVOE_B,42,1,2,84,O 67,,,FALSE,CV,p,405,cv,O,7,v,v,TRUE,1,1
CVOE_B,42,1,2,85,S 91,,,FALSE,CV,q,509,cv,S,1,c,c,TRUE,1,1
CVOE_B,42,1,2,86,J 68,,,TRUE,CV,q,508,cv,J,8,c,c,TRUE,1,1
CVOE_B,42,1,2,87,S 47,,,FALSE,CV,p,472,cv,S,7,c,v,FALSE,0,0
CVOE_B,42,1,2,88,I 81,,,TRUE,CV,p,560,cv,I,1,v,v,TRUE,1,1
CVOE_B,42,1,2,89,J 39,,,FALSE,CV,q,520,cv,J,9,c,c,TRUE,1,1
CVOE_B,42,1,2,90,A 11,,,TRUE,CV,p,476,cv,A,1,v,v,TRUE,1,1
CVOE_B,42,1,2,91,O 76,,,FALSE,CV,p,563,cv,O,6,v,v,TRUE,1,1
CVOE_B,42,1,2,92,A 62,,,FALSE,CV,p,468,cv,A,2,v,v,TRUE,1,1
CVOE_B,42,1,2,93,O 27,,,TRUE,CV,p,400,cv,O,7,v,v,TRUE,1,1
CVOE_B,42,1,2,94,E 66,,,FALSE,CV,p,446,cv,E,6,v,v,TRUE,1,1
CVOE_B,42,1,2,95,J 62,,,TRUE,CV,q,392,cv,J,2,c,c,TRUE,1,1
CVOE_B,42,1,2,96,H 72,,,TRUE,CV,q,435,cv,H,2,c,c,TRUE,1,1
CVOE_B,42,1,2,97,E 49,,,TRUE,CV,p,628,cv,E,9,v,v,TRUE,1,1
CVOE_B,42,1,2,98,D 52,,,TRUE,CV,q,752,cv,D,2,c,c,TRUE,1,1
CVOE_B,42,1,2,99,H 62,,,TRUE,CV,q,514,cv,H,2,c,c,TRUE,1,1
CVOE_B,42,1,2,100,I 11,,,TRUE,CV,p,440,cv,I,1,v,v,TRUE,1,1
CVOE_B,42,1,2,101,A 98,,,FALSE,CV,p,462,cv,A,8,v,v,TRUE,1,1
CVOE_B,42,1,2,102,H 29,,,FALSE,CV,q,412,cv,H,9,c,c,TRUE,1,1
CVOE_B,42,1,2,103,E 83,,,TRUE,CV,p,492,cv,E,3,v,v,TRUE,1,1
CVOE_B,42,1,2,104,D 43,,,FALSE,CV,q,411,cv,D,3,c,c,TRUE,1,1
CVOE_B,42,1,2,105,P 45,,,TRUE,CV,q,608,cv,P,5,c,c,TRUE,1,1
CVOE_B,42,1,2,106,J 17,,,TRUE,CV,q,444,cv,J,7,c,c,TRUE,1,1
CVOE_C,39,1,2,11,A 71,,,FALSE,CV,q,2030,cv,A,1,v,c,FALSE,0,0
CVOE_C,39,1,2,12,I 66,,,TRUE,CV,p,724,cv,I,6,v,v,TRUE,1,1
CVOE_C,39,1,2,13,S 30,,,FALSE,CV,q,437,cv,S,0,c,c,TRUE,1,1
CVOE_C,39,1,2,14,D 20,,,FALSE,CV,q,413,cv,D,0,c,c,TRUE,1,1
CVOE_C,39,1,2,15,I 31,,,FALSE,CV,p,472,cv,I,1,v,v,TRUE,1,1
CVOE_C,39,1,2,16,P 16,,,FALSE,CV,q,454,cv,P,6,c,c,TRUE,1,1
CVOE_C,39,1,2,17,A 49,,,FALSE,CV,q,593,cv,A,9,v,c,FALSE,0,0
CVOE_C,39,1,2,18,O 64,,,TRUE,CV,p,543,cv,O,4,v,v,TRUE,1,1
CVOE_C,39,1,2,19,D 02,,,FALSE,CV,q,460,cv,D,2,c,c,TRUE,1,1
CVOE_C,39,1,2,20,P 81,,,TRUE,CV,q,538,cv,P,1,c,c,TRUE,1,1
CVOE_C,39,1,2,21,J 58,,,FALSE,CV,q,349,cv,J,8,c,c,TRUE,1,1
CVOE_C,39,1,2,22,A 22,,,TRUE,CV,q,323,cv,A,2,v,c,FALSE,0,0
CVOE_C,39,1,2,23,J 72,,,FALSE,CV,q,867,cv,J,2,c,c,TRUE,1,1
CVOE_C,39,1,2,24,P 91,,,TRUE,CV,q,497,cv,P,1,c,c,TRUE,1,1
CVOE_C,39,1,2,25,E 19,,,FALSE,CV,p,532,cv,E,9,v,v,TRUE,1,1
CVOE_C,39,1,2,26,I 30,,,TRUE,CV,p,503,cv,I,0,v,v,TRUE,1,1
CVOE_C,39,1,2,27,D 91,,,TRUE,CV,q,389,cv,D,1,c,c,TRUE,1,1
CVOE_C,39,1,2,28,O 48,,,TRUE,CV,p,419,cv,O,8,v,v,TRUE,1,1
CVOE_C,39,1,2,29,A 89,,,FALSE,CV,q,366,cv,A,9,v,c,FALSE,0,0
CVOE_C,39,1,2,30,U 11,,,FALSE,CV,p,606,cv,U,1,v,v,TRUE,1,1
CVOE_C,39,1,2,31,I 76,,,TRUE,CV,p,382,cv,I,6,v,v,TRUE,1,1
CVOE_C,39,1,2,32,U 89,,,FALSE,CV,p,260,cv,U,9,v,v,TRUE,1,1
CVOE_C,39,1,2,33,D 63,,,TRUE,CV,q,423,cv,D,3,c,c,TRUE,1,1
CVOE_C,39,1,2,34,H 70,,,FALSE,CV,q,333,cv,H,0,c,c,TRUE,1,1
CVOE_C,39,1,2,35,D 48,,,FALSE,CV,q,328,cv,D,8,c,c,TRUE,1,1
CVOE_C,39,1,2,36,P 56,,,FALSE,CV,q,307,cv,P,6,c,c,TRUE,1,1
CVOE_C,39,1,2,37,O 77,,,FALSE,CV,p,384,cv,O,7,v,v,TRUE,1,1
CVOE_C,39,1,2,38,P 42,,,FALSE,CV,q,310,cv,P,2,c,c,TRUE,1,1
CVOE_C,39,1,2,39,H 22,,,FALSE,CV,q,364,cv,H,2,c,c,TRUE,1,1
CVOE_C,39,1,2,40,E 42,,,TRUE,CV,p,332,cv,E,2,v,v,TRUE,1,1
CVOE_C,39,1,2,41,J 28,,,FALSE,CV,q,463,cv,J,8,c,c,TRUE,1,1
CVOE_C,39,1,2,42,E 95,,,FALSE,CV,p,437,cv,E,5,v,v,TRUE,1,1
CVOE_C,39,1,2,43,S 63,,,TRUE,CV,q,397,cv,S,3,c,c,TRUE,1,1
CVOE_C,39,1,2,44,H 50,,,FALSE,CV,p,293,cv,H,0,c,v,FALSE,0,0
CVOE_C,39,1,2,45,S 33,,,TRUE,CV,q,440,cv,S,3,c,c,TRUE,1,1
CVOE_C,39,1,2,46,P 57,,,TRUE,CV,q,321,cv,P,7,c,c,TRUE,1,1
CVOE_C,39,1,2,47,E 23,,,FALSE,CV,p,385,cv,E,3,v,v,TRUE,1,1
CVOE_C,39,1,2,48,S 61,,,TRUE,CV,q,471,cv,S,1,c,c,TRUE,1,1
CVOE_C,39,1,2,49,U 67,,,FALSE,CV,p,420,cv,U,7,v,v,TRUE,1,1
CVOE_C,39,1,2,50,H 32,,,FALSE,CV,q,434,cv,H,2,c,c,TRUE,1,1
CVOE_C,39,1,2,51,U 50,,,TRUE,CV,p,402,cv,U,0,v,v,TRUE,1,1
CVOE_C,39,1,2,52,O 49,,,FALSE,CV,p,427,cv,O,9,v,v,TRUE,1,1
CVOE_C,39,1,2,53,U 32,,,TRUE,CV,p,297,cv,U,2,v,v,TRUE,1,1
CVOE_C,39,1,2,54,J 78,,,FALSE,CV,q,324,cv,J,8,c,c,TRUE,1,1
CVOE_C,39,1,2,55,S 54,,,FALSE,CV,q,476,cv,S,4,c,c,TRUE,1,1
CVOE_C,39,1,2,56,J 27,,,TRUE,CV,q,380,cv,J,7,c,c,TRUE,1,1
CVOE_C,39,1,2,57,S 06,,,FALSE,CV,q,346,cv,S,6,c,c,TRUE,1,1
CVOE_C,39,1,2,58,D 67,,,TRUE,CV,q,400,cv,D,7,c,c,TRUE,1,1
CVOE_C,39,1,2,59,A 79,,,FALSE,CV,q,296,cv,A,9,v,c,FALSE,0,0
CVOE_C,39,1,2,60,S 52,,,FALSE,CV,p,467,cv,S,2,c,v,FALSE,0,0
CVOE_C,39,1,2,61,U 16,,,TRUE,CV,p,689,cv,U,6,v,v,TRUE,1,1
CVOE_C,39,1,2,62,O 82,,,TRUE,CV,p,532,cv,O,2,v,v,TRUE,1,1
CVOE_C,39,1,2,63,H 87,,,TRUE,CV,q,407,cv,H,7,c,c,TRUE,1,1
CVOE_C,39,1,2,64,I 32,,,TRUE,CV,p,490,cv,I,2,v,v,TRUE,1,1
CVOE_C,39,1,2,65,U 37,,,FALSE,CV,p,325,cv,U,7,v,v,TRUE,1,1
CVOE_C,39,1,2,66,I 42,,,TRUE,CV,p,325,cv,I,2,v,v,TRUE,1,1
CVOE_C,39,1,2,67,D 65,,,TRUE,CV,q,374,cv,D,5,c,c,TRUE,1,1
CVOE_C,39,1,2,68,U 77,,,FALSE,CV,p,449,cv,U,7,v,v,TRUE,1,1
CVOE_C,39,1,2,69,E 12,,,TRUE,CV,p,372,cv,E,2,v,v,TRUE,1,1
CVOE_C,39,1,2,70,I 60,,,TRUE,CV,p,359,cv,I,0,v,v,TRUE,1,1
CVOE_C,39,1,2,71,J 36,,,FALSE,CV,q,399,cv,J,6,c,c,TRUE,1,1
CVOE_C,39,1,2,72,H 75,,,TRUE,CV,q,431,cv,H,5,c,c,TRUE,1,1
CVOE_C,39,1,2,73,I 50,,,TRUE,CV,p,405,cv,I,0,v,v,TRUE,1,1
CVOE_C,39,1,2,74,E 99,,,FALSE,CV,p,357,cv,E,9,v,v,TRUE,1,1
CVOE_C,39,1,2,75,A 86,,,TRUE,CV,q,454,cv,A,6,v,c,FALSE,0,0
CVOE_C,39,1,2,76,U 48,,,TRUE,CV,q,465,cv,U,8,v,c,FALSE,0,0
CVOE_C,39,1,2,77,E 01,,,FALSE,CV,p,518,cv,E,1,v,v,TRUE,1,1
CVOE_C,39,1,2,78,A 78,,,TRUE,CV,p,327,cv,A,8,v,v,TRUE,1,1
CVOE_C,39,1,2,79,P 60,,,FALSE,CV,q,514,cv,P,0,c,c,TRUE,1,1
CVOE_C,39,1,2,80,E 43,,,FALSE,CV,p,466,cv,E,3,v,v,TRUE,1,1
CVOE_C,39,1,2,81,D 69,,,TRUE,CV,q,408,cv,D,9,c,c,TRUE,1,1
CVOE_C,39,1,2,82,H 11,,,TRUE,CV,q,747,cv,H,1,c,c,TRUE,1,1
CVOE_C,39,1,2,83,P 43,,,TRUE,CV,q,417,cv,P,3,c,c,TRUE,1,1
CVOE_C,39,1,2,84,O 67,,,FALSE,CV,p,428,cv,O,7,v,v,TRUE,1,1
CVOE_C,39,1,2,85,S 91,,,FALSE,CV,q,457,cv,S,1,c,c,TRUE,1,1
CVOE_C,39,1,2,86,J 68,,,TRUE,CV,q,517,cv,J,8,c,c,TRUE,1,1
CVOE_C,39,1,2,87,S 47,,,FALSE,CV,q,421,cv,S,7,c,c,TRUE,1,1
CVOE_C,39,1,2,88,I 81,,,TRUE,CV,p,387,cv,I,1,v,v,TRUE,1,1
CVOE_C,39,1,2,89,J 39,,,FALSE,CV,q,344,cv,J,9,c,c,TRUE,1,1
CVOE_C,39,1,2,90,A 11,,,TRUE,CV,p,422,cv,A,1,v,v,TRUE,1,1
CVOE_C,39,1,2,91,O 76,,,FALSE,CV,p,524,cv,O,6,v,v,TRUE,1,1
CVOE_C,39,1,2,92,A 62,,,FALSE,CV,p,348,cv,A,2,v,v,TRUE,1,1
CVOE_C,39,1,2,93,O 27,,,TRUE,CV,p,338,cv,O,7,v,v,TRUE,1,1
CVOE_C,39,1,2,94,E 66,,,FALSE,CV,p,341,cv,E,6,v,v,TRUE,1,1
CVOE_C,39,1,2,95,J 62,,,TRUE,CV,q,578,cv,J,2,c,c,TRUE,1,1
CVOE_C,39,1,2,96,H 72,,,TRUE,CV,q,461,cv,H,2,c,c,TRUE,1,1
CVOE_C,39,1,2,97,E 49,,,TRUE,CV,q,267,cv,E,9,v,c,FALSE,0,0
CVOE_C,39,1,2,98,D 52,,,TRUE,CV,q,409,cv,D,2,c,c,TRUE,1,1
CVOE_C,39,1,2,99,H 62,,,TRUE,CV,q,348,cv,H,2,c,c,TRUE,1,1
CVOE_C,39,1,2,100,I 11,,,TRUE,CV,p,385,cv,I,1,v,v,TRUE,1,1
CVOE_C,39,1,2,101,A 98,,,FALSE,CV,p,535,cv,A,8,v,v,TRUE,1,1
CVOE_C,39,1,2,102,H 29,,,FALSE,CV,q,330,cv,H,9,c,c,TRUE,1,1
CVOE_C,39,1,2,103,E 83,,,TRUE,CV,p,333,cv,E,3,v,v,TRUE,1,1
CVOE_C,39,1,2,104,D 43,,,FALSE,CV,q,320,cv,D,3,c,c,TRUE,1,1
CVOE_C,39,1,2,105,P 45,,,TRUE,CV,q,345,cv,P,5,c,c,TRUE,1,1
CVOE_C,39,1,2,106,J 17,,,TRUE,CV,q,446,cv,J,7,c,c,TRUE,1,1
CVOE_C,43,1,2,11,A 71,,,FALSE,CV,p,1796,cv,A,1,v,v,TRUE,1,1
CVOE_C,43,1,2,12,I 66,,,TRUE,CV,p,741,cv,I,6,v,v,TRUE,1,1
CVOE_C,43,1,2,13,S 30,,,FALSE,CV,q,555,cv,S,0,c,c,TRUE,1,1
CVOE_C,43,1,2,14,D 20,,,FALSE,CV,q,627,cv,D,0,c,c,TRUE,1,1
CVOE_C,43,1,2,15,I 31,,,FALSE,CV,p,1097,cv,I,1,v,v,TRUE,1,1
CVOE_C,43,1,2,16,P 16,,,FALSE,CV,q,460,cv,P,6,c,c,TRUE,1,1
CVOE_C,43,1,2,17,A 49,,,FALSE,CV,p,458,cv,A,9,v,v,TRUE,1,1
CVOE_C,43,1,2,18,O 64,,,TRUE,CV,p,509,cv,O,4,v,v,TRUE,1,1
CVOE_C,43,1,2,19,D 02,,,FALSE,CV,q,483,cv,D,2,c,c,TRUE,1,1
CVOE_C,43,1,2,20,P 81,,,TRUE,CV,q,1051,cv,P,1,c,c,TRUE,1,1
CVOE_C,43,1,2,21,J 58,,,FALSE,CV,q,462,cv,J,8,c,c,TRUE,1,1
CVOE_C,43,1,2,22,A 22,,,TRUE,CV,p,428,cv,A,2,v,v,TRUE,1,1
CVOE_C,43,1,2,23,J 72,,,FALSE,CV,q,450,cv,J,2,c,c,TRUE,1,1
CVOE_C,43,1,2,24,P 91,,,TRUE,CV,q,645,cv,P,1,c,c,TRUE,1,1
CVOE_C,43,1,2,25,E 19,,,FALSE,CV,p,437,cv,E,9,v,v,TRUE,1,1
CVOE_C,43,1,2,26,I 30,,,TRUE,CV,p,502,cv,I,0,v,v,TRUE,1,1
CVOE_C,43,1,2,27,D 91,,,TRUE,CV,q,451,cv,D,1,c,c,TRUE,1,1
CVOE_C,43,1,2,28,O 48,,,TRUE,CV,p,398,cv,O,8,v,v,TRUE,1,1
CVOE_C,43,1,2,29,A 89,,,FALSE,CV,p,623,cv,A,9,v,v,TRUE,1,1
CVOE_C,43,1,2,30,U 11,,,FALSE,CV,p,373,cv,U,1,v,v,TRUE,1,1
CVOE_C,43,1,2,31,I 76,,,TRUE,CV,p,496,cv,I,6,v,v,TRUE,1,1
CVOE_C,43,1,2,32,U 89,,,FALSE,CV,p,691,cv,U,9,v,v,TRUE,1,1
CVOE_C,43,1,2,33,D 63,,,TRUE,CV,q,518,cv,D,3,c,c,TRUE,1,1
CVOE_C,43,1,2,34,H 70,,,FALSE,CV,q,742,cv,H,0,c,c,TRUE,1,1
CVOE_C,43,1,2,35,D 48,,,FALSE,CV,q,540,cv,D,8,c,c,TRUE,1,1
CVOE_C,43,1,2,36,P 56,,,FALSE,CV,q,458,cv,P,6,c,c,TRUE,1,1
CVOE_C,43,1,2,37,O 77,,,FALSE,CV,p,397,cv,O,7,v,v,TRUE,1,1
CVOE_C,43,1,2,38,P 42,,,FALSE,CV,q,477,cv,P,2,c,c,TRUE,1,1
CVOE_C,43,1,2,39,H 22,,,FALSE,CV,p,477,cv,H,2,c,v,FALSE,0,0
CVOE_C,43,1,2,40,E 42,,,TRUE,CV,p,798,cv,E,2,v,v,TRUE,1,1
CVOE_C,43,1,2,41,J 28,,,FALSE,CV,q,542,cv,J,8,c,c,TRUE,1,1
CVOE_C,43,1,2,42,E 95,,,FALSE,CV,p,684,cv,E,5,v,v,TRUE,1,1
CVOE_C,43,1,2,43,S 63,,,TRUE,CV,q,597,cv,S,3,c,c,TRUE,1,1
CVOE_C,43,1,2,44,H 50,,,FALSE,CV,q,445,cv,H,0,c,c,TRUE,1,1
CVOE_C,43,1,2,45,S 33,,,TRUE,CV,q,373,cv,S,3,c,c,TRUE,1,1
CVOE_C,43,1,2,46,P 57,,,TRUE,CV,q,512,cv,P,7,c,c,TRUE,1,1
CVOE_C,43,1,2,47,E 23,,,FALSE,CV,p,422,cv,E,3,v,v,TRUE,1,1
CVOE_C,43,1,2,48,S 61,,,TRUE,CV,q,516,cv,S,1,c,c,TRUE,1,1
CVOE_C,43,1,2,49,U 67,,,FALSE,CV,p,564,cv,U,7,v,v,TRUE,1,1
CVOE_C,43,1,2,50,H 32,,,FALSE,CV,q,405,cv,H,2,c,c,TRUE,1,1
CVOE_C,43,1,2,51,U 50,,,TRUE,CV,p,533,cv,U,0,v,v,TRUE,1,1
CVOE_C,43,1,2,52,O 49,,,FALSE,CV,p,520,cv,O,9,v,v,TRUE,1,1
CVOE_C,43,1,2,53,U 32,,,TRUE,CV,p,392,cv,U,2,v,v,TRUE,1,1
CVOE_C,43,1,2,54,J 78,,,FALSE,CV,q,502,cv,J,8,c,c,TRUE,1,1
CVOE_C,43,1,2,55,S 54,,,FALSE,CV,p,556,cv,S,4,c,v,FALSE,0,0
CVOE_C,43,1,2,56,J 27,,,TRUE,CV,q,604,cv,J,7,c,c,TRUE,1,1
CVOE_C,43,1,2,57,S 06,,,FALSE,CV,q,605,cv,S,6,c,c,TRUE,1,1
CVOE_C,43,1,2,58,D 67,,,TRUE,CV,q,501,cv,D,7,c,c,TRUE,1,1
CVOE_C,43,1,2,59,A 79,,,FALSE,CV,p,499,cv,A,9,v,v,TRUE,1,1
CVOE_C,43,1,2,60,S 52,,,FALSE,CV,q,574,cv,S,2,c,c,TRUE,1,1
CVOE_C,43,1,2,61,U 16,,,TRUE,CV,p,593,cv,U,6,v,v,TRUE,1,1
CVOE_C,43,1,2,62,O 82,,,TRUE,CV,p,543,cv,O,2,v,v,TRUE,1,1
CVOE_C,43,1,2,63,H 87,,,TRUE,CV,q,476,cv,H,7,c,c,TRUE,1,1
CVOE_C,43,1,2,64,I 32,,,TRUE,CV,p,853,cv,I,2,v,v,TRUE,1,1
CVOE_C,43,1,2,65,U 37,,,FALSE,CV,p,656,cv,U,7,v,v,TRUE,1,1
CVOE_C,43,1,2,66,I 42,,,TRUE,CV,p,419,cv,I,2,v,v,TRUE,1,1
CVOE_C,43,1,2,67,D 65,,,TRUE,CV,q,510,cv,D,5,c,c,TRUE,1,1
CVOE_C,43,1,2,68,U 77,,,FALSE,CV,p,988,cv,U,7,v,v,TRUE,1,1
CVOE_C,43,1,2,69,E 12,,,TRUE,CV,p,410,cv,E,2,v,v,TRUE,1,1
CVOE_C,43,1,2,70,I 60,,,TRUE,CV,p,381,cv,I,0,v,v,TRUE,1,1
CVOE_C,43,1,2,71,J 36,,,FALSE,CV,q,442,cv,J,6,c,c,TRUE,1,1
CVOE_C,43,1,2,72,H 75,,,TRUE,CV,q,619,cv,H,5,c,c,TRUE,1,1
CVOE_C,43,1,2,73,I 50,,,TRUE,CV,p,542,cv,I,0,v,v,TRUE,1,1
CVOE_C,43,1,2,74,E 99,,,FALSE,CV,p,596,cv,E,9,v,v,TRUE,1,1
CVOE_C,43,1,2,75,A 86,,,TRUE,CV,p,460,cv,A,6,v,v,TRUE,1,1
CVOE_C,43,1,2,76,U 48,,,TRUE,CV,p,490,cv,U,8,v,v,TRUE,1,1
CVOE_C,43,1,2,77,E 01,,,FALSE,CV,p,541,cv,E,1,v,v,TRUE,1,1
CVOE_C,43,1,2,78,A 78,,,TRUE,CV,p,427,cv,A,8,v,v,TRUE,1,1
CVOE_C,43,1,2,79,P 60,,,FALSE,CV,q,440,cv,P,0,c,c,TRUE,1,1
CVOE_C,43,1,2,80,E 43,,,FALSE,CV,p,705,cv,E,3,v,v,TRUE,1,1
CVOE_C,43,1,2,81,D 69,,,TRUE,CV,q,446,cv,D,9,c,c,TRUE,1,1
CVOE_C,43,1,2,82,H 11,,,TRUE,CV,q,535,cv,H,1,c,c,TRUE,1,1
CVOE_C,43,1,2,83,P 43,,,TRUE,CV,q,434,cv,P,3,c,c,TRUE,1,1
CVOE_C,43,1,2,84,O 67,,,FALSE,CV,p,410,cv,O,7,v,v,TRUE,1,1
CVOE_C,43,1,2,85,S 91,,,FALSE,CV,q,453,cv,S,1,c,c,TRUE,1,1
CVOE_C,43,1,2,86,J 68,,,TRUE,CV,q,696,cv,J,8,c,c,TRUE,1,1
CVOE_C,43,1,2,87,S 47,,,FALSE,CV,q,435,cv,S,7,c,c,TRUE,1,1
CVOE_C,43,1,2,88,I 81,,,TRUE,CV,p,396,cv,I,1,v,v,TRUE,1,1
CVOE_C,43,1,2,89,J 39,,,FALSE,CV,q,436,cv,J,9,c,c,TRUE,1,1
CVOE_C,43,1,2,90,A 11,,,TRUE,CV,p,508,cv,A,1,v,v,TRUE,1,1
CVOE_C,43,1,2,91,O 76,,,FALSE,CV,p,466,cv,O,6,v,v,TRUE,1,1
CVOE_C,43,1,2,92,A 62,,,FALSE,CV,p,440,cv,A,2,v,v,TRUE,1,1
CVOE_C,43,1,2,93,O 27,,,TRUE,CV,p,376,cv,O,7,v,v,TRUE,1,1
CVOE_C,43,1,2,94,E 66,,,FALSE,CV,p,611,cv,E,6,v,v,TRUE,1,1
CVOE_C,43,1,2,95,J 62,,,TRUE,CV,q,550,cv,J,2,c,c,TRUE,1,1
CVOE_C,43,1,2,96,H 72,,,TRUE,CV,q,564,cv,H,2,c,c,TRUE,1,1
CVOE_C,43,1,2,97,E 49,,,TRUE,CV,p,509,cv,E,9,v,v,TRUE,1,1
CVOE_C,43,1,2,98,D 52,,,TRUE,CV,q,482,cv,D,2,c,c,TRUE,1,1
CVOE_C,43,1,2,99,H 62,,,TRUE,CV,q,499,cv,H,2,c,c,TRUE,1,1
CVOE_C,43,1,2,100,I 11,,,TRUE,CV,p,534,cv,I,1,v,v,TRUE,1,1
CVOE_C,43,1,2,101,A 98,,,FALSE,CV,p,441,cv,A,8,v,v,TRUE,1,1
CVOE_C,43,1,2,102,H 29,,,FALSE,CV,q,537,cv,H,9,c,c,TRUE,1,1
CVOE_C,43,1,2,103,E 83,,,TRUE,CV,p,516,cv,E,3,v,v,TRUE,1,1
CVOE_C,43,1,2,104,D 43,,,FALSE,CV,q,485,cv,D,3,c,c,TRUE,1,1
CVOE_C,43,1,2,105,P 45,,,TRUE,CV,q,493,cv,P,5,c,c,TRUE,1,1
CVOE_C,43,1,2,106,J 17,,,TRUE,CV,q,488,cv,J,7,c,c,TRUE,1,1
CVOE_D,36,1,1,11,A 71,,,FALSE,CV,p,1223,cv,A,1,v,v,TRUE,1,1
CVOE_D,36,1,1,12,I 66,,,TRUE,CV,p,912,cv,I,6,v,v,TRUE,1,1
CVOE_D,36,1,1,13,S 30,,,FALSE,CV,q,479,cv,S,0,c,c,TRUE,1,1
CVOE_D,36,1,1,14,D 20,,,FALSE,CV,q,596,cv,D,0,c,c,TRUE,1,1
CVOE_D,36,1,1,15,I 31,,,FALSE,CV,p,519,cv,I,1,v,v,TRUE,1,1
CVOE_D,36,1,1,16,P 16,,,FALSE,CV,q,1527,cv,P,6,c,c,TRUE,1,1
CVOE_D,36,1,1,17,A 49,,,FALSE,CV,p,662,cv,A,9,v,v,TRUE,1,1
CVOE_D,36,1,1,18,O 64,,,TRUE,CV,p,628,cv,O,4,v,v,TRUE,1,1
CVOE_D,36,1,1,19,D 02,,,FALSE,CV,q,614,cv,D,2,c,c,TRUE,1,1
CVOE_D,36,1,1,20,P 81,,,TRUE,CV,q,813,cv,P,1,c,c,TRUE,1,1
CVOE_D,36,1,1,21,J 58,,,FALSE,CV,q,608,cv,J,8,c,c,TRUE,1,1
CVOE_D,36,1,1,22,A 22,,,TRUE,CV,p,552,cv,A,2,v,v,TRUE,1,1
CVOE_D,36,1,1,23,J 72,,,FALSE,CV,q,613,cv,J,2,c,c,TRUE,1,1
CVOE_D,36,1,1,24,P 91,,,TRUE,CV,q,768,cv,P,1,c,c,TRUE,1,1
CVOE_D,36,1,1,25,E 19,,,FALSE,CV,p,455,cv,E,9,v,v,TRUE,1,1
CVOE_D,36,1,1,26,I 30,,,TRUE,CV,p,1385,cv,I,0,v,v,TRUE,1,1
CVOE_D,36,1,1,27,D 91,,,TRUE,CV,q,503,cv,D,1,c,c,TRUE,1,1
CVOE_D,36,1,1,28,O 48,,,TRUE,CV,p,716,cv,O,8,v,v,TRUE,1,1
CVOE_D,36,1,1,29,A 89,,,FALSE,CV,p,591,cv,A,9,v,v,TRUE,1,1
CVOE_D,36,1,1,30,U 11,,,FALSE,CV,p,635,cv,U,1,v,v,TRUE,1,1
CVOE_D,36,1,1,31,I 76,,,TRUE,CV,q,824,cv,I,6,v,c,FALSE,0,0
CVOE_D,36,1,1,32,U 89,,,FALSE,CV,p,741,cv,U,9,v,v,TRUE,1,1
CVOE_D,36,1,1,33,D 63,,,TRUE,CV,q,473,cv,D,3,c,c,TRUE,1,1
CVOE_D,36,1,1,34,H 70,,,FALSE,CV,q,774,cv,H,0,c,c,TRUE,1,1
CVOE_D,36,1,1,35,D 48,,,FALSE,CV,q,1219,cv,D,8,c,c,TRUE,1,1
CVOE_D,36,1,1,36,P 56,,,FALSE,CV,q,574,cv,P,6,c,c,TRUE,1,1
CVOE_D,36,1,1,37,O 77,,,FALSE,CV,p,543,cv,O,7,v,v,TRUE,1,1
CVOE_D,36,1,1,38,P 42,,,FALSE,CV,q,473,cv,P,2,c,c,TRUE,1,1
CVOE_D,36,1,1,39,H 22,,,FALSE,CV,q,547,cv,H,2,c,c,TRUE,1,1
CVOE_D,36,1,1,40,E 42,,,TRUE,CV,p,562,cv,E,2,v,v,TRUE,1,1
CVOE_D,36,1,1,41,J 28,,,FALSE,CV,q,525,cv,J,8,c,c,TRUE,1,1
CVOE_D,36,1,1,42,E 95,,,FALSE,CV,p,431,cv,E,5,v,v,TRUE,1,1
CVOE_D,36,1,1,43,S 63,,,TRUE,CV,q,775,cv,S,3,c,c,TRUE,1,1
CVOE_D,36,1,1,44,H 50,,,FALSE,CV,q,583,cv,H,0,c,c,TRUE,1,1
CVOE_D,36,1,1,45,S 33,,,TRUE,CV,q,501,cv,S,3,c,c,TRUE,1,1
CVOE_D,36,1,1,46,P 57,,,TRUE,CV,q,455,cv,P,7,c,c,TRUE,1,1
CVOE_D,36,1,1,47,E 23,,,FALSE,CV,p,369,cv,E,3,v,v,TRUE,1,1
CVOE_D,36,1,1,48,S 61,,,TRUE,CV,q,467,cv,S,1,c,c,TRUE,1,1
CVOE_D,36,1,1,49,U 67,,,FALSE,CV,p,526,cv,U,7,v,v,TRUE,1,1
CVOE_D,36,1,1,50,H 32,,,FALSE,CV,q,476,cv,H,2,c,c,TRUE,1,1
CVOE_D,36,1,1,51,U 50,,,TRUE,CV,p,631,cv,U,0,v,v,TRUE,1,1
CVOE_D,36,1,1,52,O 49,,,FALSE,CV,p,557,cv,O,9,v,v,TRUE,1,1
CVOE_D,36,1,1,53,U 32,,,TRUE,CV,p,494,cv,U,2,v,v,TRUE,1,1
CVOE_D,36,1,1,54,J 78,,,FALSE,CV,q,515,cv,J,8,c,c,TRUE,1,1
CVOE_D,36,1,1,55,S 54,,,FALSE,CV,q,556,cv,S,4,c,c,TRUE,1,1
CVOE_D,36,1,1,56,J 27,,,TRUE,CV,q,623,cv,J,7,c,c,TRUE,1,1
CVOE_D,36,1,1,57,S 06,,,FALSE,CV,q,977,cv,S,6,c,c,TRUE,1,1
CVOE_D,36,1,1,58,D 67,,,TRUE,CV,q,848,cv,D,7,c,c,TRUE,1,1
CVOE_D,36,1,1,59,A 79,,,FALSE,CV,p,907,cv,A,9,v,v,TRUE,1,1
CVOE_D,36,1,1,60,S 52,,,FALSE,CV,q,532,cv,S,2,c,c,TRUE,1,1
CVOE_D,36,1,1,61,U 16,,,TRUE,CV,p,597,cv,U,6,v,v,TRUE,1,1
CVOE_D,36,1,1,62,O 82,,,TRUE,CV,p,1046,cv,O,2,v,v,TRUE,1,1
CVOE_D,36,1,1,63,H 87,,,TRUE,CV,q,572,cv,H,7,c,c,TRUE,1,1
CVOE_D,36,1,1,64,I 32,,,TRUE,CV,p,784,cv,I,2,v,v,TRUE,1,1
CVOE_D,36,1,1,65,U 37,,,FALSE,CV,p,1420,cv,U,7,v,v,TRUE,1,1
CVOE_D,36,1,1,66,I 42,,,TRUE,CV,p,848,cv,I,2,v,v,TRUE,1,1
CVOE_D,36,1,1,67,D 65,,,TRUE,CV,q,509,cv,D,5,c,c,TRUE,1,1
CVOE_D,36,1,1,68,U 77,,,FALSE,CV,q,1079,cv,U,7,v,c,FALSE,0,0
CVOE_D,36,1,1,69,E 12,,,TRUE,CV,q,2310,cv,E,2,v,c,FALSE,0,0
CVOE_D,36,1,1,70,I 60,,,TRUE,CV,q,1167,cv,I,0,v,c,FALSE,0,0
CVOE_D,36,1,1,71,J 36,,,FALSE,CV,q,483,cv,J,6,c,c,TRUE,1,1
CVOE_D,36,1,1,72,H 75,,,TRUE,CV,q,635,cv,H,5,c,c,TRUE,1,1
CVOE_D,36,1,1,73,I 50,,,TRUE,CV,p,5606,cv,I,0,v,v,TRUE,1,1
CVOE_D,36,1,1,74,E 99,,,FALSE,CV,p,2413,cv,E,9,v,v,TRUE,1,1
CVOE_D,36,1,1,75,A 86,,,TRUE,CV,p,1004,cv,A,6,v,v,TRUE,1,1
CVOE_D,36,1,1,76,U 48,,,TRUE,CV,p,607,cv,U,8,v,v,TRUE,1,1
CVOE_D,36,1,1,77,E 01,,,FALSE,CV,p,1767,cv,E,1,v,v,TRUE,1,1
CVOE_D,36,1,1,78,A 78,,,TRUE,CV,p,868,cv,A,8,v,v,TRUE,1,1
CVOE_D,36,1,1,79,P 60,,,FALSE,CV,q,414,cv,P,0,c,c,TRUE,1,1
CVOE_D,36,1,1,80,E 43,,,FALSE,CV,p,814,cv,E,3,v,v,TRUE,1,1
CVOE_D,36,1,1,81,D 69,,,TRUE,CV,q,3115,cv,D,9,c,c,TRUE,1,1
CVOE_D,36,1,1,82,H 11,,,TRUE,CV,q,523,cv,H,1,c,c,TRUE,1,1
CVOE_D,36,1,1,83,P 43,,,TRUE,CV,q,706,cv,P,3,c,c,TRUE,1,1
CVOE_D,36,1,1,84,O 67,,,FALSE,CV,p,732,cv,O,7,v,v,TRUE,1,1
CVOE_D,36,1,1,85,S 91,,,FALSE,CV,q,2951,cv,S,1,c,c,TRUE,1,1
CVOE_D,36,1,1,86,J 68,,,TRUE,CV,q,438,cv,J,8,c,c,TRUE,1,1
CVOE_D,36,1,1,87,S 47,,,FALSE,CV,q,597,cv,S,7,c,c,TRUE,1,1
CVOE_D,36,1,1,88,I 81,,,TRUE,CV,p,569,cv,I,1,v,v,TRUE,1,1
CVOE_D,36,1,1,89,J 39,,,FALSE,CV,q,674,cv,J,9,c,c,TRUE,1,1
CVOE_D,36,1,1,90,A 11,,,TRUE,CV,p,559,cv,A,1,v,v,TRUE,1,1
CVOE_D,36,1,1,91,O 76,,,FALSE,CV,q,398,cv,O,6,v,c,FALSE,0,0
CVOE_D,36,1,1,92,A 62,,,FALSE,CV,p,859,cv,A,2,v,v,TRUE,1,1
CVOE_D,36,1,1,93,O 27,,,TRUE,CV,p,429,cv,O,7,v,v,TRUE,1,1
CVOE_D,36,1,1,94,E 66,,,FALSE,CV,p,2330,cv,E,6,v,v,TRUE,1,1
CVOE_D,36,1,1,95,J 62,,,TRUE,CV,q,1034,cv,J,2,c,c,TRUE,1,1
CVOE_D,36,1,1,96,H 72,,,TRUE,CV,q,1847,cv,H,2,c,c,TRUE,1,1
CVOE_D,36,1,1,97,E 49,,,TRUE,CV,p,611,cv,E,9,v,v,TRUE,1,1
CVOE_D,36,1,1,98,D 52,,,TRUE,CV,q,604,cv,D,2,c,c,TRUE,1,1
CVOE_D,36,1,1,99,H 62,,,TRUE,CV,q,886,cv,H,2,c,c,TRUE,1,1
CVOE_D,36,1,1,100,I 11,,,TRUE,CV,q,424,cv,I,1,v,c,FALSE,0,0
CVOE_D,36,1,1,101,A 98,,,FALSE,CV,p,632,cv,A,8,v,v,TRUE,1,1
CVOE_D,36,1,1,102,H 29,,,FALSE,CV,q,597,cv,H,9,c,c,TRUE,1,1
CVOE_D,36,1,1,103,E 83,,,TRUE,CV,p,480,cv,E,3,v,v,TRUE,1,1
CVOE_D,36,1,1,104,D 43,,,FALSE,CV,q,516,cv,D,3,c,c,TRUE,1,1
CVOE_D,36,1,1,105,P 45,,,TRUE,CV,q,583,cv,P,5,c,c,TRUE,1,1
CVOE_D,36,1,1,106,J 17,,,TRUE,CV,q,584,cv,J,7,c,c,TRUE,1,1
CVOE_D,40,1,1,11,A 71,,,FALSE,CV,p,2887,cv,A,1,v,v,TRUE,1,1
CVOE_D,40,1,1,12,I 66,,,TRUE,CV,p,644,cv,I,6,v,v,TRUE,1,1
CVOE_D,40,1,1,13,S 30,,,FALSE,CV,q,588,cv,S,0,c,c,TRUE,1,1
CVOE_D,40,1,1,14,D 20,,,FALSE,CV,q,602,cv,D,0,c,c,TRUE,1,1
CVOE_D,40,1,1,15,I 31,,,FALSE,CV,p,538,cv,I,1,v,v,TRUE,1,1
CVOE_D,40,1,1,16,P 16,,,FALSE,CV,q,493,cv,P,6,c,c,TRUE,1,1
CVOE_D,40,1,1,17,A 49,,,FALSE,CV,p,816,cv,A,9,v,v,TRUE,1,1
CVOE_D,40,1,1,18,O 64,,,TRUE,CV,p,572,cv,O,4,v,v,TRUE,1,1
CVOE_D,40,1,1,19,D 02,,,FALSE,CV,q,567,cv,D,2,c,c,TRUE,1,1
CVOE_D,40,1,1,20,P 81,,,TRUE,CV,q,759,cv,P,1,c,c,TRUE,1,1
CVOE_D,40,1,1,21,J 58,,,FALSE,CV,q,535,cv,J,8,c,c,TRUE,1,1
CVOE_D,40,1,1,22,A 22,,,TRUE,CV,p,547,cv,A,2,v,v,TRUE,1,1
CVOE_D,40,1,1,23,J 72,,,FALSE,CV,q,488,cv,J,2,c,c,TRUE,1,1
CVOE_D,40,1,1,24,P 91,,,TRUE,CV,q,923,cv,P,1,c,c,TRUE,1,1
CVOE_D,40,1,1,25,E 19,,,FALSE,CV,p,555,cv,E,9,v,v,TRUE,1,1
CVOE_D,40,1,1,26,I 30,,,TRUE,CV,p,524,cv,I,0,v,v,TRUE,1,1
CVOE_D,40,1,1,27,D 91,,,TRUE,CV,q,413,cv,D,1,c,c,TRUE,1,1
CVOE_D,40,1,1,28,O 48,,,TRUE,CV,p,448,cv,O,8,v,v,TRUE,1,1
CVOE_D,40,1,1,29,A 89,,,FALSE,CV,q,450,cv,A,9,v,c,FALSE,0,0
CVOE_D,40,1,1,30,U 11,,,FALSE,CV,q,870,cv,U,1,v,c,FALSE,0,0
CVOE_D,40,1,1,31,I 76,,,TRUE,CV,p,524,cv,I,6,v,v,TRUE,1,1
CVOE_D,40,1,1,32,U 89,,,FALSE,CV,q,604,cv,U,9,v,c,FALSE,0,0
CVOE_D,40,1,1,33,D 63,,,TRUE,CV,q,1276,cv,D,3,c,c,TRUE,1,1
CVOE_D,40,1,1,34,H 70,,,FALSE,CV,q,732,cv,H,0,c,c,TRUE,1,1
CVOE_D,40,1,1,35,D 48,,,FALSE,CV,q,575,cv,D,8,c,c,TRUE,1,1
CVOE_D,40,1,1,36,P 56,,,FALSE,CV,q,642,cv,P,6,c,c,TRUE,1,1
CVOE_D,40,1,1,37,O 77,,,FALSE,CV,p,603,cv,O,7,v,v,TRUE,1,1
CVOE_D,40,1,1,38,P 42,,,FALSE,CV,q,475,cv,P,2,c,c,TRUE,1,1
CVOE_D,40,1,1,39,H 22,,,FALSE,CV,q,564,cv,H,2,c,c,TRUE,1,1
CVOE_D,40,1,1,40,E 42,,,TRUE,CV,p,540,cv,E,2,v,v,TRUE,1,1
CVOE_D,40,1,1,41,J 28,,,FALSE,CV,q,538,cv,J,8,c,c,TRUE,1,1
CVOE_D,40,1,1,42,E 95,,,FALSE,CV,p,822,cv,E,5,v,v,TRUE,1,1
CVOE_D,40,1,1,43,S 63,,,TRUE,CV,q,572,cv,S,3,c,c,TRUE,1,1
CVOE_D,40,1,1,44,H 50,,,FALSE,CV,q,718,cv,H,0,c,c,TRUE,1,1
CVOE_D,40,1,1,45,S 33,,,TRUE,CV,q,511,cv,S,3,c,c,TRUE,1,1
CVOE_D,40,1,1,46,P 57,,,TRUE,CV,q,828,cv,P,7,c,c,TRUE,1,1
CVOE_D,40,1,1,47,E 23,,,FALSE,CV,p,602,cv,E,3,v,v,TRUE,1,1
CVOE_D,40,1,1,48,S 61,,,TRUE,CV,q,546,cv,S,1,c,c,TRUE,1,1
CVOE_D,40,1,1,49,U 67,,,FALSE,CV,p,736,cv,U,7,v,v,TRUE,1,1
CVOE_D,40,1,1,50,H 32,,,FALSE,CV,q,436,cv,H,2,c,c,TRUE,1,1
CVOE_D,40,1,1,51,U 50,,,TRUE,CV,p,493,cv,U,0,v,v,TRUE,1,1
CVOE_D,40,1,1,52,O 49,,,FALSE,CV,p,551,cv,O,9,v,v,TRUE,1,1
CVOE_D,40,1,1,53,U 32,,,TRUE,CV,p,620,cv,U,2,v,v,TRUE,1,1
CVOE_D,40,1,1,54,J 78,,,FALSE,CV,q,490,cv,J,8,c,c,TRUE,1,1
CVOE_D,40,1,1,55,S 54,,,FALSE,CV,q,477,cv,S,4,c,c,TRUE,1,1
CVOE_D,40,1,1,56,J 27,,,TRUE,CV,q,806,cv,J,7,c,c,TRUE,1,1
CVOE_D,40,1,1,57,S 06,,,FALSE,CV,q,486,cv,S,6,c,c,TRUE,1,1
CVOE_D,40,1,1,58,D 67,,,TRUE,CV,q,478,cv,D,7,c,c,TRUE,1,1
CVOE_D,40,1,1,59,A 79,,,FALSE,CV,p,551,cv,A,9,v,v,TRUE,1,1
CVOE_D,40,1,1,60,S 52,,,FALSE,CV,q,533,cv,S,2,c,c,TRUE,1,1
CVOE_D,40,1,1,61,U 16,,,TRUE,CV,p,512,cv,U,6,v,v,TRUE,1,1
CVOE_D,40,1,1,62,O 82,,,TRUE,CV,p,493,cv,O,2,v,v,TRUE,1,1
CVOE_D,40,1,1,63,H 87,,,TRUE,CV,q,864,cv,H,7,c,c,TRUE,1,1
CVOE_D,40,1,1,64,I 32,,,TRUE,CV,p,566,cv,I,2,v,v,TRUE,1,1
CVOE_D,40,1,1,65,U 37,,,FALSE,CV,p,601,cv,U,7,v,v,TRUE,1,1
CVOE_D,40,1,1,66,I 42,,,TRUE,CV,p,570,cv,I,2,v,v,TRUE,1,1
CVOE_D,40,1,1,67,D 65,,,TRUE,CV,q,413,cv,D,5,c,c,TRUE,1,1
CVOE_D,40,1,1,68,U 77,,,FALSE,CV,p,480,cv,U,7,v,v,TRUE,1,1
CVOE_D,40,1,1,69,E 12,,,TRUE,CV,q,520,cv,E,2,v,c,FALSE,0,0
CVOE_D,40,1,1,70,I 60,,,TRUE,CV,p,585,cv,I,0,v,v,TRUE,1,1
CVOE_D,40,1,1,71,J 36,,,FALSE,CV,q,502,cv,J,6,c,c,TRUE,1,1
CVOE_D,40,1,1,72,H 75,,,TRUE,CV,q,476,cv,H,5,c,c,TRUE,1,1
CVOE_D,40,1,1,73,I 50,,,TRUE,CV,p,517,cv,I,0,v,v,TRUE,1,1
CVOE_D,40,1,1,74,E 99,,,FALSE,CV,p,501,cv,E,9,v,v,TRUE,1,1
CVOE_D,40,1,1,75,A 86,,,TRUE,CV,p,587,cv,A,6,v,v,TRUE,1,1
CVOE_D,40,1,1,76,U 48,,,TRUE,CV,p,536,cv,U,8,v,v,TRUE,1,1
CVOE_D,40,1,1,77,E 01,,,FALSE,CV,p,484,cv,E,1,v,v,TRUE,1,1
CVOE_D,40,1,1,78,A 78,,,TRUE,CV,p,949,cv,A,8,v,v,TRUE,1,1
CVOE_D,40,1,1,79,P 60,,,FALSE,CV,q,410,cv,P,0,c,c,TRUE,1,1
CVOE_D,40,1,1,80,E 43,,,FALSE,CV,p,453,cv,E,3,v,v,TRUE,1,1
CVOE_D,40,1,1,81,D 69,,,TRUE,CV,q,440,cv,D,9,c,c,TRUE,1,1
CVOE_D,40,1,1,82,H 11,,,TRUE,CV,q,648,cv,H,1,c,c,TRUE,1,1
CVOE_D,40,1,1,83,P 43,,,TRUE,CV,p,635,cv,P,3,c,v,FALSE,0,0
CVOE_D,40,1,1,84,O 67,,,FALSE,CV,p,524,cv,O,7,v,v,TRUE,1,1
CVOE_D,40,1,1,85,S 91,,,FALSE,CV,q,460,cv,S,1,c,c,TRUE,1,1
CVOE_D,40,1,1,86,J 68,,,TRUE,CV,q,514,cv,J,8,c,c,TRUE,1,1
CVOE_D,40,1,1,87,S 47,,,FALSE,CV,q,394,cv,S,7,c,c,TRUE,1,1
CVOE_D,40,1,1,88,I 81,,,TRUE,CV,p,451,cv,I,1,v,v,TRUE,1,1
CVOE_D,40,1,1,89,J 39,,,FALSE,CV,q,406,cv,J,9,c,c,TRUE,1,1
CVOE_D,40,1,1,90,A 11,,,TRUE,CV,p,438,cv,A,1,v,v,TRUE,1,1
CVOE_D,40,1,1,91,O 76,,,FALSE,CV,p,502,cv,O,6,v,v,TRUE,1,1
CVOE_D,40,1,1,92,A 62,,,FALSE,CV,p,404,cv,A,2,v,v,TRUE,1,1
CVOE_D,40,1,1,93,O 27,,,TRUE,CV,p,380,cv,O,7,v,v,TRUE,1,1
CVOE_D,40,1,1,94,E 66,,,FALSE,CV,p,410,cv,E,6,v,v,TRUE,1,1
CVOE_D,40,1,1,95,J 62,,,TRUE,CV,q,437,cv,J,2,c,c,TRUE,1,1
CVOE_D,40,1,1,96,H 72,,,TRUE,CV,q,470,cv,H,2,c,c,TRUE,1,1
CVOE_D,40,1,1,97,E 49,,,TRUE,CV,p,515,cv,E,9,v,v,TRUE,1,1
CVOE_D,40,1,1,98,D 52,,,TRUE,CV,q,1076,cv,D,2,c,c,TRUE,1,1
CVOE_D,40,1,1,99,H 62,,,TRUE,CV,q,388,cv,H,2,c,c,TRUE,1,1
CVOE_D,40,1,1,100,I 11,,,TRUE,CV,p,482,cv,I,1,v,v,TRUE,1,1
CVOE_D,40,1,1,101,A 98,,,FALSE,CV,p,506,cv,A,8,v,v,TRUE,1,1
CVOE_D,40,1,1,102,H 29,,,FALSE,CV,q,520,cv,H,9,c,c,TRUE,1,1
CVOE_D,40,1,1,103,E 83,,,TRUE,CV,p,448,cv,E,3,v,v,TRUE,1,1
CVOE_D,40,1,1,104,D 43,,,FALSE,CV,q,524,cv,D,3,c,c,TRUE,1,1
CVOE_D,40,1,1,105,P 45,,,TRUE,CV,q,388,cv,P,5,c,c,TRUE,1,1
CVOE_D,40,1,1,106,J 17,,,TRUE,CV,q,466,cv,J,7,c,c,TRUE,1,1
CVOE_D,44,1,1,11,A 71,,,FALSE,CV,p,3092,cv,A,1,v,v,TRUE,1,1
CVOE_D,44,1,1,12,I 66,,,TRUE,CV,p,941,cv,I,6,v,v,TRUE,1,1
CVOE_D,44,1,1,13,S 30,,,FALSE,CV,q,660,cv,S,0,c,c,TRUE,1,1
CVOE_D,44,1,1,14,D 20,,,FALSE,CV,q,2335,cv,D,0,c,c,TRUE,1,1
CVOE_D,44,1,1,15,I 31,,,FALSE,CV,p,655,cv,I,1,v,v,TRUE,1,1
CVOE_D,44,1,1,16,P 16,,,FALSE,CV,q,898,cv,P,6,c,c,TRUE,1,1
CVOE_D,44,1,1,17,A 49,,,FALSE,CV,p,1157,cv,A,9,v,v,TRUE,1,1
CVOE_D,44,1,1,18,O 64,,,TRUE,CV,p,573,cv,O,4,v,v,TRUE,1,1
CVOE_D,44,1,1,19,D 02,,,FALSE,CV,q,604,cv,D,2,c,c,TRUE,1,1
CVOE_D,44,1,1,20,P 81,,,TRUE,CV,q,1017,cv,P,1,c,c,TRUE,1,1
CVOE_D,44,1,1,21,J 58,,,FALSE,CV,q,436,cv,J,8,c,c,TRUE,1,1
CVOE_D,44,1,1,22,A 22,,,TRUE,CV,p,546,cv,A,2,v,v,TRUE,1,1
CVOE_D,44,1,1,23,J 72,,,FALSE,CV,q,485,cv,J,2,c,c,TRUE,1,1
CVOE_D,44,1,1,24,P 91,,,TRUE,CV,q,763,cv,P,1,c,c,TRUE,1,1
CVOE_D,44,1,1,25,E 19,,,FALSE,CV,p,588,cv,E,9,v,v,TRUE,1,1
CVOE_D,44,1,1,26,I 30,,,TRUE,CV,p,554,cv,I,0,v,v,TRUE,1,1
CVOE_D,44,1,1,27,D 91,,,TRUE,CV,q,421,cv,D,1,c,c,TRUE,1,1
CVOE_D,44,1,1,28,O 48,,,TRUE,CV,p,521,cv,O,8,v,v,TRUE,1,1
CVOE_D,44,1,1,29,A 89,,,FALSE,CV,q,531,cv,A,9,v,c,FALSE,0,0
CVOE_D,44,1,1,30,U 11,,,FALSE,CV,p,3794,cv,U,1,v,v,TRUE,1,1
CVOE_D,44,1,1,31,I 76,,,TRUE,CV,p,550,cv,I,6,v,v,TRUE,1,1
CVOE_D,44,1,1,32,U 89,,,FALSE,CV,p,564,cv,U,9,v,v,TRUE,1,1
CVOE_D,44,1,1,33,D 63,,,TRUE,CV,q,627,cv,D,3,c,c,TRUE,1,1
CVOE_D,44,1,1,34,H 70,,,FALSE,CV,q,598,cv,H,0,c,c,TRUE,1,1
CVOE_D,44,1,1,35,D 48,,,FALSE,CV,q,514,cv,D,8,c,c,TRUE,1,1
CVOE_D,44,1,1,36,P 56,,,FALSE,CV,q,527,cv,P,6,c,c,TRUE,1,1
CVOE_D,44,1,1,37,O 77,,,FALSE,CV,p,371,cv,O,7,v,v,TRUE,1,1
CVOE_D,44,1,1,38,P 42,,,FALSE,CV,q,974,cv,P,2,c,c,TRUE,1,1
CVOE_D,44,1,1,39,H 22,,,FALSE,CV,q,724,cv,H,2,c,c,TRUE,1,1
CVOE_D,44,1,1,40,E 42,,,TRUE,CV,p,451,cv,E,2,v,v,TRUE,1,1
CVOE_D,44,1,1,41,J 28,,,FALSE,CV,q,384,cv,J,8,c,c,TRUE,1,1
CVOE_D,44,1,1,42,E 95,,,FALSE,CV,p,377,cv,E,5,v,v,TRUE,1,1
CVOE_D,44,1,1,43,S 63,,,TRUE,CV,q,503,cv,S,3,c,c,TRUE,1,1
CVOE_D,44,1,1,44,H 50,,,FALSE,CV,q,592,cv,H,0,c,c,TRUE,1,1
CVOE_D,44,1,1,45,S 33,,,TRUE,CV,q,439,cv,S,3,c,c,TRUE,1,1
CVOE_D,44,1,1,46,P 57,,,TRUE,CV,q,328,cv,P,7,c,c,TRUE,1,1
CVOE_D,44,1,1,47,E 23,,,FALSE,CV,p,849,cv,E,3,v,v,TRUE,1,1
CVOE_D,44,1,1,48,S 61,,,TRUE,CV,q,559,cv,S,1,c,c,TRUE,1,1
CVOE_D,44,1,1,49,U 67,,,FALSE,CV,p,601,cv,U,7,v,v,TRUE,1,1
CVOE_D,44,1,1,50,H 32,,,FALSE,CV,q,713,cv,H,2,c,c,TRUE,1,1
CVOE_D,44,1,1,51,U 50,,,TRUE,CV,p,820,cv,U,0,v,v,TRUE,1,1
CVOE_D,44,1,1,52,O 49,,,FALSE,CV,p,456,cv,O,9,v,v,TRUE,1,1
CVOE_D,44,1,1,53,U 32,,,TRUE,CV,p,432,cv,U,2,v,v,TRUE,1,1
CVOE_D,44,1,1,54,J 78,,,FALSE,CV,q,466,cv,J,8,c,c,TRUE,1,1
CVOE_D,44,1,1,55,S 54,,,FALSE,CV,q,659,cv,S,4,c,c,TRUE,1,1
CVOE_D,44,1,1,56,J 27,,,TRUE,CV,q,637,cv,J,7,c,c,TRUE,1,1
CVOE_D,44,1,1,57,S 06,,,FALSE,CV,q,408,cv,S,6,c,c,TRUE,1,1
CVOE_D,44,1,1,58,D 67,,,TRUE,CV,q,506,cv,D,7,c,c,TRUE,1,1
CVOE_D,44,1,1,59,A 79,,,FALSE,CV,p,450,cv,A,9,v,v,TRUE,1,1
CVOE_D,44,1,1,60,S 52,,,FALSE,CV,q,438,cv,S,2,c,c,TRUE,1,1
CVOE_D,44,1,1,61,U 16,,,TRUE,CV,p,385,cv,U,6,v,v,TRUE,1,1
CVOE_D,44,1,1,62,O 82,,,TRUE,CV,p,474,cv,O,2,v,v,TRUE,1,1
CVOE_D,44,1,1,63,H 87,,,TRUE,CV,q,529,cv,H,7,c,c,TRUE,1,1
CVOE_D,44,1,1,64,I 32,,,TRUE,CV,p,1020,cv,I,2,v,v,TRUE,1,1
CVOE_D,44,1,1,65,U 37,,,FALSE,CV,p,427,cv,U,7,v,v,TRUE,1,1
CVOE_D,44,1,1,66,I 42,,,TRUE,CV,p,349,cv,I,2,v,v,TRUE,1,1
CVOE_D,44,1,1,67,D 65,,,TRUE,CV,q,398,cv,D,5,c,c,TRUE,1,1
CVOE_D,44,1,1,68,U 77,,,FALSE,CV,p,332,cv,U,7,v,v,TRUE,1,1
CVOE_D,44,1,1,69,E 12,,,TRUE,CV,p,337,cv,E,2,v,v,TRUE,1,1
CVOE_D,44,1,1,70,I 60,,,TRUE,CV,p,309,cv,I,0,v,v,TRUE,1,1
CVOE_D,44,1,1,71,J 36,,,FALSE,CV,p,401,cv,J,6,c,v,FALSE,0,0
CVOE_D,44,1,1,72,H 75,,,TRUE,CV,q,853,cv,H,5,c,c,TRUE,1,1
CVOE_D,44,1,1,73,I 50,,,TRUE,CV,p,1075,cv,I,0,v,v,TRUE,1,1
CVOE_D,44,1,1,74,E 99,,,FALSE,CV,p,815,cv,E,9,v,v,TRUE,1,1
CVOE_D,44,1,1,75,A 86,,,TRUE,CV,p,950,cv,A,6,v,v,TRUE,1,1
CVOE_D,44,1,1,76,U 48,,,TRUE,CV,p,471,cv,U,8,v,v,TRUE,1,1
CVOE_D,44,1,1,77,E 01,,,FALSE,CV,p,357,cv,E,1,v,v,TRUE,1,1
CVOE_D,44,1,1,78,A 78,,,TRUE,CV,p,349,cv,A,8,v,v,TRUE,1,1
CVOE_D,44,1,1,79,P 60,,,FALSE,CV,q,411,cv,P,0,c,c,TRUE,1,1
CVOE_D,44,1,1,80,E 43,,,FALSE,CV,p,781,cv,E,3,v,v,TRUE,1,1
CVOE_D,44,1,1,81,D 69,,,TRUE,CV,q,441,cv,D,9,c,c,TRUE,1,1
CVOE_D,44,1,1,82,H 11,,,TRUE,CV,q,413,cv,H,1,c,c,TRUE,1,1
CVOE_D,44,1,1,83,P 43,,,TRUE,CV,q,526,cv,P,3,c,c,TRUE,1,1
CVOE_D,44,1,1,84,O 67,,,FALSE,CV,p,601,cv,O,7,v,v,TRUE,1,1
CVOE_D,44,1,1,85,S 91,,,FALSE,CV,q,554,cv,S,1,c,c,TRUE,1,1
CVOE_D,44,1,1,86,J 68,,,TRUE,CV,q,694,cv,J,8,c,c,TRUE,1,1
CVOE_D,44,1,1,87,S 47,,,FALSE,CV,q,360,cv,S,7,c,c,TRUE,1,1
CVOE_D,44,1,1,88,I 81,,,TRUE,CV,p,452,cv,I,1,v,v,TRUE,1,1
CVOE_D,44,1,1,89,J 39,,,FALSE,CV,q,564,cv,J,9,c,c,TRUE,1,1
CVOE_D,44,1,1,90,A 11,,,TRUE,CV,p,419,cv,A,1,v,v,TRUE,1,1
CVOE_D,44,1,1,91,O 76,,,FALSE,CV,p,405,cv,O,6,v,v,TRUE,1,1
CVOE_D,44,1,1,92,A 62,,,FALSE,CV,p,364,cv,A,2,v,v,TRUE,1,1
CVOE_D,44,1,1,93,O 27,,,TRUE,CV,p,1001,cv,O,7,v,v,TRUE,1,1
CVOE_D,44,1,1,94,E 66,,,FALSE,CV,p,585,cv,E,6,v,v,TRUE,1,1
CVOE_D,44,1,1,95,J 62,,,TRUE,CV,q,784,cv,J,2,c,c,TRUE,1,1
CVOE_D,44,1,1,96,H 72,,,TRUE,CV,q,564,cv,H,2,c,c,TRUE,1,1
CVOE_D,44,1,1,97,E 49,,,TRUE,CV,p,514,cv,E,9,v,v,TRUE,1,1
CVOE_D,44,1,1,98,D 52,,,TRUE,CV,q,2242,cv,D,2,c,c,TRUE,1,1
CVOE_D,44,1,1,99,H 62,,,TRUE,CV,q,5415,cv,H,2,c,c,TRUE,1,1
CVOE_D,44,1,1,100,I 11,,,TRUE,CV,p,709,cv,I,1,v,v,TRUE,1,1
CVOE_D,44,1,1,101,A 98,,,FALSE,CV,p,3878,cv,A,8,v,v,TRUE,1,1
CVOE_D,44,1,1,102,H 29,,,FALSE,CV,q,547,cv,H,9,c,c,TRUE,1,1
CVOE_D,44,1,1,103,E 83,,,TRUE,CV,p,452,cv,E,3,v,v,TRUE,1,1
CVOE_D,44,1,1,104,D 43,,,FALSE,CV,q,704,cv,D,3,c,c,TRUE,1,1
CVOE_D,44,1,1,105,P 45,,,TRUE,CV,p,615,cv,P,5,c,v,FALSE,0,0
CVOE_D,44,1,1,106,J 17,,,TRUE,CV,q,1010,cv,J,7,c,c,TRUE,1,1
CVOE updated,37,1,2,11,A 24,,,TRUE,OE,p,2717,oe,A,4,e,e,TRUE,1,1
CVOE updated,37,1,2,12,O 83,,,FALSE,OE,q,943,oe,O,3,o,o,TRUE,1,1
CVOE updated,37,1,2,13,H 55,,,TRUE,OE,q,589,oe,H,5,o,o,TRUE,1,1
CVOE updated,37,1,2,14,P 10,,,FALSE,OE,p,594,oe,P,0,e,e,TRUE,1,1
CVOE updated,37,1,2,15,D 30,,,FALSE,OE,p,579,oe,D,0,e,e,TRUE,1,1
CVOE updated,37,1,2,16,U 62,,,TRUE,OE,p,599,oe,U,2,e,e,TRUE,1,1
CVOE updated,37,1,2,17,P 95,,,TRUE,OE,p,542,oe,P,5,o,e,FALSE,0,0
CVOE updated,37,1,2,18,U 06,,,TRUE,OE,p,652,oe,U,6,e,e,TRUE,1,1
CVOE updated,37,1,2,19,E 75,,,FALSE,OE,p,599,oe,E,5,o,e,FALSE,0,0
CVOE updated,37,1,2,20,I 67,,,FALSE,OE,q,808,oe,I,7,o,o,TRUE,1,1
CVOE updated,37,1,2,21,S 13,,,TRUE,OE,q,643,oe,S,3,o,o,TRUE,1,1
CVOE updated,37,1,2,22,P 78,,,FALSE,OE,p,787,oe,P,8,e,e,TRUE,1,1
CVOE updated,37,1,2,23,I 15,,,FALSE,OE,q,737,oe,I,5,o,o,TRUE,1,1
CVOE updated,37,1,2,24,D 27,,,TRUE,OE,q,788,oe,D,7,o,o,TRUE,1,1
CVOE updated,37,1,2,25,O 94,,,TRUE,OE,p,858,oe,O,4,e,e,TRUE,1,1
CVOE updated,37,1,2,26,A 65,,,FALSE,OE,q,669,oe,A,5,o,o,TRUE,1,1
CVOE updated,37,1,2,27,I 42,,,TRUE,OE,p,931,oe,I,2,e,e,TRUE,1,1
CVOE updated,37,1,2,28,E 25,,,FALSE,OE,q,774,oe,E,5,o,o,TRUE,1,1
CVOE updated,37,1,2,29,H 49,,,TRUE,OE,q,1281,oe,H,9,o,o,TRUE,1,1
CVOE updated,37,1,2,30,S 18,,,FALSE,OE,p,826,oe,S,8,e,e,TRUE,1,1
CVOE updated,37,1,2,31,H 51,,,TRUE,OE,q,904,oe,H,1,o,o,TRUE,1,1
CVOE updated,37,1,2,32,U 14,,,TRUE,OE,p,1150,oe,U,4,e,e,TRUE,1,1
CVOE updated,37,1,2,33,E 02,,,TRUE,OE,p,796,oe,E,2,e,e,TRUE,1,1
CVOE updated,37,1,2,34,J 26,,,FALSE,OE,p,1676,oe,J,6,e,e,TRUE,1,1
CVOE updated,37,1,2,35,D 24,,,FALSE,OE,p,741,oe,D,4,e,e,TRUE,1,1
CVOE updated,37,1,2,36,O 50,,,TRUE,OE,p,2107,oe,O,0,e,e,TRUE,1,1
CVOE updated,37,1,2,37,U 16,,,TRUE,OE,p,2465,oe,U,6,e,e,TRUE,1,1
CVOE updated,37,1,2,38,O 15,,,FALSE,OE,q,776,oe,O,5,o,o,TRUE,1,1
CVOE updated,37,1,2,39,D 32,,,FALSE,OE,p,1387,oe,D,2,e,e,TRUE,1,1
CVOE updated,37,1,2,40,S 67,,,TRUE,OE,q,761,oe,S,7,o,o,TRUE,1,1
CVOE updated,37,1,2,41,J 74,,,FALSE,OE,p,1473,oe,J,4,e,e,TRUE,1,1
CVOE updated,37,1,2,42,D 92,,,FALSE,OE,p,882,oe,D,2,e,e,TRUE,1,1
CVOE updated,37,1,2,43,A 65,,,FALSE,OE,q,579,oe,A,5,o,o,TRUE,1,1
CVOE updated,37,1,2,44,I 87,,,FALSE,OE,q,582,oe,I,7,o,o,TRUE,1,1
CVOE updated,37,1,2,45,H 61,,,TRUE,OE,q,516,oe,H,1,o,o,TRUE,1,1
CVOE updated,37,1,2,46,E 59,,,FALSE,OE,q,468,oe,E,9,o,o,TRUE,1,1
CVOE updated,37,1,2,47,I 33,,,FALSE,OE,q,458,oe,I,3,o,o,TRUE,1,1
CVOE updated,37,1,2,48,O 90,,,TRUE,OE,p,565,oe,O,0,e,e,TRUE,1,1
CVOE updated,37,1,2,49,U 51,,,FALSE,OE,q,517,oe,U,1,o,o,TRUE,1,1
CVOE updated,37,1,2,50,A 10,,,TRUE,OE,p,518,oe,A,0,e,e,TRUE,1,1
CVOE updated,37,1,2,51,E 50,,,TRUE,OE,q,622,oe,E,0,e,o,FALSE,0,0
CVOE updated,37,1,2,52,D 92,,,FALSE,OE,p,1060,oe,D,2,e,e,TRUE,1,1
CVOE updated,37,1,2,53,E 60,,,TRUE,OE,p,802,oe,E,0,e,e,TRUE,1,1
CVOE updated,37,1,2,54,A 95,,,FALSE,OE,p,546,oe,A,5,o,e,FALSE,0,0
CVOE updated,37,1,2,55,E 64,,,TRUE,OE,p,728,oe,E,4,e,e,TRUE,1,1
CVOE updated,37,1,2,56,P 20,,,FALSE,OE,p,571,oe,P,0,e,e,TRUE,1,1
CVOE updated,37,1,2,57,S 06,,,FALSE,OE,q,574,oe,S,6,e,o,FALSE,0,0
CVOE updated,37,1,2,58,P 64,,,FALSE,OE,p,753,oe,P,4,e,e,TRUE,1,1
CVOE updated,37,1,2,59,U 70,,,TRUE,OE,p,1754,oe,U,0,e,e,TRUE,1,1
CVOE updated,37,1,2,60,S 16,,,FALSE,OE,p,915,oe,S,6,e,e,TRUE,1,1
CVOE updated,37,1,2,61,E 35,,,FALSE,OE,q,1427,oe,E,5,o,o,TRUE,1,1
CVOE updated,37,1,2,62,I 93,,,FALSE,OE,q,1745,oe,I,3,o,o,TRUE,1,1
CVOE updated,37,1,2,63,D 63,,,TRUE,OE,q,711,oe,D,3,o,o,TRUE,1,1
CVOE updated,37,1,2,64,U 89,,,FALSE,OE,q,1373,oe,U,9,o,o,TRUE,1,1
CVOE updated,37,1,2,65,E 91,,,FALSE,OE,q,1105,oe,E,1,o,o,TRUE,1,1
CVOE updated,37,1,2,66,A 12,,,TRUE,OE,p,887,oe,A,2,e,e,TRUE,1,1
CVOE updated,37,1,2,67,P 56,,,FALSE,OE,p,714,oe,P,6,e,e,TRUE,1,1
CVOE updated,37,1,2,68,S 65,,,TRUE,OE,q,2826,oe,S,5,o,o,TRUE,1,1
CVOE updated,37,1,2,69,P 07,,,TRUE,OE,q,865,oe,P,7,o,o,TRUE,1,1
CVOE updated,37,1,2,70,I 77,,,FALSE,OE,q,1151,oe,I,7,o,o,TRUE,1,1
CVOE updated,37,1,2,71,J 19,,,TRUE,OE,q,1229,oe,J,9,o,o,TRUE,1,1
CVOE updated,37,1,2,72,O 59,,,FALSE,OE,p,2315,oe,O,9,o,e,FALSE,0,0
CVOE updated,37,1,2,73,J 15,,,TRUE,OE,p,892,oe,J,5,o,e,FALSE,0,0
CVOE updated,37,1,2,74,I 89,,,FALSE,OE,q,807,oe,I,9,o,o,TRUE,1,1
CVOE updated,37,1,2,75,O 97,,,FALSE,OE,q,842,oe,O,7,o,o,TRUE,1,1
CVOE updated,37,1,2,76,A 92,,,TRUE,OE,p,827,oe,A,2,e,e,TRUE,1,1
CVOE updated,37,1,2,77,J 90,,,FALSE,OE,p,1560,oe,J,0,e,e,TRUE,1,1
CVOE updated,37,1,2,78,H 65,,,TRUE,OE,q,1785,oe,H,5,o,o,TRUE,1,1
CVOE updated,37,1,2,79,H 17,,,TRUE,OE,q,880,oe,H,7,o,o,TRUE,1,1
CVOE updated,37,1,2,80,S 26,,,FALSE,OE,p,1072,oe,S,6,e,e,TRUE,1,1
CVOE updated,37,1,2,81,D 56,,,FALSE,OE,p,1342,oe,D,6,e,e,TRUE,1,1
CVOE updated,37,1,2,82,I 91,,,FALSE,OE,q,852,oe,I,1,o,o,TRUE,1,1
CVOE updated,37,1,2,83,J 11,,,TRUE,OE,p,2615,oe,J,1,o,e,FALSE,0,0
CVOE updated,37,1,2,84,O 28,,,TRUE,OE,p,1451,oe,O,8,e,e,TRUE,1,1
CVOE updated,37,1,2,85,H 29,,,TRUE,OE,q,639,oe,H,9,o,o,TRUE,1,1
CVOE updated,37,1,2,86,J 25,,,TRUE,OE,q,663,oe,J,5,o,o,TRUE,1,1
CVOE updated,37,1,2,87,A 73,,,FALSE,OE,q,901,oe,A,3,o,o,TRUE,1,1
CVOE updated,37,1,2,88,J 63,,,TRUE,OE,q,611,oe,J,3,o,o,TRUE,1,1
CVOE updated,37,1,2,89,U 84,,,TRUE,OE,p,678,oe,U,4,e,e,TRUE,1,1
CVOE updated,37,1,2,90,A 58,,,TRUE,OE,p,1270,oe,A,8,e,e,TRUE,1,1
CVOE updated,37,1,2,91,S 43,,,TRUE,OE,q,2812,oe,S,3,o,o,TRUE,1,1
CVOE updated,37,1,2,92,H 54,,,FALSE,OE,p,1016,oe,H,4,e,e,TRUE,1,1
CVOE updated,37,1,2,93,D 4,,,FALSE,OE,q,1051,oe,D,NA,o,o,TRUE,1,1
CVOE updated,37,1,2,94,J 75,,,TRUE,OE,q,1015,oe,J,5,o,o,TRUE,1,1
CVOE updated,37,1,2,95,D 19,,,TRUE,OE,q,698,oe,D,9,o,o,TRUE,1,1
CVOE updated,37,1,2,96,J 38,,,FALSE,OE,q,757,oe,J,8,e,o,FALSE,0,0
CVOE updated,37,1,2,97,I 56,,,TRUE,OE,p,854,oe,I,6,e,e,TRUE,1,1
CVOE updated,37,1,2,98,P 87,,,TRUE,OE,q,3289,oe,P,7,o,o,TRUE,1,1
CVOE updated,37,1,2,99,O 80,,,TRUE,OE,p,725,oe,O,0,e,e,TRUE,1,1
CVOE updated,37,1,2,100,U 60,,,TRUE,OE,q,1269,oe,U,0,e,o,FALSE,0,0
CVOE updated,37,1,2,101,P 48,,,FALSE,OE,p,3091,oe,P,8,e,e,TRUE,1,1
CVOE updated,37,1,2,102,H 64,,,FALSE,OE,p,831,oe,H,4,e,e,TRUE,1,1
CVOE updated,37,1,2,103,A 13,,,FALSE,OE,q,901,oe,A,3,o,o,TRUE,1,1
CVOE updated,37,1,2,104,H 68,,,FALSE,OE,p,1811,oe,H,8,e,e,TRUE,1,1
CVOE updated,37,1,2,105,E 16,,,TRUE,OE,p,1023,oe,E,6,e,e,TRUE,1,1
CVOE updated,37,1,2,106,S 71,,,TRUE,OE,q,1029,oe,S,1,o,o,TRUE,1,1
CVOE updated,41,1,2,11,A 24,,,TRUE,OE,p,1672,oe,A,4,e,e,TRUE,1,1
CVOE updated,41,1,2,12,O 83,,,FALSE,OE,q,1067,oe,O,3,o,o,TRUE,1,1
CVOE updated,41,1,2,13,H 55,,,TRUE,OE,p,714,oe,H,5,o,e,FALSE,0,0
CVOE updated,41,1,2,14,P 10,,,FALSE,OE,p,660,oe,P,0,e,e,TRUE,1,1
CVOE updated,41,1,2,15,D 30,,,FALSE,OE,p,664,oe,D,0,e,e,TRUE,1,1
CVOE updated,41,1,2,16,U 62,,,TRUE,OE,p,1292,oe,U,2,e,e,TRUE,1,1
CVOE updated,41,1,2,17,P 95,,,TRUE,OE,q,708,oe,P,5,o,o,TRUE,1,1
CVOE updated,41,1,2,18,U 06,,,TRUE,OE,p,566,oe,U,6,e,e,TRUE,1,1
CVOE updated,41,1,2,19,E 75,,,FALSE,OE,q,536,oe,E,5,o,o,TRUE,1,1
CVOE updated,41,1,2,20,I 67,,,FALSE,OE,q,630,oe,I,7,o,o,TRUE,1,1
CVOE updated,41,1,2,21,S 13,,,TRUE,OE,q,575,oe,S,3,o,o,TRUE,1,1
CVOE updated,41,1,2,22,P 78,,,FALSE,OE,p,663,oe,P,8,e,e,TRUE,1,1
CVOE updated,41,1,2,23,I 15,,,FALSE,OE,q,435,oe,I,5,o,o,TRUE,1,1
CVOE updated,41,1,2,24,D 27,,,TRUE,OE,q,650,oe,D,7,o,o,TRUE,1,1
CVOE updated,41,1,2,25,O 94,,,TRUE,OE,p,512,oe,O,4,e,e,TRUE,1,1
CVOE updated,41,1,2,26,A 65,,,FALSE,OE,q,513,oe,A,5,o,o,TRUE,1,1
CVOE updated,41,1,2,27,I 42,,,TRUE,OE,p,598,oe,I,2,e,e,TRUE,1,1
CVOE updated,41,1,2,28,E 25,,,FALSE,OE,q,568,oe,E,5,o,o,TRUE,1,1
CVOE updated,41,1,2,29,H 49,,,TRUE,OE,q,785,oe,H,9,o,o,TRUE,1,1
CVOE updated,41,1,2,30,S 18,,,FALSE,OE,p,691,oe,S,8,e,e,TRUE,1,1
CVOE updated,41,1,2,31,H 51,,,TRUE,OE,q,527,oe,H,1,o,o,TRUE,1,1
CVOE updated,41,1,2,32,U 14,,,TRUE,OE,q,752,oe,U,4,e,o,FALSE,0,0
CVOE updated,41,1,2,33,E 02,,,TRUE,OE,p,513,oe,E,2,e,e,TRUE,1,1
CVOE updated,41,1,2,34,J 26,,,FALSE,OE,p,564,oe,J,6,e,e,TRUE,1,1
CVOE updated,41,1,2,35,D 24,,,FALSE,OE,p,435,oe,D,4,e,e,TRUE,1,1
CVOE updated,41,1,2,36,O 50,,,TRUE,OE,q,673,oe,O,0,e,o,FALSE,0,0
CVOE updated,41,1,2,37,U 16,,,TRUE,OE,p,527,oe,U,6,e,e,TRUE,1,1
CVOE updated,41,1,2,38,O 15,,,FALSE,OE,q,839,oe,O,5,o,o,TRUE,1,1
CVOE updated,41,1,2,39,D 32,,,FALSE,OE,p,573,oe,D,2,e,e,TRUE,1,1
CVOE updated,41,1,2,40,S 67,,,TRUE,OE,q,788,oe,S,7,o,o,TRUE,1,1
CVOE updated,41,1,2,41,J 74,,,FALSE,OE,p,753,oe,J,4,e,e,TRUE,1,1
CVOE updated,41,1,2,42,D 92,,,FALSE,OE,p,545,oe,D,2,e,e,TRUE,1,1
CVOE updated,41,1,2,43,A 65,,,FALSE,OE,q,753,oe,A,5,o,o,TRUE,1,1
CVOE updated,41,1,2,44,I 87,,,FALSE,OE,q,591,oe,I,7,o,o,TRUE,1,1
CVOE updated,41,1,2,45,H 61,,,TRUE,OE,q,873,oe,H,1,o,o,TRUE,1,1
CVOE updated,41,1,2,46,E 59,,,FALSE,OE,q,995,oe,E,9,o,o,TRUE,1,1
CVOE updated,41,1,2,47,I 33,,,FALSE,OE,q,1278,oe,I,3,o,o,TRUE,1,1
CVOE updated,41,1,2,48,O 90,,,TRUE,OE,p,480,oe,O,0,e,e,TRUE,1,1
CVOE updated,41,1,2,49,U 51,,,FALSE,OE,q,638,oe,U,1,o,o,TRUE,1,1
CVOE updated,41,1,2,50,A 10,,,TRUE,OE,p,473,oe,A,0,e,e,TRUE,1,1
CVOE updated,41,1,2,51,E 50,,,TRUE,OE,p,531,oe,E,0,e,e,TRUE,1,1
CVOE updated,41,1,2,52,D 92,,,FALSE,OE,p,586,oe,D,2,e,e,TRUE,1,1
CVOE updated,41,1,2,53,E 60,,,TRUE,OE,p,431,oe,E,0,e,e,TRUE,1,1
CVOE updated,41,1,2,54,A 95,,,FALSE,OE,q,531,oe,A,5,o,o,TRUE,1,1
CVOE updated,41,1,2,55,E 64,,,TRUE,OE,p,551,oe,E,4,e,e,TRUE,1,1
CVOE updated,41,1,2,56,P 20,,,FALSE,OE,q,491,oe,P,0,e,o,FALSE,0,0
CVOE updated,41,1,2,57,S 06,,,FALSE,OE,p,501,oe,S,6,e,e,TRUE,1,1
CVOE updated,41,1,2,58,P 64,,,FALSE,OE,p,330,oe,P,4,e,e,TRUE,1,1
CVOE updated,41,1,2,59,U 70,,,TRUE,OE,p,521,oe,U,0,e,e,TRUE,1,1
CVOE updated,41,1,2,60,S 16,,,FALSE,OE,p,499,oe,S,6,e,e,TRUE,1,1
CVOE updated,41,1,2,61,E 35,,,FALSE,OE,q,595,oe,E,5,o,o,TRUE,1,1
CVOE updated,41,1,2,62,I 93,,,FALSE,OE,p,548,oe,I,3,o,e,FALSE,0,0
CVOE updated,41,1,2,63,D 63,,,TRUE,OE,p,515,oe,D,3,o,e,FALSE,0,0
CVOE updated,41,1,2,64,U 89,,,FALSE,OE,q,336,oe,U,9,o,o,TRUE,1,1
CVOE updated,41,1,2,65,E 91,,,FALSE,OE,q,643,oe,E,1,o,o,TRUE,1,1
CVOE updated,41,1,2,66,A 12,,,TRUE,OE,p,479,oe,A,2,e,e,TRUE,1,1
CVOE updated,41,1,2,67,P 56,,,FALSE,OE,p,504,oe,P,6,e,e,TRUE,1,1
CVOE updated,41,1,2,68,S 65,,,TRUE,OE,q,548,oe,S,5,o,o,TRUE,1,1
CVOE updated,41,1,2,69,P 07,,,TRUE,OE,q,418,oe,P,7,o,o,TRUE,1,1
CVOE updated,41,1,2,70,I 77,,,FALSE,OE,q,699,oe,I,7,o,o,TRUE,1,1
CVOE updated,41,1,2,71,J 19,,,TRUE,OE,q,774,oe,J,9,o,o,TRUE,1,1
CVOE updated,41,1,2,72,O 59,,,FALSE,OE,q,411,oe,O,9,o,o,TRUE,1,1
CVOE updated,41,1,2,73,J 15,,,TRUE,OE,q,277,oe,J,5,o,o,TRUE,1,1
CVOE updated,41,1,2,74,I 89,,,FALSE,OE,q,626,oe,I,9,o,o,TRUE,1,1
CVOE updated,41,1,2,75,O 97,,,FALSE,OE,q,465,oe,O,7,o,o,TRUE,1,1
CVOE updated,41,1,2,76,A 92,,,TRUE,OE,q,470,oe,A,2,e,o,FALSE,0,0
CVOE updated,41,1,2,77,J 90,,,FALSE,OE,p,486,oe,J,0,e,e,TRUE,1,1
CVOE updated,41,1,2,78,H 65,,,TRUE,OE,q,882,oe,H,5,o,o,TRUE,1,1
CVOE updated,41,1,2,79,H 17,,,TRUE,OE,q,465,oe,H,7,o,o,TRUE,1,1
CVOE updated,41,1,2,80,S 26,,,FALSE,OE,p,447,oe,S,6,e,e,TRUE,1,1
CVOE updated,41,1,2,81,D 56,,,FALSE,OE,p,471,oe,D,6,e,e,TRUE,1,1
CVOE updated,41,1,2,82,I 91,,,FALSE,OE,q,565,oe,I,1,o,o,TRUE,1,1
CVOE updated,41,1,2,83,J 11,,,TRUE,OE,q,647,oe,J,1,o,o,TRUE,1,1
CVOE updated,41,1,2,84,O 28,,,TRUE,OE,q,603,oe,O,8,e,o,FALSE,0,0
CVOE updated,41,1,2,85,H 29,,,TRUE,OE,q,639,oe,H,9,o,o,TRUE,1,1
CVOE updated,41,1,2,86,J 25,,,TRUE,OE,p,412,oe,J,5,o,e,FALSE,0,0
CVOE updated,41,1,2,87,A 73,,,FALSE,OE,q,713,oe,A,3,o,o,TRUE,1,1
CVOE updated,41,1,2,88,J 63,,,TRUE,OE,q,425,oe,J,3,o,o,TRUE,1,1
CVOE updated,41,1,2,89,U 84,,,TRUE,OE,p,570,oe,U,4,e,e,TRUE,1,1
CVOE updated,41,1,2,90,A 58,,,TRUE,OE,p,649,oe,A,8,e,e,TRUE,1,1
CVOE updated,41,1,2,91,S 43,,,TRUE,OE,q,573,oe,S,3,o,o,TRUE,1,1
CVOE updated,41,1,2,92,H 54,,,FALSE,OE,p,810,oe,H,4,e,e,TRUE,1,1
CVOE updated,41,1,2,93,D 4,,,FALSE,OE,p,578,oe,D,NA,o,e,FALSE,0,0
CVOE updated,41,1,2,94,J 75,,,TRUE,OE,q,494,oe,J,5,o,o,TRUE,1,1
CVOE updated,41,1,2,95,D 19,,,TRUE,OE,q,539,oe,D,9,o,o,TRUE,1,1
CVOE updated,41,1,2,96,J 38,,,FALSE,OE,q,397,oe,J,8,e,o,FALSE,0,0
CVOE updated,41,1,2,97,I 56,,,TRUE,OE,p,485,oe,I,6,e,e,TRUE,1,1
CVOE updated,41,1,2,98,P 87,,,TRUE,OE,q,515,oe,P,7,o,o,TRUE,1,1
CVOE updated,41,1,2,99,O 80,,,TRUE,OE,p,488,oe,O,0,e,e,TRUE,1,1
CVOE updated,41,1,2,100,U 60,,,TRUE,OE,p,510,oe,U,0,e,e,TRUE,1,1
CVOE updated,41,1,2,101,P 48,,,FALSE,OE,p,292,oe,P,8,e,e,TRUE,1,1
CVOE updated,41,1,2,102,H 64,,,FALSE,OE,p,284,oe,H,4,e,e,TRUE,1,1
CVOE updated,41,1,2,103,A 13,,,FALSE,OE,q,463,oe,A,3,o,o,TRUE,1,1
CVOE updated,41,1,2,104,H 68,,,FALSE,OE,p,542,oe,H,8,e,e,TRUE,1,1
CVOE updated,41,1,2,105,E 16,,,TRUE,OE,q,560,oe,E,6,e,o,FALSE,0,0
CVOE updated,41,1,2,106,S 71,,,TRUE,OE,q,685,oe,S,1,o,o,TRUE,1,1
CVOE_B,34,1,1,11,A 24,,,TRUE,OE,p,1766,oe,A,4,e,e,TRUE,1,1
CVOE_B,34,1,1,12,O 83,,,FALSE,OE,q,751,oe,O,3,o,o,TRUE,1,1
CVOE_B,34,1,1,13,H 55,,,TRUE,OE,q,699,oe,H,5,o,o,TRUE,1,1
CVOE_B,34,1,1,14,P 10,,,FALSE,OE,p,649,oe,P,0,e,e,TRUE,1,1
CVOE_B,34,1,1,15,D 30,,,FALSE,OE,p,507,oe,D,0,e,e,TRUE,1,1
CVOE_B,34,1,1,16,U 62,,,TRUE,OE,p,607,oe,U,2,e,e,TRUE,1,1
CVOE_B,34,1,1,17,P 95,,,TRUE,OE,q,543,oe,P,5,o,o,TRUE,1,1
CVOE_B,34,1,1,18,U 06,,,TRUE,OE,p,631,oe,U,6,e,e,TRUE,1,1
CVOE_B,34,1,1,19,E 75,,,FALSE,OE,q,810,oe,E,5,o,o,TRUE,1,1
CVOE_B,34,1,1,20,I 67,,,FALSE,OE,q,681,oe,I,7,o,o,TRUE,1,1
CVOE_B,34,1,1,21,S 13,,,TRUE,OE,q,793,oe,S,3,o,o,TRUE,1,1
CVOE_B,34,1,1,22,P 78,,,FALSE,OE,p,498,oe,P,8,e,e,TRUE,1,1
CVOE_B,34,1,1,23,I 15,,,FALSE,OE,q,868,oe,I,5,o,o,TRUE,1,1
CVOE_B,34,1,1,24,D 27,,,TRUE,OE,q,815,oe,D,7,o,o,TRUE,1,1
CVOE_B,34,1,1,25,O 94,,,TRUE,OE,p,701,oe,O,4,e,e,TRUE,1,1
CVOE_B,34,1,1,26,A 65,,,FALSE,OE,q,769,oe,A,5,o,o,TRUE,1,1
CVOE_B,34,1,1,27,I 42,,,TRUE,OE,p,545,oe,I,2,e,e,TRUE,1,1
CVOE_B,34,1,1,28,E 25,,,FALSE,OE,q,596,oe,E,5,o,o,TRUE,1,1
CVOE_B,34,1,1,29,H 49,,,TRUE,OE,q,814,oe,H,9,o,o,TRUE,1,1
CVOE_B,34,1,1,30,S 18,,,FALSE,OE,p,642,oe,S,8,e,e,TRUE,1,1
CVOE_B,34,1,1,31,H 51,,,TRUE,OE,q,886,oe,H,1,o,o,TRUE,1,1
CVOE_B,34,1,1,32,U 14,,,TRUE,OE,p,774,oe,U,4,e,e,TRUE,1,1
CVOE_B,34,1,1,33,E 02,,,TRUE,OE,p,660,oe,E,2,e,e,TRUE,1,1
CVOE_B,34,1,1,34,J 26,,,FALSE,OE,p,451,oe,J,6,e,e,TRUE,1,1
CVOE_B,34,1,1,35,D 24,,,FALSE,OE,p,492,oe,D,4,e,e,TRUE,1,1
CVOE_B,34,1,1,36,O 50,,,TRUE,OE,p,540,oe,O,0,e,e,TRUE,1,1
CVOE_B,34,1,1,37,U 16,,,TRUE,OE,p,608,oe,U,6,e,e,TRUE,1,1
CVOE_B,34,1,1,38,O 15,,,FALSE,OE,q,571,oe,O,5,o,o,TRUE,1,1
CVOE_B,34,1,1,39,D 32,,,FALSE,OE,p,652,oe,D,2,e,e,TRUE,1,1
CVOE_B,34,1,1,40,S 67,,,TRUE,OE,q,589,oe,S,7,o,o,TRUE,1,1
CVOE_B,34,1,1,41,J 74,,,FALSE,OE,p,545,oe,J,4,e,e,TRUE,1,1
CVOE_B,34,1,1,42,D 92,,,FALSE,OE,p,613,oe,D,2,e,e,TRUE,1,1
CVOE_B,34,1,1,43,A 65,,,FALSE,OE,q,736,oe,A,5,o,o,TRUE,1,1
CVOE_B,34,1,1,44,I 87,,,FALSE,OE,q,933,oe,I,7,o,o,TRUE,1,1
CVOE_B,34,1,1,45,H 61,,,TRUE,OE,q,583,oe,H,1,o,o,TRUE,1,1
CVOE_B,34,1,1,46,E 59,,,FALSE,OE,q,616,oe,E,9,o,o,TRUE,1,1
CVOE_B,34,1,1,47,I 33,,,FALSE,OE,q,547,oe,I,3,o,o,TRUE,1,1
CVOE_B,34,1,1,48,O 90,,,TRUE,OE,p,664,oe,O,0,e,e,TRUE,1,1
CVOE_B,34,1,1,49,U 51,,,FALSE,OE,q,643,oe,U,1,o,o,TRUE,1,1
CVOE_B,34,1,1,50,A 10,,,TRUE,OE,p,1015,oe,A,0,e,e,TRUE,1,1
CVOE_B,34,1,1,51,E 50,,,TRUE,OE,p,617,oe,E,0,e,e,TRUE,1,1
CVOE_B,34,1,1,52,D 92,,,FALSE,OE,p,720,oe,D,2,e,e,TRUE,1,1
CVOE_B,34,1,1,53,E 60,,,TRUE,OE,p,739,oe,E,0,e,e,TRUE,1,1
CVOE_B,34,1,1,54,A 95,,,FALSE,OE,q,750,oe,A,5,o,o,TRUE,1,1
CVOE_B,34,1,1,55,E 64,,,TRUE,OE,p,895,oe,E,4,e,e,TRUE,1,1
CVOE_B,34,1,1,56,P 20,,,FALSE,OE,p,605,oe,P,0,e,e,TRUE,1,1
CVOE_B,34,1,1,57,S 06,,,FALSE,OE,p,785,oe,S,6,e,e,TRUE,1,1
CVOE_B,34,1,1,58,P 64,,,FALSE,OE,p,682,oe,P,4,e,e,TRUE,1,1
CVOE_B,34,1,1,59,U 70,,,TRUE,OE,p,580,oe,U,0,e,e,TRUE,1,1
CVOE_B,34,1,1,60,S 16,,,FALSE,OE,p,713,oe,S,6,e,e,TRUE,1,1
CVOE_B,34,1,1,61,E 35,,,FALSE,OE,q,532,oe,E,5,o,o,TRUE,1,1
CVOE_B,34,1,1,62,I 93,,,FALSE,OE,q,658,oe,I,3,o,o,TRUE,1,1
CVOE_B,34,1,1,63,D 63,,,TRUE,OE,q,1144,oe,D,3,o,o,TRUE,1,1
CVOE_B,34,1,1,64,U 89,,,FALSE,OE,q,783,oe,U,9,o,o,TRUE,1,1
CVOE_B,34,1,1,65,E 91,,,FALSE,OE,q,519,oe,E,1,o,o,TRUE,1,1
CVOE_B,34,1,1,66,A 12,,,TRUE,OE,p,561,oe,A,2,e,e,TRUE,1,1
CVOE_B,34,1,1,67,P 56,,,FALSE,OE,p,650,oe,P,6,e,e,TRUE,1,1
CVOE_B,34,1,1,68,S 65,,,TRUE,OE,q,749,oe,S,5,o,o,TRUE,1,1
CVOE_B,34,1,1,69,P 07,,,TRUE,OE,q,1070,oe,P,7,o,o,TRUE,1,1
CVOE_B,34,1,1,70,I 77,,,FALSE,OE,q,878,oe,I,7,o,o,TRUE,1,1
CVOE_B,34,1,1,71,J 19,,,TRUE,OE,q,787,oe,J,9,o,o,TRUE,1,1
CVOE_B,34,1,1,72,O 59,,,FALSE,OE,q,559,oe,O,9,o,o,TRUE,1,1
CVOE_B,34,1,1,73,J 15,,,TRUE,OE,q,613,oe,J,5,o,o,TRUE,1,1
CVOE_B,34,1,1,74,I 89,,,FALSE,OE,q,650,oe,I,9,o,o,TRUE,1,1
CVOE_B,34,1,1,75,O 97,,,FALSE,OE,q,626,oe,O,7,o,o,TRUE,1,1
CVOE_B,34,1,1,76,A 92,,,TRUE,OE,p,494,oe,A,2,e,e,TRUE,1,1
CVOE_B,34,1,1,77,J 90,,,FALSE,OE,p,582,oe,J,0,e,e,TRUE,1,1
CVOE_B,34,1,1,78,H 65,,,TRUE,OE,q,535,oe,H,5,o,o,TRUE,1,1
CVOE_B,34,1,1,79,H 17,,,TRUE,OE,q,630,oe,H,7,o,o,TRUE,1,1
CVOE_B,34,1,1,80,S 26,,,FALSE,OE,p,712,oe,S,6,e,e,TRUE,1,1
CVOE_B,34,1,1,81,D 56,,,FALSE,OE,p,556,oe,D,6,e,e,TRUE,1,1
CVOE_B,34,1,1,82,I 91,,,FALSE,OE,q,528,oe,I,1,o,o,TRUE,1,1
CVOE_B,34,1,1,83,J 11,,,TRUE,OE,q,555,oe,J,1,o,o,TRUE,1,1
CVOE_B,34,1,1,84,O 28,,,TRUE,OE,p,578,oe,O,8,e,e,TRUE,1,1
CVOE_B,34,1,1,85,H 29,,,TRUE,OE,q,719,oe,H,9,o,o,TRUE,1,1
CVOE_B,34,1,1,86,J 25,,,TRUE,OE,q,653,oe,J,5,o,o,TRUE,1,1
CVOE_B,34,1,1,87,A 73,,,FALSE,OE,q,647,oe,A,3,o,o,TRUE,1,1
CVOE_B,34,1,1,88,J 63,,,TRUE,OE,q,541,oe,J,3,o,o,TRUE,1,1
CVOE_B,34,1,1,89,U 84,,,TRUE,OE,p,552,oe,U,4,e,e,TRUE,1,1
CVOE_B,34,1,1,90,A 58,,,TRUE,OE,p,629,oe,A,8,e,e,TRUE,1,1
CVOE_B,34,1,1,91,S 43,,,TRUE,OE,q,626,oe,S,3,o,o,TRUE,1,1
CVOE_B,34,1,1,92,H 54,,,FALSE,OE,p,630,oe,H,4,e,e,TRUE,1,1
CVOE_B,34,1,1,93,D 4,,,FALSE,OE,p,552,oe,D,NA,o,e,FALSE,0,0
CVOE_B,34,1,1,94,J 75,,,TRUE,OE,q,642,oe,J,5,o,o,TRUE,1,1
CVOE_B,34,1,1,95,D 19,,,TRUE,OE,q,607,oe,D,9,o,o,TRUE,1,1
CVOE_B,34,1,1,96,J 38,,,FALSE,OE,p,511,oe,J,8,e,e,TRUE,1,1
CVOE_B,34,1,1,97,I 56,,,TRUE,OE,p,577,oe,I,6,e,e,TRUE,1,1
CVOE_B,34,1,1,98,P 87,,,TRUE,OE,q,662,oe,P,7,o,o,TRUE,1,1
CVOE_B,34,1,1,99,O 80,,,TRUE,OE,p,478,oe,O,0,e,e,TRUE,1,1
CVOE_B,34,1,1,100,U 60,,,TRUE,OE,p,728,oe,U,0,e,e,TRUE,1,1
CVOE_B,34,1,1,101,P 48,,,FALSE,OE,p,591,oe,P,8,e,e,TRUE,1,1
CVOE_B,34,1,1,102,H 64,,,FALSE,OE,p,556,oe,H,4,e,e,TRUE,1,1
CVOE_B,34,1,1,103,A 13,,,FALSE,OE,q,492,oe,A,3,o,o,TRUE,1,1
CVOE_B,34,1,1,104,H 68,,,FALSE,OE,p,484,oe,H,8,e,e,TRUE,1,1
CVOE_B,34,1,1,105,E 16,,,TRUE,OE,p,756,oe,E,6,e,e,TRUE,1,1
CVOE_B,34,1,1,106,S 71,,,TRUE,OE,q,513,oe,S,1,o,o,TRUE,1,1
CVOE_B,38,1,1,11,A 24,,,TRUE,OE,p,1119,oe,A,4,e,e,TRUE,1,1
CVOE_B,38,1,1,12,O 83,,,FALSE,OE,q,480,oe,O,3,o,o,TRUE,1,1
CVOE_B,38,1,1,13,H 55,,,TRUE,OE,q,615,oe,H,5,o,o,TRUE,1,1
CVOE_B,38,1,1,14,P 10,,,FALSE,OE,q,611,oe,P,0,e,o,FALSE,0,0
CVOE_B,38,1,1,15,D 30,,,FALSE,OE,p,549,oe,D,0,e,e,TRUE,1,1
CVOE_B,38,1,1,16,U 62,,,TRUE,OE,p,668,oe,U,2,e,e,TRUE,1,1
CVOE_B,38,1,1,17,P 95,,,TRUE,OE,q,521,oe,P,5,o,o,TRUE,1,1
CVOE_B,38,1,1,18,U 06,,,TRUE,OE,p,545,oe,U,6,e,e,TRUE,1,1
CVOE_B,38,1,1,19,E 75,,,FALSE,OE,q,479,oe,E,5,o,o,TRUE,1,1
CVOE_B,38,1,1,20,I 67,,,FALSE,OE,q,576,oe,I,7,o,o,TRUE,1,1
CVOE_B,38,1,1,21,S 13,,,TRUE,OE,q,578,oe,S,3,o,o,TRUE,1,1
CVOE_B,38,1,1,22,P 78,,,FALSE,OE,p,479,oe,P,8,e,e,TRUE,1,1
CVOE_B,38,1,1,23,I 15,,,FALSE,OE,q,486,oe,I,5,o,o,TRUE,1,1
CVOE_B,38,1,1,24,D 27,,,TRUE,OE,q,543,oe,D,7,o,o,TRUE,1,1
CVOE_B,38,1,1,25,O 94,,,TRUE,OE,p,476,oe,O,4,e,e,TRUE,1,1
CVOE_B,38,1,1,26,A 65,,,FALSE,OE,q,420,oe,A,5,o,o,TRUE,1,1
CVOE_B,38,1,1,27,I 42,,,TRUE,OE,p,578,oe,I,2,e,e,TRUE,1,1
CVOE_B,38,1,1,28,E 25,,,FALSE,OE,q,501,oe,E,5,o,o,TRUE,1,1
CVOE_B,38,1,1,29,H 49,,,TRUE,OE,q,635,oe,H,9,o,o,TRUE,1,1
CVOE_B,38,1,1,30,S 18,,,FALSE,OE,p,459,oe,S,8,e,e,TRUE,1,1
CVOE_B,38,1,1,31,H 51,,,TRUE,OE,q,646,oe,H,1,o,o,TRUE,1,1
CVOE_B,38,1,1,32,U 14,,,TRUE,OE,p,715,oe,U,4,e,e,TRUE,1,1
CVOE_B,38,1,1,33,E 02,,,TRUE,OE,p,506,oe,E,2,e,e,TRUE,1,1
CVOE_B,38,1,1,34,J 26,,,FALSE,OE,p,520,oe,J,6,e,e,TRUE,1,1
CVOE_B,38,1,1,35,D 24,,,FALSE,OE,p,536,oe,D,4,e,e,TRUE,1,1
CVOE_B,38,1,1,36,O 50,,,TRUE,OE,p,676,oe,O,0,e,e,TRUE,1,1
CVOE_B,38,1,1,37,U 16,,,TRUE,OE,p,612,oe,U,6,e,e,TRUE,1,1
CVOE_B,38,1,1,38,O 15,,,FALSE,OE,q,535,oe,O,5,o,o,TRUE,1,1
CVOE_B,38,1,1,39,D 32,,,FALSE,OE,p,554,oe,D,2,e,e,TRUE,1,1
CVOE_B,38,1,1,40,S 67,,,TRUE,OE,q,522,oe,S,7,o,o,TRUE,1,1
CVOE_B,38,1,1,41,J 74,,,FALSE,OE,p,499,oe,J,4,e,e,TRUE,1,1
CVOE_B,38,1,1,42,D 92,,,FALSE,OE,q,486,oe,D,2,e,o,FALSE,0,0
CVOE_B,38,1,1,43,A 65,,,FALSE,OE,q,542,oe,A,5,o,o,TRUE,1,1
CVOE_B,38,1,1,44,I 87,,,FALSE,OE,q,572,oe,I,7,o,o,TRUE,1,1
CVOE_B,38,1,1,45,H 61,,,TRUE,OE,q,631,oe,H,1,o,o,TRUE,1,1
CVOE_B,38,1,1,46,E 59,,,FALSE,OE,q,702,oe,E,9,o,o,TRUE,1,1
CVOE_B,38,1,1,47,I 33,,,FALSE,OE,q,506,oe,I,3,o,o,TRUE,1,1
CVOE_B,38,1,1,48,O 90,,,TRUE,OE,p,561,oe,O,0,e,e,TRUE,1,1
CVOE_B,38,1,1,49,U 51,,,FALSE,OE,q,529,oe,U,1,o,o,TRUE,1,1
CVOE_B,38,1,1,50,A 10,,,TRUE,OE,p,540,oe,A,0,e,e,TRUE,1,1
CVOE_B,38,1,1,51,E 50,,,TRUE,OE,p,449,oe,E,0,e,e,TRUE,1,1
CVOE_B,38,1,1,52,D 92,,,FALSE,OE,p,540,oe,D,2,e,e,TRUE,1,1
CVOE_B,38,1,1,53,E 60,,,TRUE,OE,p,562,oe,E,0,e,e,TRUE,1,1
CVOE_B,38,1,1,54,A 95,,,FALSE,OE,q,627,oe,A,5,o,o,TRUE,1,1
CVOE_B,38,1,1,55,E 64,,,TRUE,OE,p,576,oe,E,4,e,e,TRUE,1,1
CVOE_B,38,1,1,56,P 20,,,FALSE,OE,p,443,oe,P,0,e,e,TRUE,1,1
CVOE_B,38,1,1,57,S 06,,,FALSE,OE,p,565,oe,S,6,e,e,TRUE,1,1
CVOE_B,38,1,1,58,P 64,,,FALSE,OE,p,500,oe,P,4,e,e,TRUE,1,1
CVOE_B,38,1,1,59,U 70,,,TRUE,OE,p,418,oe,U,0,e,e,TRUE,1,1
CVOE_B,38,1,1,60,S 16,,,FALSE,OE,p,437,oe,S,6,e,e,TRUE,1,1
CVOE_B,38,1,1,61,E 35,,,FALSE,OE,q,477,oe,E,5,o,o,TRUE,1,1
CVOE_B,38,1,1,62,I 93,,,FALSE,OE,q,478,oe,I,3,o,o,TRUE,1,1
CVOE_B,38,1,1,63,D 63,,,TRUE,OE,q,462,oe,D,3,o,o,TRUE,1,1
CVOE_B,38,1,1,64,U 89,,,FALSE,OE,q,452,oe,U,9,o,o,TRUE,1,1
CVOE_B,38,1,1,65,E 91,,,FALSE,OE,q,631,oe,E,1,o,o,TRUE,1,1
CVOE_B,38,1,1,66,A 12,,,TRUE,OE,p,525,oe,A,2,e,e,TRUE,1,1
CVOE_B,38,1,1,67,P 56,,,FALSE,OE,p,677,oe,P,6,e,e,TRUE,1,1
CVOE_B,38,1,1,68,S 65,,,TRUE,OE,q,494,oe,S,5,o,o,TRUE,1,1
CVOE_B,38,1,1,69,P 07,,,TRUE,OE,q,1193,oe,P,7,o,o,TRUE,1,1
CVOE_B,38,1,1,70,I 77,,,FALSE,OE,q,447,oe,I,7,o,o,TRUE,1,1
CVOE_B,38,1,1,71,J 19,,,TRUE,OE,q,530,oe,J,9,o,o,TRUE,1,1
CVOE_B,38,1,1,72,O 59,,,FALSE,OE,q,597,oe,O,9,o,o,TRUE,1,1
CVOE_B,38,1,1,73,J 15,,,TRUE,OE,q,557,oe,J,5,o,o,TRUE,1,1
CVOE_B,38,1,1,74,I 89,,,FALSE,OE,q,597,oe,I,9,o,o,TRUE,1,1
CVOE_B,38,1,1,75,O 97,,,FALSE,OE,q,486,oe,O,7,o,o,TRUE,1,1
CVOE_B,38,1,1,76,A 92,,,TRUE,OE,p,854,oe,A,2,e,e,TRUE,1,1
CVOE_B,38,1,1,77,J 90,,,FALSE,OE,p,809,oe,J,0,e,e,TRUE,1,1
CVOE_B,38,1,1,78,H 65,,,TRUE,OE,q,605,oe,H,5,o,o,TRUE,1,1
CVOE_B,38,1,1,79,H 17,,,TRUE,OE,q,509,oe,H,7,o,o,TRUE,1,1
CVOE_B,38,1,1,80,S 26,,,FALSE,OE,p,547,oe,S,6,e,e,TRUE,1,1
CVOE_B,38,1,1,81,D 56,,,FALSE,OE,p,521,oe,D,6,e,e,TRUE,1,1
CVOE_B,38,1,1,82,I 91,,,FALSE,OE,q,569,oe,I,1,o,o,TRUE,1,1
CVOE_B,38,1,1,83,J 11,,,TRUE,OE,q,500,oe,J,1,o,o,TRUE,1,1
CVOE_B,38,1,1,84,O 28,,,TRUE,OE,p,474,oe,O,8,e,e,TRUE,1,1
CVOE_B,38,1,1,85,H 29,,,TRUE,OE,q,546,oe,H,9,o,o,TRUE,1,1
CVOE_B,38,1,1,86,J 25,,,TRUE,OE,q,1352,oe,J,5,o,o,TRUE,1,1
CVOE_B,38,1,1,87,A 73,,,FALSE,OE,q,854,oe,A,3,o,o,TRUE,1,1
CVOE_B,38,1,1,88,J 63,,,TRUE,OE,q,473,oe,J,3,o,o,TRUE,1,1
CVOE_B,38,1,1,89,U 84,,,TRUE,OE,p,522,oe,U,4,e,e,TRUE,1,1
CVOE_B,38,1,1,90,A 58,,,TRUE,OE,p,434,oe,A,8,e,e,TRUE,1,1
CVOE_B,38,1,1,91,S 43,,,TRUE,OE,q,514,oe,S,3,o,o,TRUE,1,1
CVOE_B,38,1,1,92,H 54,,,FALSE,OE,p,427,oe,H,4,e,e,TRUE,1,1
CVOE_B,38,1,1,93,D 4,,,FALSE,OE,p,497,oe,D,NA,o,e,FALSE,0,0
CVOE_B,38,1,1,94,J 75,,,TRUE,OE,q,547,oe,J,5,o,o,TRUE,1,1
CVOE_B,38,1,1,95,D 19,,,TRUE,OE,q,505,oe,D,9,o,o,TRUE,1,1
CVOE_B,38,1,1,96,J 38,,,FALSE,OE,p,495,oe,J,8,e,e,TRUE,1,1
CVOE_B,38,1,1,97,I 56,,,TRUE,OE,p,458,oe,I,6,e,e,TRUE,1,1
CVOE_B,38,1,1,98,P 87,,,TRUE,OE,q,581,oe,P,7,o,o,TRUE,1,1
CVOE_B,38,1,1,99,O 80,,,TRUE,OE,p,491,oe,O,0,e,e,TRUE,1,1
CVOE_B,38,1,1,100,U 60,,,TRUE,OE,p,526,oe,U,0,e,e,TRUE,1,1
CVOE_B,38,1,1,101,P 48,,,FALSE,OE,p,598,oe,P,8,e,e,TRUE,1,1
CVOE_B,38,1,1,102,H 64,,,FALSE,OE,p,791,oe,H,4,e,e,TRUE,1,1
CVOE_B,38,1,1,103,A 13,,,FALSE,OE,q,556,oe,A,3,o,o,TRUE,1,1
CVOE_B,38,1,1,104,H 68,,,FALSE,OE,p,573,oe,H,8,e,e,TRUE,1,1
CVOE_B,38,1,1,105,E 16,,,TRUE,OE,p,640,oe,E,6,e,e,TRUE,1,1
CVOE_B,38,1,1,106,S 71,,,TRUE,OE,q,576,oe,S,1,o,o,TRUE,1,1
CVOE_B,42,1,1,11,A 24,,,TRUE,OE,q,1240,oe,A,4,e,o,FALSE,0,0
CVOE_B,42,1,1,12,O 83,,,FALSE,OE,p,560,oe,O,3,o,e,FALSE,0,0
CVOE_B,42,1,1,13,H 55,,,TRUE,OE,p,1053,oe,H,5,o,e,FALSE,0,0
CVOE_B,42,1,1,14,P 10,,,FALSE,OE,q,616,oe,P,0,e,o,FALSE,0,0
CVOE_B,42,1,1,15,D 30,,,FALSE,OE,q,641,oe,D,0,e,o,FALSE,0,0
CVOE_B,42,1,1,16,U 62,,,TRUE,OE,q,2701,oe,U,2,e,o,FALSE,0,0
CVOE_B,42,1,1,17,P 95,,,TRUE,OE,p,698,oe,P,5,o,e,FALSE,0,0
CVOE_B,42,1,1,18,U 06,,,TRUE,OE,q,959,oe,U,6,e,o,FALSE,0,0
CVOE_B,42,1,1,19,E 75,,,FALSE,OE,p,886,oe,E,5,o,e,FALSE,0,0
CVOE_B,42,1,1,20,I 67,,,FALSE,OE,p,802,oe,I,7,o,e,FALSE,0,0
CVOE_B,42,1,1,21,S 13,,,TRUE,OE,p,692,oe,S,3,o,e,FALSE,0,0
CVOE_B,42,1,1,22,P 78,,,FALSE,OE,q,616,oe,P,8,e,o,FALSE,0,0
CVOE_B,42,1,1,23,I 15,,,FALSE,OE,p,637,oe,I,5,o,e,FALSE,0,0
CVOE_B,42,1,1,24,D 27,,,TRUE,OE,p,726,oe,D,7,o,e,FALSE,0,0
CVOE_B,42,1,1,25,O 94,,,TRUE,OE,q,605,oe,O,4,e,o,FALSE,0,0
CVOE_B,42,1,1,26,A 65,,,FALSE,OE,p,683,oe,A,5,o,e,FALSE,0,0
CVOE_B,42,1,1,27,I 42,,,TRUE,OE,q,554,oe,I,2,e,o,FALSE,0,0
CVOE_B,42,1,1,28,E 25,,,FALSE,OE,p,660,oe,E,5,o,e,FALSE,0,0
CVOE_B,42,1,1,29,H 49,,,TRUE,OE,p,636,oe,H,9,o,e,FALSE,0,0
CVOE_B,42,1,1,30,S 18,,,FALSE,OE,q,520,oe,S,8,e,o,FALSE,0,0
CVOE_B,42,1,1,31,H 51,,,TRUE,OE,p,615,oe,H,1,o,e,FALSE,0,0
CVOE_B,42,1,1,32,U 14,,,TRUE,OE,q,620,oe,U,4,e,o,FALSE,0,0
CVOE_B,42,1,1,33,E 02,,,TRUE,OE,q,609,oe,E,2,e,o,FALSE,0,0
CVOE_B,42,1,1,34,J 26,,,FALSE,OE,q,561,oe,J,6,e,o,FALSE,0,0
CVOE_B,42,1,1,35,D 24,,,FALSE,OE,q,579,oe,D,4,e,o,FALSE,0,0
CVOE_B,42,1,1,36,O 50,,,TRUE,OE,q,818,oe,O,0,e,o,FALSE,0,0
CVOE_B,42,1,1,37,U 16,,,TRUE,OE,q,679,oe,U,6,e,o,FALSE,0,0
CVOE_B,42,1,1,38,O 15,,,FALSE,OE,p,779,oe,O,5,o,e,FALSE,0,0
CVOE_B,42,1,1,39,D 32,,,FALSE,OE,q,514,oe,D,2,e,o,FALSE,0,0
CVOE_B,42,1,1,40,S 67,,,TRUE,OE,p,663,oe,S,7,o,e,FALSE,0,0
CVOE_B,42,1,1,41,J 74,,,FALSE,OE,q,638,oe,J,4,e,o,FALSE,0,0
CVOE_B,42,1,1,42,D 92,,,FALSE,OE,q,613,oe,D,2,e,o,FALSE,0,0
CVOE_B,42,1,1,43,A 65,,,FALSE,OE,p,646,oe,A,5,o,e,FALSE,0,0
CVOE_B,42,1,1,44,I 87,,,FALSE,OE,p,886,oe,I,7,o,e,FALSE,0,0
CVOE_B,42,1,1,45,H 61,,,TRUE,OE,p,689,oe,H,1,o,e,FALSE,0,0
CVOE_B,42,1,1,46,E 59,,,FALSE,OE,p,709,oe,E,9,o,e,FALSE,0,0
CVOE_B,42,1,1,47,I 33,,,FALSE,OE,p,641,oe,I,3,o,e,FALSE,0,0
CVOE_B,42,1,1,48,O 90,,,TRUE,OE,q,631,oe,O,0,e,o,FALSE,0,0
CVOE_B,42,1,1,49,U 51,,,FALSE,OE,p,612,oe,U,1,o,e,FALSE,0,0
CVOE_B,42,1,1,50,A 10,,,TRUE,OE,q,576,oe,A,0,e,o,FALSE,0,0
CVOE_B,42,1,1,51,E 50,,,TRUE,OE,q,544,oe,E,0,e,o,FALSE,0,0
CVOE_B,42,1,1,52,D 92,,,FALSE,OE,q,595,oe,D,2,e,o,FALSE,0,0
CVOE_B,42,1,1,53,E 60,,,TRUE,OE,q,715,oe,E,0,e,o,FALSE,0,0
CVOE_B,42,1,1,54,A 95,,,FALSE,OE,p,605,oe,A,5,o,e,FALSE,0,0
CVOE_B,42,1,1,55,E 64,,,TRUE,OE,q,611,oe,E,4,e,o,FALSE,0,0
CVOE_B,42,1,1,56,P 20,,,FALSE,OE,q,730,oe,P,0,e,o,FALSE,0,0
CVOE_B,42,1,1,57,S 06,,,FALSE,OE,q,612,oe,S,6,e,o,FALSE,0,0
CVOE_B,42,1,1,58,P 64,,,FALSE,OE,q,653,oe,P,4,e,o,FALSE,0,0
CVOE_B,42,1,1,59,U 70,,,TRUE,OE,q,550,oe,U,0,e,o,FALSE,0,0
CVOE_B,42,1,1,60,S 16,,,FALSE,OE,q,647,oe,S,6,e,o,FALSE,0,0
CVOE_B,42,1,1,61,E 35,,,FALSE,OE,p,615,oe,E,5,o,e,FALSE,0,0
CVOE_B,42,1,1,62,I 93,,,FALSE,OE,p,1058,oe,I,3,o,e,FALSE,0,0
CVOE_B,42,1,1,63,D 63,,,TRUE,OE,p,749,oe,D,3,o,e,FALSE,0,0
CVOE_B,42,1,1,64,U 89,,,FALSE,OE,p,800,oe,U,9,o,e,FALSE,0,0
CVOE_B,42,1,1,65,E 91,,,FALSE,OE,p,645,oe,E,1,o,e,FALSE,0,0
CVOE_B,42,1,1,66,A 12,,,TRUE,OE,q,643,oe,A,2,e,o,FALSE,0,0
CVOE_B,42,1,1,67,P 56,,,FALSE,OE,q,737,oe,P,6,e,o,FALSE,0,0
CVOE_B,42,1,1,68,S 65,,,TRUE,OE,p,633,oe,S,5,o,e,FALSE,0,0
CVOE_B,42,1,1,69,P 07,,,TRUE,OE,p,876,oe,P,7,o,e,FALSE,0,0
CVOE_B,42,1,1,70,I 77,,,FALSE,OE,p,654,oe,I,7,o,e,FALSE,0,0
CVOE_B,42,1,1,71,J 19,,,TRUE,OE,p,859,oe,J,9,o,e,FALSE,0,0
CVOE_B,42,1,1,72,O 59,,,FALSE,OE,p,670,oe,O,9,o,e,FALSE,0,0
CVOE_B,42,1,1,73,J 15,,,TRUE,OE,p,1034,oe,J,5,o,e,FALSE,0,0
CVOE_B,42,1,1,74,I 89,,,FALSE,OE,p,644,oe,I,9,o,e,FALSE,0,0
CVOE_B,42,1,1,75,O 97,,,FALSE,OE,p,640,oe,O,7,o,e,FALSE,0,0
CVOE_B,42,1,1,76,A 92,,,TRUE,OE,q,704,oe,A,2,e,o,FALSE,0,0
CVOE_B,42,1,1,77,J 90,,,FALSE,OE,q,561,oe,J,0,e,o,FALSE,0,0
CVOE_B,42,1,1,78,H 65,,,TRUE,OE,p,666,oe,H,5,o,e,FALSE,0,0
CVOE_B,42,1,1,79,H 17,,,TRUE,OE,p,736,oe,H,7,o,e,FALSE,0,0
CVOE_B,42,1,1,80,S 26,,,FALSE,OE,q,622,oe,S,6,e,o,FALSE,0,0
CVOE_B,42,1,1,81,D 56,,,FALSE,OE,q,654,oe,D,6,e,o,FALSE,0,0
CVOE_B,42,1,1,82,I 91,,,FALSE,OE,p,701,oe,I,1,o,e,FALSE,0,0
CVOE_B,42,1,1,83,J 11,,,TRUE,OE,p,616,oe,J,1,o,e,FALSE,0,0
CVOE_B,42,1,1,84,O 28,,,TRUE,OE,q,567,oe,O,8,e,o,FALSE,0,0
CVOE_B,42,1,1,85,H 29,,,TRUE,OE,p,775,oe,H,9,o,e,FALSE,0,0
CVOE_B,42,1,1,86,J 25,,,TRUE,OE,p,767,oe,J,5,o,e,FALSE,0,0
CVOE_B,42,1,1,87,A 73,,,FALSE,OE,p,579,oe,A,3,o,e,FALSE,0,0
CVOE_B,42,1,1,88,J 63,,,TRUE,OE,p,543,oe,J,3,o,e,FALSE,0,0
CVOE_B,42,1,1,89,U 84,,,TRUE,OE,q,588,oe,U,4,e,o,FALSE,0,0
CVOE_B,42,1,1,90,A 58,,,TRUE,OE,q,645,oe,A,8,e,o,FALSE,0,0
CVOE_B,42,1,1,91,S 43,,,TRUE,OE,p,518,oe,S,3,o,e,FALSE,0,0
CVOE_B,42,1,1,92,H 54,,,FALSE,OE,q,577,oe,H,4,e,o,FALSE,0,0
CVOE_B,42,1,1,93,D 4,,,FALSE,OE,q,718,oe,D,NA,o,o,TRUE,1,1
CVOE_B,42,1,1,94,J 75,,,TRUE,OE,p,626,oe,J,5,o,e,FALSE,0,0
CVOE_B,42,1,1,95,D 19,,,TRUE,OE,p,662,oe,D,9,o,e,FALSE,0,0
CVOE_B,42,1,1,96,J 38,,,FALSE,OE,q,652,oe,J,8,e,o,FALSE,0,0
CVOE_B,42,1,1,97,I 56,,,TRUE,OE,q,607,oe,I,6,e,o,FALSE,0,0
CVOE_B,42,1,1,98,P 87,,,TRUE,OE,p,561,oe,P,7,o,e,FALSE,0,0
CVOE_B,42,1,1,99,O 80,,,TRUE,OE,q,643,oe,O,0,e,o,FALSE,0,0
CVOE_B,42,1,1,100,U 60,,,TRUE,OE,q,743,oe,U,0,e,o,FALSE,0,0
CVOE_B,42,1,1,101,P 48,,,FALSE,OE,q,991,oe,P,8,e,o,FALSE,0,0
CVOE_B,42,1,1,102,H 64,,,FALSE,OE,q,451,oe,H,4,e,o,FALSE,0,0
CVOE_B,42,1,1,103,A 13,,,FALSE,OE,p,457,oe,A,3,o,e,FALSE,0,0
CVOE_B,42,1,1,104,H 68,,,FALSE,OE,q,557,oe,H,8,e,o,FALSE,0,0
CVOE_B,42,1,1,105,E 16,,,TRUE,OE,q,522,oe,E,6,e,o,FALSE,0,0
CVOE_B,42,1,1,106,S 71,,,TRUE,OE,p,587,oe,S,1,o,e,FALSE,0,0
CVOE_C,39,1,1,11,A 24,,,TRUE,OE,p,1931,oe,A,4,e,e,TRUE,1,1
CVOE_C,39,1,1,12,O 83,,,FALSE,OE,q,446,oe,O,3,o,o,TRUE,1,1
CVOE_C,39,1,1,13,H 55,,,TRUE,OE,q,503,oe,H,5,o,o,TRUE,1,1
CVOE_C,39,1,1,14,P 10,,,FALSE,OE,p,524,oe,P,0,e,e,TRUE,1,1
CVOE_C,39,1,1,15,D 30,,,FALSE,OE,p,453,oe,D,0,e,e,TRUE,1,1
CVOE_C,39,1,1,16,U 62,,,TRUE,OE,q,432,oe,U,2,e,o,FALSE,0,0
CVOE_C,39,1,1,17,P 95,,,TRUE,OE,q,598,oe,P,5,o,o,TRUE,1,1
CVOE_C,39,1,1,18,U 06,,,TRUE,OE,p,542,oe,U,6,e,e,TRUE,1,1
CVOE_C,39,1,1,19,E 75,,,FALSE,OE,q,492,oe,E,5,o,o,TRUE,1,1
CVOE_C,39,1,1,20,I 67,,,FALSE,OE,q,511,oe,I,7,o,o,TRUE,1,1
CVOE_C,39,1,1,21,S 13,,,TRUE,OE,q,381,oe,S,3,o,o,TRUE,1,1
CVOE_C,39,1,1,22,P 78,,,FALSE,OE,p,418,oe,P,8,e,e,TRUE,1,1
CVOE_C,39,1,1,23,I 15,,,FALSE,OE,q,477,oe,I,5,o,o,TRUE,1,1
CVOE_C,39,1,1,24,D 27,,,TRUE,OE,q,502,oe,D,7,o,o,TRUE,1,1
CVOE_C,39,1,1,25,O 94,,,TRUE,OE,p,667,oe,O,4,e,e,TRUE,1,1
CVOE_C,39,1,1,26,A 65,,,FALSE,OE,q,409,oe,A,5,o,o,TRUE,1,1
CVOE_C,39,1,1,27,I 42,,,TRUE,OE,p,404,oe,I,2,e,e,TRUE,1,1
CVOE_C,39,1,1,28,E 25,,,FALSE,OE,q,373,oe,E,5,o,o,TRUE,1,1
CVOE_C,39,1,1,29,H 49,,,TRUE,OE,q,376,oe,H,9,o,o,TRUE,1,1
CVOE_C,39,1,1,30,S 18,,,FALSE,OE,p,435,oe,S,8,e,e,TRUE,1,1
CVOE_C,39,1,1,31,H 51,,,TRUE,OE,q,267,oe,H,1,o,o,TRUE,1,1
CVOE_C,39,1,1,32,U 14,,,TRUE,OE,p,409,oe,U,4,e,e,TRUE,1,1
CVOE_C,39,1,1,33,E 02,,,TRUE,OE,q,340,oe,E,2,e,o,FALSE,0,0
CVOE_C,39,1,1,34,J 26,,,FALSE,OE,p,407,oe,J,6,e,e,TRUE,1,1
CVOE_C,39,1,1,35,D 24,,,FALSE,OE,p,314,oe,D,4,e,e,TRUE,1,1
CVOE_C,39,1,1,36,O 50,,,TRUE,OE,q,394,oe,O,0,e,o,FALSE,0,0
CVOE_C,39,1,1,37,U 16,,,TRUE,OE,p,410,oe,U,6,e,e,TRUE,1,1
CVOE_C,39,1,1,38,O 15,,,FALSE,OE,q,413,oe,O,5,o,o,TRUE,1,1
CVOE_C,39,1,1,39,D 32,,,FALSE,OE,p,784,oe,D,2,e,e,TRUE,1,1
CVOE_C,39,1,1,40,S 67,,,TRUE,OE,q,430,oe,S,7,o,o,TRUE,1,1
CVOE_C,39,1,1,41,J 74,,,FALSE,OE,q,404,oe,J,4,e,o,FALSE,0,0
CVOE_C,39,1,1,42,D 92,,,FALSE,OE,p,740,oe,D,2,e,e,TRUE,1,1
CVOE_C,39,1,1,43,A 65,,,FALSE,OE,q,370,oe,A,5,o,o,TRUE,1,1
CVOE_C,39,1,1,44,I 87,,,FALSE,OE,q,389,oe,I,7,o,o,TRUE,1,1
CVOE_C,39,1,1,45,H 61,,,TRUE,OE,q,659,oe,H,1,o,o,TRUE,1,1
CVOE_C,39,1,1,46,E 59,,,FALSE,OE,q,454,oe,E,9,o,o,TRUE,1,1
CVOE_C,39,1,1,47,I 33,,,FALSE,OE,q,449,oe,I,3,o,o,TRUE,1,1
CVOE_C,39,1,1,48,O 90,,,TRUE,OE,p,460,oe,O,0,e,e,TRUE,1,1
CVOE_C,39,1,1,49,U 51,,,FALSE,OE,q,386,oe,U,1,o,o,TRUE,1,1
CVOE_C,39,1,1,50,A 10,,,TRUE,OE,p,351,oe,A,0,e,e,TRUE,1,1
CVOE_C,39,1,1,51,E 50,,,TRUE,OE,p,381,oe,E,0,e,e,TRUE,1,1
CVOE_C,39,1,1,52,D 92,,,FALSE,OE,p,419,oe,D,2,e,e,TRUE,1,1
CVOE_C,39,1,1,53,E 60,,,TRUE,OE,p,326,oe,E,0,e,e,TRUE,1,1
CVOE_C,39,1,1,54,A 95,,,FALSE,OE,q,318,oe,A,5,o,o,TRUE,1,1
CVOE_C,39,1,1,55,E 64,,,TRUE,OE,p,494,oe,E,4,e,e,TRUE,1,1
CVOE_C,39,1,1,56,P 20,,,FALSE,OE,p,385,oe,P,0,e,e,TRUE,1,1
CVOE_C,39,1,1,57,S 06,,,FALSE,OE,q,439,oe,S,6,e,o,FALSE,0,0
CVOE_C,39,1,1,58,P 64,,,FALSE,OE,p,519,oe,P,4,e,e,TRUE,1,1
CVOE_C,39,1,1,59,U 70,,,TRUE,OE,p,360,oe,U,0,e,e,TRUE,1,1
CVOE_C,39,1,1,60,S 16,,,FALSE,OE,p,488,oe,S,6,e,e,TRUE,1,1
CVOE_C,39,1,1,61,E 35,,,FALSE,OE,q,395,oe,E,5,o,o,TRUE,1,1
CVOE_C,39,1,1,62,I 93,,,FALSE,OE,q,324,oe,I,3,o,o,TRUE,1,1
CVOE_C,39,1,1,63,D 63,,,TRUE,OE,q,316,oe,D,3,o,o,TRUE,1,1
CVOE_C,39,1,1,64,U 89,,,FALSE,OE,p,380,oe,U,9,o,e,FALSE,0,0
CVOE_C,39,1,1,65,E 91,,,FALSE,OE,q,514,oe,E,1,o,o,TRUE,1,1
CVOE_C,39,1,1,66,A 12,,,TRUE,OE,p,426,oe,A,2,e,e,TRUE,1,1
CVOE_C,39,1,1,67,P 56,,,FALSE,OE,p,376,oe,P,6,e,e,TRUE,1,1
CVOE_C,39,1,1,68,S 65,,,TRUE,OE,q,475,oe,S,5,o,o,TRUE,1,1
CVOE_C,39,1,1,69,P 07,,,TRUE,OE,p,555,oe,P,7,o,e,FALSE,0,0
CVOE_C,39,1,1,70,I 77,,,FALSE,OE,q,636,oe,I,7,o,o,TRUE,1,1
CVOE_C,39,1,1,71,J 19,,,TRUE,OE,q,412,oe,J,9,o,o,TRUE,1,1
CVOE_C,39,1,1,72,O 59,,,FALSE,OE,q,295,oe,O,9,o,o,TRUE,1,1
CVOE_C,39,1,1,73,J 15,,,TRUE,OE,q,338,oe,J,5,o,o,TRUE,1,1
CVOE_C,39,1,1,74,I 89,,,FALSE,OE,q,325,oe,I,9,o,o,TRUE,1,1
CVOE_C,39,1,1,75,O 97,,,FALSE,OE,q,342,oe,O,7,o,o,TRUE,1,1
CVOE_C,39,1,1,76,A 92,,,TRUE,OE,p,451,oe,A,2,e,e,TRUE,1,1
CVOE_C,39,1,1,77,J 90,,,FALSE,OE,p,318,oe,J,0,e,e,TRUE,1,1
CVOE_C,39,1,1,78,H 65,,,TRUE,OE,q,359,oe,H,5,o,o,TRUE,1,1
CVOE_C,39,1,1,79,H 17,,,TRUE,OE,q,471,oe,H,7,o,o,TRUE,1,1
CVOE_C,39,1,1,80,S 26,,,FALSE,OE,p,309,oe,S,6,e,e,TRUE,1,1
CVOE_C,39,1,1,81,D 56,,,FALSE,OE,p,322,oe,D,6,e,e,TRUE,1,1
CVOE_C,39,1,1,82,I 91,,,FALSE,OE,q,475,oe,I,1,o,o,TRUE,1,1
CVOE_C,39,1,1,83,J 11,,,TRUE,OE,q,371,oe,J,1,o,o,TRUE,1,1
CVOE_C,39,1,1,84,O 28,,,TRUE,OE,q,318,oe,O,8,e,o,FALSE,0,0
CVOE_C,39,1,1,85,H 29,,,TRUE,OE,q,342,oe,H,9,o,o,TRUE,1,1
CVOE_C,39,1,1,86,J 25,,,TRUE,OE,q,436,oe,J,5,o,o,TRUE,1,1
CVOE_C,39,1,1,87,A 73,,,FALSE,OE,q,444,oe,A,3,o,o,TRUE,1,1
CVOE_C,39,1,1,88,J 63,,,TRUE,OE,q,381,oe,J,3,o,o,TRUE,1,1
CVOE_C,39,1,1,89,U 84,,,TRUE,OE,q,362,oe,U,4,e,o,FALSE,0,0
CVOE_C,39,1,1,90,A 58,,,TRUE,OE,q,363,oe,A,8,e,o,FALSE,0,0
CVOE_C,39,1,1,91,S 43,,,TRUE,OE,q,395,oe,S,3,o,o,TRUE,1,1
CVOE_C,39,1,1,92,H 54,,,FALSE,OE,p,427,oe,H,4,e,e,TRUE,1,1
CVOE_C,39,1,1,93,D 4,,,FALSE,OE,p,377,oe,D,NA,o,e,FALSE,0,0
CVOE_C,39,1,1,94,J 75,,,TRUE,OE,q,340,oe,J,5,o,o,TRUE,1,1
CVOE_C,39,1,1,95,D 19,,,TRUE,OE,q,354,oe,D,9,o,o,TRUE,1,1
CVOE_C,39,1,1,96,J 38,,,FALSE,OE,q,314,oe,J,8,e,o,FALSE,0,0
CVOE_C,39,1,1,97,I 56,,,TRUE,OE,q,306,oe,I,6,e,o,FALSE,0,0
CVOE_C,39,1,1,98,P 87,,,TRUE,OE,q,592,oe,P,7,o,o,TRUE,1,1
CVOE_C,39,1,1,99,O 80,,,TRUE,OE,p,558,oe,O,0,e,e,TRUE,1,1
CVOE_C,39,1,1,100,U 60,,,TRUE,OE,p,390,oe,U,0,e,e,TRUE,1,1
CVOE_C,39,1,1,101,P 48,,,FALSE,OE,p,348,oe,P,8,e,e,TRUE,1,1
CVOE_C,39,1,1,102,H 64,,,FALSE,OE,p,298,oe,H,4,e,e,TRUE,1,1
CVOE_C,39,1,1,103,A 13,,,FALSE,OE,q,333,oe,A,3,o,o,TRUE,1,1
CVOE_C,39,1,1,104,H 68,,,FALSE,OE,p,416,oe,H,8,e,e,TRUE,1,1
CVOE_C,39,1,1,105,E 16,,,TRUE,OE,p,331,oe,E,6,e,e,TRUE,1,1
CVOE_C,39,1,1,106,S 71,,,TRUE,OE,q,390,oe,S,1,o,o,TRUE,1,1
CVOE_C,43,1,1,11,A 24,,,TRUE,OE,p,2098,oe,A,4,e,e,TRUE,1,1
CVOE_C,43,1,1,12,O 83,,,FALSE,OE,q,717,oe,O,3,o,o,TRUE,1,1
CVOE_C,43,1,1,13,H 55,,,TRUE,OE,q,750,oe,H,5,o,o,TRUE,1,1
CVOE_C,43,1,1,14,P 10,,,FALSE,OE,p,524,oe,P,0,e,e,TRUE,1,1
CVOE_C,43,1,1,15,D 30,,,FALSE,OE,p,548,oe,D,0,e,e,TRUE,1,1
CVOE_C,43,1,1,16,U 62,,,TRUE,OE,p,506,oe,U,2,e,e,TRUE,1,1
CVOE_C,43,1,1,17,P 95,,,TRUE,OE,p,560,oe,P,5,o,e,FALSE,0,0
CVOE_C,43,1,1,18,U 06,,,TRUE,OE,p,984,oe,U,6,e,e,TRUE,1,1
CVOE_C,43,1,1,19,E 75,,,FALSE,OE,q,582,oe,E,5,o,o,TRUE,1,1
CVOE_C,43,1,1,20,I 67,,,FALSE,OE,q,636,oe,I,7,o,o,TRUE,1,1
CVOE_C,43,1,1,21,S 13,,,TRUE,OE,q,756,oe,S,3,o,o,TRUE,1,1
CVOE_C,43,1,1,22,P 78,,,FALSE,OE,p,541,oe,P,8,e,e,TRUE,1,1
CVOE_C,43,1,1,23,I 15,,,FALSE,OE,q,538,oe,I,5,o,o,TRUE,1,1
CVOE_C,43,1,1,24,D 27,,,TRUE,OE,q,821,oe,D,7,o,o,TRUE,1,1
CVOE_C,43,1,1,25,O 94,,,TRUE,OE,p,459,oe,O,4,e,e,TRUE,1,1
CVOE_C,43,1,1,26,A 65,,,FALSE,OE,q,630,oe,A,5,o,o,TRUE,1,1
CVOE_C,43,1,1,27,I 42,,,TRUE,OE,p,820,oe,I,2,e,e,TRUE,1,1
CVOE_C,43,1,1,28,E 25,,,FALSE,OE,q,578,oe,E,5,o,o,TRUE,1,1
CVOE_C,43,1,1,29,H 49,,,TRUE,OE,q,597,oe,H,9,o,o,TRUE,1,1
CVOE_C,43,1,1,30,S 18,,,FALSE,OE,p,517,oe,S,8,e,e,TRUE,1,1
CVOE_C,43,1,1,31,H 51,,,TRUE,OE,q,414,oe,H,1,o,o,TRUE,1,1
CVOE_C,43,1,1,32,U 14,,,TRUE,OE,p,457,oe,U,4,e,e,TRUE,1,1
CVOE_C,43,1,1,33,E 02,,,TRUE,OE,p,452,oe,E,2,e,e,TRUE,1,1
CVOE_C,43,1,1,34,J 26,,,FALSE,OE,p,591,oe,J,6,e,e,TRUE,1,1
CVOE_C,43,1,1,35,D 24,,,FALSE,OE,p,493,oe,D,4,e,e,TRUE,1,1
CVOE_C,43,1,1,36,O 50,,,TRUE,OE,p,568,oe,O,0,e,e,TRUE,1,1
CVOE_C,43,1,1,37,U 16,,,TRUE,OE,p,539,oe,U,6,e,e,TRUE,1,1
CVOE_C,43,1,1,38,O 15,,,FALSE,OE,q,478,oe,O,5,o,o,TRUE,1,1
CVOE_C,43,1,1,39,D 32,,,FALSE,OE,p,822,oe,D,2,e,e,TRUE,1,1
CVOE_C,43,1,1,40,S 67,,,TRUE,OE,q,636,oe,S,7,o,o,TRUE,1,1
CVOE_C,43,1,1,41,J 74,,,FALSE,OE,p,741,oe,J,4,e,e,TRUE,1,1
CVOE_C,43,1,1,42,D 92,,,FALSE,OE,p,626,oe,D,2,e,e,TRUE,1,1
CVOE_C,43,1,1,43,A 65,,,FALSE,OE,q,424,oe,A,5,o,o,TRUE,1,1
CVOE_C,43,1,1,44,I 87,,,FALSE,OE,p,742,oe,I,7,o,e,FALSE,0,0
CVOE_C,43,1,1,45,H 61,,,TRUE,OE,q,692,oe,H,1,o,o,TRUE,1,1
CVOE_C,43,1,1,46,E 59,,,FALSE,OE,q,591,oe,E,9,o,o,TRUE,1,1
CVOE_C,43,1,1,47,I 33,,,FALSE,OE,q,725,oe,I,3,o,o,TRUE,1,1
CVOE_C,43,1,1,48,O 90,,,TRUE,OE,p,445,oe,O,0,e,e,TRUE,1,1
CVOE_C,43,1,1,49,U 51,,,FALSE,OE,q,405,oe,U,1,o,o,TRUE,1,1
CVOE_C,43,1,1,50,A 10,,,TRUE,OE,p,550,oe,A,0,e,e,TRUE,1,1
CVOE_C,43,1,1,51,E 50,,,TRUE,OE,p,843,oe,E,0,e,e,TRUE,1,1
CVOE_C,43,1,1,52,D 92,,,FALSE,OE,p,540,oe,D,2,e,e,TRUE,1,1
CVOE_C,43,1,1,53,E 60,,,TRUE,OE,p,439,oe,E,0,e,e,TRUE,1,1
CVOE_C,43,1,1,54,A 95,,,FALSE,OE,q,607,oe,A,5,o,o,TRUE,1,1
CVOE_C,43,1,1,55,E 64,,,TRUE,OE,p,739,oe,E,4,e,e,TRUE,1,1
CVOE_C,43,1,1,56,P 20,,,FALSE,OE,p,590,oe,P,0,e,e,TRUE,1,1
CVOE_C,43,1,1,57,S 06,,,FALSE,OE,p,523,oe,S,6,e,e,TRUE,1,1
CVOE_C,43,1,1,58,P 64,,,FALSE,OE,p,452,oe,P,4,e,e,TRUE,1,1
CVOE_C,43,1,1,59,U 70,,,TRUE,OE,p,471,oe,U,0,e,e,TRUE,1,1
CVOE_C,43,1,1,60,S 16,,,FALSE,OE,p,493,oe,S,6,e,e,TRUE,1,1
CVOE_C,43,1,1,61,E 35,,,FALSE,OE,q,352,oe,E,5,o,o,TRUE,1,1
CVOE_C,43,1,1,62,I 93,,,FALSE,OE,p,493,oe,I,3,o,e,FALSE,0,0
CVOE_C,43,1,1,63,D 63,,,TRUE,OE,q,616,oe,D,3,o,o,TRUE,1,1
CVOE_C,43,1,1,64,U 89,,,FALSE,OE,q,1011,oe,U,9,o,o,TRUE,1,1
CVOE_C,43,1,1,65,E 91,,,FALSE,OE,q,503,oe,E,1,o,o,TRUE,1,1
CVOE_C,43,1,1,66,A 12,,,TRUE,OE,p,612,oe,A,2,e,e,TRUE,1,1
CVOE_C,43,1,1,67,P 56,,,FALSE,OE,p,935,oe,P,6,e,e,TRUE,1,1
CVOE_C,43,1,1,68,S 65,,,TRUE,OE,q,587,oe,S,5,o,o,TRUE,1,1
CVOE_C,43,1,1,69,P 07,,,TRUE,OE,q,792,oe,P,7,o,o,TRUE,1,1
CVOE_C,43,1,1,70,I 77,,,FALSE,OE,q,486,oe,I,7,o,o,TRUE,1,1
CVOE_C,43,1,1,71,J 19,,,TRUE,OE,q,751,oe,J,9,o,o,TRUE,1,1
CVOE_C,43,1,1,72,O 59,,,FALSE,OE,q,516,oe,O,9,o,o,TRUE,1,1
CVOE_C,43,1,1,73,J 15,,,TRUE,OE,q,781,oe,J,5,o,o,TRUE,1,1
CVOE_C,43,1,1,74,I 89,,,FALSE,OE,q,643,oe,I,9,o,o,TRUE,1,1
CVOE_C,43,1,1,75,O 97,,,FALSE,OE,q,843,oe,O,7,o,o,TRUE,1,1
CVOE_C,43,1,1,76,A 92,,,TRUE,OE,p,468,oe,A,2,e,e,TRUE,1,1
CVOE_C,43,1,1,77,J 90,,,FALSE,OE,p,545,oe,J,0,e,e,TRUE,1,1
CVOE_C,43,1,1,78,H 65,,,TRUE,OE,q,591,oe,H,5,o,o,TRUE,1,1
CVOE_C,43,1,1,79,H 17,,,TRUE,OE,q,573,oe,H,7,o,o,TRUE,1,1
CVOE_C,43,1,1,80,S 26,,,FALSE,OE,p,496,oe,S,6,e,e,TRUE,1,1
CVOE_C,43,1,1,81,D 56,,,FALSE,OE,p,731,oe,D,6,e,e,TRUE,1,1
CVOE_C,43,1,1,82,I 91,,,FALSE,OE,q,750,oe,I,1,o,o,TRUE,1,1
CVOE_C,43,1,1,83,J 11,,,TRUE,OE,q,948,oe,J,1,o,o,TRUE,1,1
CVOE_C,43,1,1,84,O 28,,,TRUE,OE,p,890,oe,O,8,e,e,TRUE,1,1
CVOE_C,43,1,1,85,H 29,,,TRUE,OE,q,645,oe,H,9,o,o,TRUE,1,1
CVOE_C,43,1,1,86,J 25,,,TRUE,OE,q,581,oe,J,5,o,o,TRUE,1,1
CVOE_C,43,1,1,87,A 73,,,FALSE,OE,q,427,oe,A,3,o,o,TRUE,1,1
CVOE_C,43,1,1,88,J 63,,,TRUE,OE,q,441,oe,J,3,o,o,TRUE,1,1
CVOE_C,43,1,1,89,U 84,,,TRUE,OE,p,441,oe,U,4,e,e,TRUE,1,1
CVOE_C,43,1,1,90,A 58,,,TRUE,OE,q,474,oe,A,8,e,o,FALSE,0,0
CVOE_C,43,1,1,91,S 43,,,TRUE,OE,q,586,oe,S,3,o,o,TRUE,1,1
CVOE_C,43,1,1,92,H 54,,,FALSE,OE,p,768,oe,H,4,e,e,TRUE,1,1
CVOE_C,43,1,1,93,D 4,,,FALSE,OE,p,515,oe,D,NA,o,e,FALSE,0,0
CVOE_C,43,1,1,94,J 75,,,TRUE,OE,q,675,oe,J,5,o,o,TRUE,1,1
CVOE_C,43,1,1,95,D 19,,,TRUE,OE,q,828,oe,D,9,o,o,TRUE,1,1
CVOE_C,43,1,1,96,J 38,,,FALSE,OE,p,746,oe,J,8,e,e,TRUE,1,1
CVOE_C,43,1,1,97,I 56,,,TRUE,OE,p,775,oe,I,6,e,e,TRUE,1,1
CVOE_C,43,1,1,98,P 87,,,TRUE,OE,q,419,oe,P,7,o,o,TRUE,1,1
CVOE_C,43,1,1,99,O 80,,,TRUE,OE,p,678,oe,O,0,e,e,TRUE,1,1
CVOE_C,43,1,1,100,U 60,,,TRUE,OE,p,366,oe,U,0,e,e,TRUE,1,1
CVOE_C,43,1,1,101,P 48,,,FALSE,OE,p,630,oe,P,8,e,e,TRUE,1,1
CVOE_C,43,1,1,102,H 64,,,FALSE,OE,p,532,oe,H,4,e,e,TRUE,1,1
CVOE_C,43,1,1,103,A 13,,,FALSE,OE,q,439,oe,A,3,o,o,TRUE,1,1
CVOE_C,43,1,1,104,H 68,,,FALSE,OE,p,552,oe,H,8,e,e,TRUE,1,1
CVOE_C,43,1,1,105,E 16,,,TRUE,OE,p,1317,oe,E,6,e,e,TRUE,1,1
CVOE_C,43,1,1,106,S 71,,,TRUE,OE,q,606,oe,S,1,o,o,TRUE,1,1
CVOE_D,36,1,2,11,A 24,,,TRUE,OE,p,1224,oe,A,4,e,e,TRUE,1,1
CVOE_D,36,1,2,12,O 83,,,FALSE,OE,q,695,oe,O,3,o,o,TRUE,1,1
CVOE_D,36,1,2,13,H 55,,,TRUE,OE,q,740,oe,H,5,o,o,TRUE,1,1
CVOE_D,36,1,2,14,P 10,,,FALSE,OE,p,635,oe,P,0,e,e,TRUE,1,1
CVOE_D,36,1,2,15,D 30,,,FALSE,OE,p,619,oe,D,0,e,e,TRUE,1,1
CVOE_D,36,1,2,16,U 62,,,TRUE,OE,p,1143,oe,U,2,e,e,TRUE,1,1
CVOE_D,36,1,2,17,P 95,,,TRUE,OE,q,978,oe,P,5,o,o,TRUE,1,1
CVOE_D,36,1,2,18,U 06,,,TRUE,OE,p,576,oe,U,6,e,e,TRUE,1,1
CVOE_D,36,1,2,19,E 75,,,FALSE,OE,q,3079,oe,E,5,o,o,TRUE,1,1
CVOE_D,36,1,2,20,I 67,,,FALSE,OE,q,1196,oe,I,7,o,o,TRUE,1,1
CVOE_D,36,1,2,21,S 13,,,TRUE,OE,q,2852,oe,S,3,o,o,TRUE,1,1
CVOE_D,36,1,2,22,P 78,,,FALSE,OE,p,548,oe,P,8,e,e,TRUE,1,1
CVOE_D,36,1,2,23,I 15,,,FALSE,OE,q,680,oe,I,5,o,o,TRUE,1,1
CVOE_D,36,1,2,24,D 27,,,TRUE,OE,q,5915,oe,D,7,o,o,TRUE,1,1
CVOE_D,36,1,2,25,O 94,,,TRUE,OE,p,886,oe,O,4,e,e,TRUE,1,1
CVOE_D,36,1,2,26,A 65,,,FALSE,OE,q,746,oe,A,5,o,o,TRUE,1,1
CVOE_D,36,1,2,27,I 42,,,TRUE,OE,p,665,oe,I,2,e,e,TRUE,1,1
CVOE_D,36,1,2,28,E 25,,,FALSE,OE,q,1320,oe,E,5,o,o,TRUE,1,1
CVOE_D,36,1,2,29,H 49,,,TRUE,OE,p,272,oe,H,9,o,e,FALSE,0,0
CVOE_D,36,1,2,30,S 18,,,FALSE,OE,p,898,oe,S,8,e,e,TRUE,1,1
CVOE_D,36,1,2,31,H 51,,,TRUE,OE,q,604,oe,H,1,o,o,TRUE,1,1
CVOE_D,36,1,2,32,U 14,,,TRUE,OE,p,673,oe,U,4,e,e,TRUE,1,1
CVOE_D,36,1,2,33,E 02,,,TRUE,OE,p,746,oe,E,2,e,e,TRUE,1,1
CVOE_D,36,1,2,34,J 26,,,FALSE,OE,p,645,oe,J,6,e,e,TRUE,1,1
CVOE_D,36,1,2,35,D 24,,,FALSE,OE,p,543,oe,D,4,e,e,TRUE,1,1
CVOE_D,36,1,2,36,O 50,,,TRUE,OE,q,535,oe,O,0,e,o,FALSE,0,0
CVOE_D,36,1,2,37,U 16,,,TRUE,OE,p,836,oe,U,6,e,e,TRUE,1,1
