ExperimentName,Subject,Group,Block,Trial,STIM,TASK,Switch,Congruent,CVOE,PCVstim.RESP,PCVstim.RT,PCVstim.RTTime,POEstim.RESP,POEstim.RT,POEstim.RTTime,ShStim.RESP,ShStim.RT,ShStim.RTTime,ARStim1.RESP,ARStim1.RT,ARStim1.RTTime
CVOE updated,69,1,1,1,A 10,,,TRUE,CV,,,,,,,,,,,,
CVOE updated,69,1,1,2,D 11,,,TRUE,CV,,,,,,,,,,,,
CVOE updated,69,1,1,3,E 21,,,FALSE,CV,,,,,,,,,,,,
CVOE updated,69,1,1,4,H 26,,,FALSE,CV,,,,,,,,,,,,
CVOE updated,69,1,1,5,I 32,,,TRUE,CV,,,,,,,,,,,,
CVOE updated,69,1,1,6,J 44,,,FALSE,CV,,,,,,,,,,,,
CVOE updated,69,1,1,7,P 59,,,TRUE,CV,,,,,,,,,,,,
CVOE updated,69,1,1,8,O 61,,,FALSE,CV,,,,,,,,,,,,
CVOE updated,69,1,1,9,S 70,,,FALSE,CV,,,,,,,,,,,,
CVOE updated,69,1,1,10,U 82,,,TRUE,CV,,,,,,,,,,,,
CVOE updated,69,1,1,11,A 71,,,FALSE,CV,p,871,3779012,,,,,,,,,
CVOE updated,69,1,1,12,I 66,,,TRUE,CV,p,645,3780172,,,,,,,,,
CVOE updated,69,1,1,13,S 30,,,FALSE,CV,q,550,3781236,,,,,,,,,
CVOE updated,69,1,1,14,D 20,,,FALSE,CV,q,555,3782308,,,,,,,,,
CVOE updated,69,1,1,15,I 31,,,FALSE,CV,p,572,3783404,,,,,,,,,
CVOE updated,69,1,1,16,P 16,,,FALSE,CV,q,1087,3785012,,,,,,,,,
CVOE updated,69,1,1,17,A 49,,,FALSE,CV,p,634,3786172,,,,,,,,,
CVOE updated,69,1,1,18,O 64,,,TRUE,CV,p,611,3787308,,,,,,,,,
CVOE updated,69,1,1,19,D 02,,,FALSE,CV,q,510,3788340,,,,,,,,,
CVOE updated,69,1,1,20,P 81,,,TRUE,CV,q,556,3789412,,,,,,,,,
CVOE updated,69,1,1,21,J 58,,,FALSE,CV,q,652,3790588,,,,,,,,,
CVOE updated,69,1,1,22,A 22,,,TRUE,CV,p,551,3791660,,,,,,,,,
CVOE updated,69,1,1,23,J 72,,,FALSE,CV,q,653,3792828,,,,,,,,,
CVOE updated,69,1,1,24,P 91,,,TRUE,CV,q,656,3794004,,,,,,,,,
CVOE updated,69,1,1,25,E 19,,,FALSE,CV,p,563,3795084,,,,,,,,,
CVOE updated,69,1,1,26,I 30,,,TRUE,CV,p,443,3796044,,,,,,,,,
CVOE updated,69,1,1,27,D 91,,,TRUE,CV,q,380,3796940,,,,,,,,,
CVOE updated,69,1,1,28,O 48,,,TRUE,CV,p,583,3798036,,,,,,,,,
CVOE updated,69,1,1,29,A 89,,,FALSE,CV,p,525,3799084,,,,,,,,,
CVOE updated,69,1,1,30,U 11,,,FALSE,CV,p,469,3800068,,,,,,,,,
CVOE updated,69,1,1,31,I 76,,,TRUE,CV,p,483,3801068,,,,,,,,,
CVOE updated,69,1,1,32,U 89,,,FALSE,CV,p,411,3801996,,,,,,,,,
CVOE updated,69,1,1,33,D 63,,,TRUE,CV,q,406,3802924,,,,,,,,,
CVOE updated,69,1,1,34,H 70,,,FALSE,CV,q,470,3803908,,,,,,,,,
CVOE updated,69,1,1,35,D 48,,,FALSE,CV,q,388,3804812,,,,,,,,,
CVOE updated,69,1,1,36,P 56,,,FALSE,CV,q,546,3805876,,,,,,,,,
CVOE updated,69,1,1,37,O 77,,,FALSE,CV,p,488,3806884,,,,,,,,,
CVOE updated,69,1,1,38,P 42,,,FALSE,CV,q,443,3807852,,,,,,,,,
CVOE updated,69,1,1,39,H 22,,,FALSE,CV,q,459,3808828,,,,,,,,,
CVOE updated,69,1,1,40,E 42,,,TRUE,CV,q,374,3809716,,,,,,,,,
CVOE updated,69,1,1,41,J 28,,,FALSE,CV,q,593,3810828,,,,,,,,,
CVOE updated,69,1,1,42,E 95,,,FALSE,CV,p,519,3811860,,,,,,,,,
CVOE updated,69,1,1,43,S 63,,,TRUE,CV,q,455,3812836,,,,,,,,,
CVOE updated,69,1,1,44,H 50,,,FALSE,CV,q,450,3813804,,,,,,,,,
CVOE updated,69,1,1,45,S 33,,,TRUE,CV,q,397,3814724,,,,,,,,,
CVOE updated,69,1,1,46,P 57,,,TRUE,CV,q,382,3815628,,,,,,,,,
CVOE updated,69,1,1,47,E 23,,,FALSE,CV,p,395,3816548,,,,,,,,,
CVOE updated,69,1,1,48,S 61,,,TRUE,CV,q,388,3817460,,,,,,,,,
CVOE updated,69,1,1,49,U 67,,,FALSE,CV,p,417,3818396,,,,,,,,,
CVOE updated,69,1,1,50,H 32,,,FALSE,CV,q,396,3819308,,,,,,,,,
CVOE updated,69,1,1,51,U 50,,,TRUE,CV,p,509,3820340,,,,,,,,,
CVOE updated,69,1,1,52,O 49,,,FALSE,CV,p,402,3821260,,,,,,,,,
CVOE updated,69,1,1,53,U 32,,,TRUE,CV,p,435,3822212,,,,,,,,,
CVOE updated,69,1,1,54,J 78,,,FALSE,CV,p,355,3823092,,,,,,,,,
CVOE updated,69,1,1,55,S 54,,,FALSE,CV,q,547,3824164,,,,,,,,,
CVOE updated,69,1,1,56,J 27,,,TRUE,CV,q,617,3825300,,,,,,,,,
CVOE updated,69,1,1,57,S 06,,,FALSE,CV,q,636,3826452,,,,,,,,,
CVOE updated,69,1,1,58,D 67,,,TRUE,CV,q,517,3827492,,,,,,,,,
CVOE updated,69,1,1,59,A 79,,,FALSE,CV,p,469,3828484,,,,,,,,,
CVOE updated,69,1,1,60,S 52,,,FALSE,CV,q,467,3829468,,,,,,,,,
CVOE updated,69,1,1,61,U 16,,,TRUE,CV,p,504,3830492,,,,,,,,,
CVOE updated,69,1,1,62,O 82,,,TRUE,CV,p,494,3831508,,,,,,,,,
CVOE updated,69,1,1,63,H 87,,,TRUE,CV,q,433,3832460,,,,,,,,,
CVOE updated,69,1,1,64,I 32,,,TRUE,CV,p,482,3833468,,,,,,,,,
CVOE updated,69,1,1,65,U 37,,,FALSE,CV,p,458,3834444,,,,,,,,,
CVOE updated,69,1,1,66,I 42,,,TRUE,CV,p,469,3835428,,,,,,,,,
CVOE updated,69,1,1,67,D 65,,,TRUE,CV,q,467,3836412,,,,,,,,,
CVOE updated,69,1,1,68,U 77,,,FALSE,CV,p,456,3837388,,,,,,,,,
CVOE updated,69,1,1,69,E 12,,,TRUE,CV,p,443,3838348,,,,,,,,,
CVOE updated,69,1,1,70,I 60,,,TRUE,CV,p,460,3839324,,,,,,,,,
CVOE updated,69,1,1,71,J 36,,,FALSE,CV,q,519,3840356,,,,,,,,,
CVOE updated,69,1,1,72,H 75,,,TRUE,CV,q,503,3841380,,,,,,,,,
CVOE updated,69,1,1,73,I 50,,,TRUE,CV,p,469,3842372,,,,,,,,,
CVOE updated,69,1,1,74,E 99,,,FALSE,CV,q,595,3843484,,,,,,,,,
CVOE updated,69,1,1,75,A 86,,,TRUE,CV,p,627,3844636,,,,,,,,,
CVOE updated,69,1,1,76,U 48,,,TRUE,CV,p,513,3845668,,,,,,,,,
CVOE updated,69,1,1,77,E 01,,,FALSE,CV,p,1327,3847508,,,,,,,,,
CVOE updated,69,1,1,78,A 78,,,TRUE,CV,p,554,3848588,,,,,,,,,
CVOE updated,69,1,1,79,P 60,,,FALSE,CV,q,730,3849844,,,,,,,,,
CVOE updated,69,1,1,80,E 43,,,FALSE,CV,p,702,3851068,,,,,,,,,
CVOE updated,69,1,1,81,D 69,,,TRUE,CV,q,499,3852092,,,,,,,,,
CVOE updated,69,1,1,82,H 11,,,TRUE,CV,q,446,3853052,,,,,,,,,
CVOE updated,69,1,1,83,P 43,,,TRUE,CV,q,599,3854164,,,,,,,,,
CVOE updated,69,1,1,84,O 67,,,FALSE,CV,p,503,3855188,,,,,,,,,
CVOE updated,69,1,1,85,S 91,,,FALSE,CV,q,573,3856284,,,,,,,,,
CVOE updated,69,1,1,86,J 68,,,TRUE,CV,q,416,3857220,,,,,,,,,
CVOE updated,69,1,1,87,S 47,,,FALSE,CV,q,627,3858364,,,,,,,,,
CVOE updated,69,1,1,88,I 81,,,TRUE,CV,p,609,3859492,,,,,,,,,
CVOE updated,69,1,1,89,J 39,,,FALSE,CV,q,972,3860988,,,,,,,,,
CVOE updated,69,1,1,90,A 11,,,TRUE,CV,p,511,3862020,,,,,,,,,
CVOE updated,69,1,1,91,O 76,,,FALSE,CV,p,405,3862940,,,,,,,,,
CVOE updated,69,1,1,92,A 62,,,FALSE,CV,p,437,3863892,,,,,,,,,
CVOE updated,69,1,1,93,O 27,,,TRUE,CV,p,422,3864836,,,,,,,,,
CVOE updated,69,1,1,94,E 66,,,FALSE,CV,p,539,3865900,,,,,,,,,
CVOE updated,69,1,1,95,J 62,,,TRUE,CV,q,478,3866892,,,,,,,,,
CVOE updated,69,1,1,96,H 72,,,TRUE,CV,q,455,3867868,,,,,,,,,
CVOE updated,69,1,1,97,E 49,,,TRUE,CV,p,498,3868884,,,,,,,,,
CVOE updated,69,1,1,98,D 52,,,TRUE,CV,q,573,3869972,,,,,,,,,
CVOE updated,69,1,1,99,H 62,,,TRUE,CV,q,464,3870956,,,,,,,,,
CVOE updated,69,1,1,100,I 11,,,TRUE,CV,p,494,3871972,,,,,,,,,
CVOE updated,69,1,1,101,A 98,,,FALSE,CV,p,657,3873148,,,,,,,,,
CVOE updated,69,1,1,102,H 29,,,FALSE,CV,q,500,3874164,,,,,,,,,
CVOE updated,69,1,1,103,E 83,,,TRUE,CV,p,505,3875196,,,,,,,,,
CVOE updated,69,1,1,104,D 43,,,FALSE,CV,q,391,3876108,,,,,,,,,
CVOE updated,69,1,1,105,P 45,,,TRUE,CV,q,445,3877068,,,,,,,,,
CVOE updated,69,1,1,106,J 17,,,TRUE,CV,q,461,3878044,,,,,,,,,
CVOE updated,69,1,2,1,U 08,,,TRUE,OE,,,,,,,,,,,,
CVOE updated,69,1,2,2,S 13,,,FALSE,OE,,,,,,,,,,,,
CVOE updated,69,1,2,3,O 25,,,FALSE,OE,,,,,,,,,,,,
CVOE updated,69,1,2,4,P 26,,,FALSE,OE,,,,,,,,,,,,
CVOE updated,69,1,2,5,J 49,,,TRUE,OE,,,,,,,,,,,,
CVOE updated,69,1,2,6,I 43,,,FALSE,OE,,,,,,,,,,,,
CVOE updated,69,1,2,7,H 26,,,FALSE,OE,,,,,,,,,,,,
CVOE updated,69,1,2,8,E 21,,,FALSE,OE,,,,,,,,,,,,
CVOE updated,69,1,2,9,D 19,,,TRUE,OE,,,,,,,,,,,,
CVOE updated,69,1,2,10,A 82,,,TRUE,OE,,,,,,,,,,,,
CVOE updated,69,1,2,11,A 24,,,TRUE,OE,,,,p,719,3918740,,,,,,
CVOE updated,69,1,2,12,O 83,,,FALSE,OE,,,,q,488,3919748,,,,,,
CVOE updated,69,1,2,13,H 55,,,TRUE,OE,,,,q,475,3920748,,,,,,
CVOE updated,69,1,2,14,P 10,,,FALSE,OE,,,,p,483,3921756,,,,,,
CVOE updated,69,1,2,15,D 30,,,FALSE,OE,,,,p,644,3922916,,,,,,
CVOE updated,69,1,2,16,U 62,,,TRUE,OE,,,,p,556,3923988,,,,,,
CVOE updated,69,1,2,17,P 95,,,TRUE,OE,,,,q,444,3924956,,,,,,
CVOE updated,69,1,2,18,U 06,,,TRUE,OE,,,,p,573,3926044,,,,,,
CVOE updated,69,1,2,19,E 75,,,FALSE,OE,,,,q,728,3927292,,,,,,
CVOE updated,69,1,2,20,I 67,,,FALSE,OE,,,,q,675,3928492,,,,,,
CVOE updated,69,1,2,21,S 13,,,TRUE,OE,,,,q,547,3929564,,,,,,
CVOE updated,69,1,2,22,P 78,,,FALSE,OE,,,,p,473,3930556,,,,,,
CVOE updated,69,1,2,23,I 15,,,FALSE,OE,,,,q,418,3931500,,,,,,
CVOE updated,69,1,2,24,D 27,,,TRUE,OE,,,,q,397,3932412,,,,,,
CVOE updated,69,1,2,25,O 94,,,TRUE,OE,,,,p,437,3933372,,,,,,
CVOE updated,69,1,2,26,A 65,,,FALSE,OE,,,,q,573,3934468,,,,,,
CVOE updated,69,1,2,27,I 42,,,TRUE,OE,,,,p,432,3935420,,,,,,
CVOE updated,69,1,2,28,E 25,,,FALSE,OE,,,,q,430,3936364,,,,,,
CVOE updated,69,1,2,29,H 49,,,TRUE,OE,,,,q,468,3937348,,,,,,
CVOE updated,69,1,2,30,S 18,,,FALSE,OE,,,,p,426,3938292,,,,,,
CVOE updated,69,1,2,31,H 51,,,TRUE,OE,,,,q,967,3939780,,,,,,
CVOE updated,69,1,2,32,U 14,,,TRUE,OE,,,,p,634,3940940,,,,,,
CVOE updated,69,1,2,33,E 02,,,TRUE,OE,,,,p,627,3942092,,,,,,
CVOE updated,69,1,2,34,J 26,,,FALSE,OE,,,,p,601,3943212,,,,,,
CVOE updated,69,1,2,35,D 24,,,FALSE,OE,,,,p,393,3944124,,,,,,
CVOE updated,69,1,2,36,O 50,,,TRUE,OE,,,,p,607,3945244,,,,,,
CVOE updated,69,1,2,37,U 16,,,TRUE,OE,,,,p,514,3946284,,,,,,
CVOE updated,69,1,2,38,O 15,,,FALSE,OE,,,,q,570,3947380,,,,,,
CVOE updated,69,1,2,39,D 32,,,FALSE,OE,,,,p,757,3948660,,,,,,
CVOE updated,69,1,2,40,S 67,,,TRUE,OE,,,,q,462,3949644,,,,,,
CVOE updated,69,1,2,41,J 74,,,FALSE,OE,,,,p,500,3950668,,,,,,
CVOE updated,69,1,2,42,D 92,,,FALSE,OE,,,,p,519,3951700,,,,,,
CVOE updated,69,1,2,43,A 65,,,FALSE,OE,,,,q,503,3952724,,,,,,
CVOE updated,69,1,2,44,I 87,,,FALSE,OE,,,,q,573,3953820,,,,,,
CVOE updated,69,1,2,45,H 61,,,TRUE,OE,,,,q,712,3955052,,,,,,
CVOE updated,69,1,2,46,E 59,,,FALSE,OE,,,,q,590,3956156,,,,,,
CVOE updated,69,1,2,47,I 33,,,FALSE,OE,,,,q,507,3957180,,,,,,
CVOE updated,69,1,2,48,O 90,,,TRUE,OE,,,,p,481,3958180,,,,,,
CVOE updated,69,1,2,49,U 51,,,FALSE,OE,,,,q,545,3959244,,,,,,
CVOE updated,69,1,2,50,A 10,,,TRUE,OE,,,,p,703,3960468,,,,,,
CVOE updated,69,1,2,51,E 50,,,TRUE,OE,,,,p,613,3961604,,,,,,
CVOE updated,69,1,2,52,D 92,,,FALSE,OE,,,,p,624,3962748,,,,,,
CVOE updated,69,1,2,53,E 60,,,TRUE,OE,,,,p,478,3963748,,,,,,
CVOE updated,69,1,2,54,A 95,,,FALSE,OE,,,,q,478,3964748,,,,,,
CVOE updated,69,1,2,55,E 64,,,TRUE,OE,,,,p,855,3966124,,,,,,
CVOE updated,69,1,2,56,P 20,,,FALSE,OE,,,,p,522,3967164,,,,,,
CVOE updated,69,1,2,57,S 06,,,FALSE,OE,,,,p,562,3968244,,,,,,
CVOE updated,69,1,2,58,P 64,,,FALSE,OE,,,,p,427,3969188,,,,,,
CVOE updated,69,1,2,59,U 70,,,TRUE,OE,,,,p,480,3970188,,,,,,
CVOE updated,69,1,2,60,S 16,,,FALSE,OE,,,,p,505,3971212,,,,,,
CVOE updated,69,1,2,61,E 35,,,FALSE,OE,,,,q,502,3972236,,,,,,
CVOE updated,69,1,2,62,I 93,,,FALSE,OE,,,,q,556,3973316,,,,,,
CVOE updated,69,1,2,63,D 63,,,TRUE,OE,,,,q,493,3974332,,,,,,
CVOE updated,69,1,2,64,U 89,,,FALSE,OE,,,,q,408,3975260,,,,,,
CVOE updated,69,1,2,65,E 91,,,FALSE,OE,,,,q,499,3976284,,,,,,
CVOE updated,69,1,2,66,A 12,,,TRUE,OE,,,,p,695,3977493,,,,,,
CVOE updated,69,1,2,67,P 56,,,FALSE,OE,,,,p,561,3978572,,,,,,
CVOE updated,69,1,2,68,S 65,,,TRUE,OE,,,,q,489,3979580,,,,,,
CVOE updated,69,1,2,69,P 07,,,TRUE,OE,,,,q,724,3980828,,,,,,
CVOE updated,69,1,2,70,I 77,,,FALSE,OE,,,,q,605,3981948,,,,,,
CVOE updated,69,1,2,71,J 19,,,TRUE,OE,,,,q,429,3982892,,,,,,
CVOE updated,69,1,2,72,O 59,,,FALSE,OE,,,,q,435,3983844,,,,,,
CVOE updated,69,1,2,73,J 15,,,TRUE,OE,,,,q,459,3984828,,,,,,
CVOE updated,69,1,2,74,I 89,,,FALSE,OE,,,,q,446,3985788,,,,,,
CVOE updated,69,1,2,75,O 97,,,FALSE,OE,,,,q,567,3986868,,,,,,
CVOE updated,69,1,2,76,A 92,,,TRUE,OE,,,,p,474,3987868,,,,,,
CVOE updated,69,1,2,77,J 90,,,FALSE,OE,,,,p,474,3988868,,,,,,
CVOE updated,69,1,2,78,H 65,,,TRUE,OE,,,,q,442,3989836,,,,,,
CVOE updated,69,1,2,79,H 17,,,TRUE,OE,,,,q,467,3990820,,,,,,
CVOE updated,69,1,2,80,S 26,,,FALSE,OE,,,,p,433,3991772,,,,,,
CVOE updated,69,1,2,81,D 56,,,FALSE,OE,,,,p,510,3992796,,,,,,
CVOE updated,69,1,2,82,I 91,,,FALSE,OE,,,,q,612,3993924,,,,,,
CVOE updated,69,1,2,83,J 11,,,TRUE,OE,,,,p,487,3994932,,,,,,
CVOE updated,69,1,2,84,O 28,,,TRUE,OE,,,,p,474,3995932,,,,,,
CVOE updated,69,1,2,85,H 29,,,TRUE,OE,,,,q,474,3996932,,,,,,
CVOE updated,69,1,2,86,J 25,,,TRUE,OE,,,,q,483,3997940,,,,,,
CVOE updated,69,1,2,87,A 73,,,FALSE,OE,,,,q,427,3998884,,,,,,
CVOE updated,69,1,2,88,J 63,,,TRUE,OE,,,,q,545,3999948,,,,,,
CVOE updated,69,1,2,89,U 84,,,TRUE,OE,,,,p,503,4000972,,,,,,
CVOE updated,69,1,2,90,A 58,,,TRUE,OE,,,,p,652,4002148,,,,,,
CVOE updated,69,1,2,91,S 43,,,TRUE,OE,,,,q,487,4003156,,,,,,
CVOE updated,69,1,2,92,H 54,,,FALSE,OE,,,,p,971,4004652,,,,,,
CVOE updated,69,1,2,93,D 4,,,FALSE,OE,,,,p,806,4005980,,,,,,
CVOE updated,69,1,2,94,J 75,,,TRUE,OE,,,,q,558,4007052,,,,,,
CVOE updated,69,1,2,95,D 19,,,TRUE,OE,,,,q,655,4008228,,,,,,
CVOE updated,69,1,2,96,J 38,,,FALSE,OE,,,,p,434,4009180,,,,,,
CVOE updated,69,1,2,97,I 56,,,TRUE,OE,,,,p,466,4010172,,,,,,
CVOE updated,69,1,2,98,P 87,,,TRUE,OE,,,,q,496,4011188,,,,,,
CVOE updated,69,1,2,99,O 80,,,TRUE,OE,,,,p,555,4012260,,,,,,
CVOE updated,69,1,2,100,U 60,,,TRUE,OE,,,,p,355,4013140,,,,,,
CVOE updated,69,1,2,101,P 48,,,FALSE,OE,,,,p,452,4014116,,,,,,
CVOE updated,69,1,2,102,H 64,,,FALSE,OE,,,,p,415,4015052,,,,,,
CVOE updated,69,1,2,103,A 13,,,FALSE,OE,,,,q,402,4015972,,,,,,
CVOE updated,69,1,2,104,H 68,,,FALSE,OE,,,,p,562,4017052,,,,,,
CVOE updated,69,1,2,105,E 16,,,TRUE,OE,,,,p,538,4018108,,,,,,
CVOE updated,69,1,2,106,S 71,,,TRUE,OE,,,,q,518,4019140,,,,,,
CVOE updated,69,1,3,1,U 84,Letter,N,TRUE,CV,,,,,,,,,,,,
CVOE updated,69,1,3,2,D 34,Letter,N,FALSE,CV,,,,,,,,,,,,
CVOE updated,69,1,3,3,O 73,Number,Y,FALSE,OE,,,,,,,,,,,,
CVOE updated,69,1,3,4,H 85,Number,N,TRUE,OE,,,,,,,,,,,,
CVOE updated,69,1,3,5,I 60,Letter,Y,TRUE,CV,,,,,,,,,,,,
CVOE updated,69,1,3,6,J 32,Letter,N,FALSE,CV,,,,,,,,,,,,
CVOE updated,69,1,3,7,E 99,Number,Y,FALSE,OE,,,,,,,,,,,,
CVOE updated,69,1,3,8,P 07,Number,N,TRUE,OE,,,,,,,,,,,,
CVOE updated,69,1,3,9,S 38,Letter,Y,FALSE,CV,,,,,,,,,,,,
CVOE updated,69,1,3,10,A 18,Letter,N,TRUE,CV,,,,,,,,,,,,
CVOE updated,69,1,3,11,A 44,Letter,N,TRUE,CV,,,,,,,,,,p,1682,4080868
CVOE updated,69,1,3,12,D 94,Letter,N,FALSE,CV,,,,,,,,,,q,819,4082204
CVOE updated,69,1,3,13,E 75,Number,Y,FALSE,OE,,,,,,,,,,q,1006,4083724
CVOE updated,69,1,3,14,H 81,Number,N,TRUE,OE,,,,,,,,,,q,711,4084948
CVOE updated,69,1,3,15,I 64,Letter,Y,TRUE,CV,,,,,,,,,,p,1172,4086636
CVOE updated,69,1,3,16,J 54,Letter,N,FALSE,CV,,,,,,,,,,q,728,4087884
CVOE updated,69,1,3,17,O 23,Number,Y,FALSE,OE,,,,,,,,,,q,731,4089140
CVOE updated,69,1,3,18,P 05,Number,N,TRUE,OE,,,,,,,,,,q,886,4090548
CVOE updated,69,1,3,19,S 34,Letter,Y,FALSE,CV,,,,,,,,,,q,750,4091812
CVOE updated,69,1,3,20,U 88,Letter,N,TRUE,CV,,,,,,,,,,p,780,4093108
CVOE updated,69,1,3,21,A 70,Number,Y,TRUE,OE,,,,,,,,,,p,1082,4094716
CVOE updated,69,1,3,22,D 12,Number,N,FALSE,OE,,,,,,,,,,q,691,4095924
CVOE updated,69,1,3,23,E 79,Letter,Y,FALSE,CV,,,,,,,,,,p,2070,4098516
CVOE updated,69,1,3,24,H 72,Letter,N,FALSE,CV,,,,,,,,,,q,1404,4100436
CVOE updated,69,1,3,25,I 41,Number,Y,FALSE,OE,,,,,,,,,,q,1829,4102780
CVOE updated,69,1,3,26,J 63,Number,N,TRUE,OE,,,,,,,,,,q,1259,4104556
CVOE updated,69,1,3,27,O 03,Letter,Y,FALSE,CV,,,,,,,,,,p,1537,4106620
CVOE updated,69,1,3,28,P 75,Letter,N,TRUE,CV,,,,,,,,,,q,1181,4108316
CVOE updated,69,1,3,29,S 61,Number,Y,TRUE,OE,,,,,,,,,,q,1058,4109900
CVOE updated,69,1,3,30,U 28,Number,N,TRUE,OE,,,,,,,,,,p,1022,4111436
CVOE updated,69,1,3,31,A 21,Letter,Y,FALSE,CV,,,,,,,,,,q,764,4112724
CVOE updated,69,1,3,32,D 18,Letter,N,FALSE,CV,,,,,,,,,,q,868,4114108
CVOE updated,69,1,3,33,E 35,Number,Y,FALSE,OE,,,,,,,,,,q,1475,4116101
CVOE updated,69,1,3,34,H 62,Number,N,FALSE,OE,,,,,,,,,,p,1243,4117868
CVOE updated,69,1,3,35,I 82,Letter,Y,TRUE,CV,,,,,,,,,,p,1131,4119516
CVOE updated,69,1,3,36,J 78,Letter,N,FALSE,CV,,,,,,,,,,q,1287,4121324
CVOE updated,69,1,3,37,O 12,Number,Y,TRUE,OE,,,,,,,,,,p,1066,4122916
CVOE updated,69,1,3,38,P 13,Number,N,TRUE,OE,,,,,,,,,,q,1153,4124589
CVOE updated,69,1,3,39,S 07,Letter,Y,TRUE,CV,,,,,,,,,,q,934,4126036
CVOE updated,69,1,3,40,U 36,Letter,N,TRUE,CV,,,,,,,,,,p,777,4127332
CVOE updated,69,1,3,41,A 96,Number,Y,TRUE,OE,,,,,,,,,,p,988,4128836
CVOE updated,69,1,3,42,D 04,Number,N,FALSE,OE,,,,,,,,,,p,938,4130292
CVOE updated,69,1,3,43,E 60,Letter,Y,TRUE,CV,,,,,,,,,,p,1158,4131964
CVOE updated,69,1,3,44,H 83,Letter,N,TRUE,CV,,,,,,,,,,q,2014,4134500
CVOE updated,69,1,3,45,I 64,Number,Y,TRUE,OE,,,,,,,,,,p,922,4135940
CVOE updated,69,1,3,46,J 76,Number,N,FALSE,OE,,,,,,,,,,p,1466,4137924
CVOE updated,69,1,3,47,O 78,Letter,Y,TRUE,CV,,,,,,,,,,p,1304,4139748
CVOE updated,69,1,3,48,P 09,Letter,N,TRUE,CV,,,,,,,,,,q,1006,4141276
CVOE updated,69,1,3,49,S 72,Number,Y,FALSE,OE,,,,,,,,,,p,1170,4142972
CVOE updated,69,1,3,50,U 47,Number,N,FALSE,OE,,,,,,,,,,q,1005,4144500
CVOE updated,69,1,3,51,A 31,Letter,Y,FALSE,CV,,,,,,,,,,p,1454,4146468
CVOE updated,69,1,3,52,D 96,Letter,N,FALSE,CV,,,,,,,,,,q,1585,4148572
CVOE updated,69,1,3,53,E 40,Number,Y,TRUE,OE,,,,,,,,,,p,1183,4150276
CVOE updated,69,1,3,54,H 79,Number,N,TRUE,OE,,,,,,,,,,q,838,4151637
CVOE updated,69,1,3,55,I 15,Letter,Y,FALSE,CV,,,,,,,,,,p,2030,4154188
CVOE updated,69,1,3,56,J 07,Letter,N,TRUE,CV,,,,,,,,,,q,1692,4156396
CVOE updated,69,1,3,57,O 61,Number,Y,FALSE,OE,,,,,,,,,,q,1191,4158108
CVOE updated,69,1,3,58,P 58,Number,N,FALSE,OE,,,,,,,,,,p,1453,4160076
CVOE updated,69,1,3,59,S 37,Letter,Y,TRUE,CV,,,,,,,,,,q,809,4161404
CVOE updated,69,1,3,60,U 61,Letter,N,FALSE,CV,,,,,,,,,,p,1316,4163244
CVOE updated,69,1,3,61,A 17,Number,Y,FALSE,OE,,,,,,,,,,q,1413,4165180
CVOE updated,69,1,3,62,D 85,Number,N,TRUE,OE,,,,,,,,,,q,1416,4167116
CVOE updated,69,1,3,63,E 20,Letter,Y,TRUE,CV,,,,,,,,,,p,1692,4169324
CVOE updated,69,1,3,64,H 86,Letter,N,FALSE,CV,,,,,,,,,,q,1359,4171204
CVOE updated,69,1,3,65,I 21,Number,Y,FALSE,OE,,,,,,,,,,q,1632,4173356
CVOE updated,69,1,3,66,J 29,Number,N,TRUE,OE,,,,,,,,,,q,1318,4175188
CVOE updated,69,1,3,67,O 13,Letter,Y,FALSE,CV,,,,,,,,,,p,808,4176517
CVOE updated,69,1,3,68,P 82,Letter,N,FALSE,CV,,,,,,,,,,q,1298,4178340
CVOE updated,69,1,3,69,S 72,Number,Y,FALSE,OE,,,,,,,,,,p,1005,4179860
CVOE updated,69,1,3,70,U 84,Number,N,TRUE,OE,,,,,,,,,,p,1174,4181548
CVOE updated,69,1,3,71,A 49,Letter,Y,FALSE,CV,,,,,,,,,,p,1217,4183284
CVOE updated,69,1,3,72,D 91,Letter,N,TRUE,CV,,,,,,,,,,q,813,4184613
CVOE updated,69,1,3,73,E 99,Number,Y,FALSE,OE,,,,,,,,,,q,1080,4186212
CVOE updated,69,1,3,74,H 16,Number,N,FALSE,OE,,,,,,,,,,p,968,4187700
CVOE updated,69,1,3,75,I 45,Letter,Y,FALSE,CV,,,,,,,,,,p,1019,4189244
CVOE updated,69,1,3,76,J 70,Letter,N,FALSE,CV,,,,,,,,,,q,1513,4191284
CVOE updated,69,1,3,77,O 22,Number,Y,TRUE,OE,,,,,,,,,,p,1194,4193004
CVOE updated,69,1,3,78,P 41,Number,N,TRUE,OE,,,,,,,,,,q,1139,4194668
CVOE updated,69,1,3,79,S 93,Letter,Y,TRUE,CV,,,,,,,,,,q,1438,4196620
CVOE updated,69,1,3,80,U 70,Letter,N,TRUE,CV,,,,,,,,,,p,1679,4198820
CVOE updated,69,1,3,81,A 42,Number,Y,TRUE,OE,,,,,,,,,,p,1304,4200644
CVOE updated,69,1,3,82,D 85,Number,N,TRUE,OE,,,,,,,,,,q,1630,4202796
CVOE updated,69,1,3,83,E 68,Letter,Y,TRUE,CV,,,,,,,,,,p,1228,4204540
CVOE updated,69,1,3,84,H 17,Letter,N,TRUE,CV,,,,,,,,,,q,1394,4206452
CVOE updated,69,1,3,85,I 70,Number,Y,TRUE,OE,,,,,,,,,,p,1627,4208604
CVOE updated,69,1,3,86,J 88,Number,N,FALSE,OE,,,,,,,,,,p,1098,4210221
CVOE updated,69,1,3,87,O 32,Letter,Y,TRUE,CV,,,,,,,,,,p,1516,4212252
CVOE updated,69,1,3,88,P 95,Letter,N,TRUE,CV,,,,,,,,,,q,893,4213668
CVOE updated,69,1,3,89,S 98,Number,Y,FALSE,OE,,,,,,,,,,p,1456,4215644
CVOE updated,69,1,3,90,U 37,Number,N,FALSE,OE,,,,,,,,,,q,2371,4218532
CVOE updated,69,1,3,91,A 56,Letter,Y,TRUE,CV,,,,,,,,,,p,1039,4220092
CVOE updated,69,1,3,92,D 57,Letter,N,TRUE,CV,,,,,,,,,,q,937,4221549
CVOE updated,69,1,3,93,E 93,Number,Y,FALSE,OE,,,,,,,,,,q,3187,4225252
CVOE updated,69,1,3,94,H 27,Number,N,TRUE,OE,,,,,,,,,,q,1219,4226989
CVOE updated,69,1,3,95,I 35,Letter,Y,FALSE,CV,,,,,,,,,,p,1101,4228604
CVOE updated,69,1,3,96,J 03,Letter,N,TRUE,CV,,,,,,,,,,q,692,4229821
CVOE updated,69,1,3,97,O 28,Number,Y,TRUE,OE,,,,,,,,,,p,831,4231173
CVOE updated,69,1,3,98,P 59,Number,N,TRUE,OE,,,,,,,,,,q,941,4232629
CVOE updated,69,1,3,99,S 77,Letter,Y,TRUE,CV,,,,,,,,,,q,834,4233988
CVOE updated,69,1,3,100,U 05,Letter,N,FALSE,CV,,,,,,,,,,p,787,4235301
CVOE updated,69,1,3,101,A 56,Number,Y,TRUE,OE,,,,,,,,,,p,1009,4236829
CVOE updated,69,1,3,102,D 01,Number,N,TRUE,OE,,,,,,,,,,q,860,4238213
CVOE updated,69,1,3,103,E 02,Letter,Y,TRUE,CV,,,,,,,,,,p,681,4239420
CVOE updated,69,1,3,104,H 68,Letter,N,FALSE,CV,,,,,,,,,,q,1075,4241013
CVOE updated,69,1,3,105,I 05,Number,Y,FALSE,OE,,,,,,,,,,p,738,4242276
CVOE updated,69,1,3,106,J 55,Number,N,TRUE,OE,,,,,,,,,,q,1238,4244029
CVOE updated,69,1,3,107,O 73,Letter,Y,FALSE,CV,,,,,,,,,,p,1855,4246405
CVOE updated,69,1,3,108,P 41,Letter,N,TRUE,CV,,,,,,,,,,q,1194,4248116
CVOE updated,69,1,3,109,S 92,Number,Y,FALSE,OE,,,,,,,,,,p,1795,4250437
CVOE updated,69,1,3,110,U 34,Number,N,TRUE,OE,,,,,,,,,,p,980,4251941
CVOE updated,69,1,3,111,A 09,Letter,Y,FALSE,CV,,,,,,,,,,p,994,4253461
CVOE updated,69,1,3,112,D 92,Letter,N,FALSE,CV,,,,,,,,,,q,827,4254813
CVOE updated,69,1,3,113,E 48,Number,Y,TRUE,OE,,,,,,,,,,p,808,4256140
CVOE updated,69,1,3,114,H 76,Number,N,FALSE,OE,,,,,,,,,,p,1028,4257693
CVOE updated,69,1,3,115,I 44,Letter,Y,TRUE,CV,,,,,,,,,,p,802,4259013
CVOE updated,69,1,3,116,J 67,Letter,N,TRUE,CV,,,,,,,,,,q,1010,4260541
CVOE updated,69,1,3,117,O 48,Number,Y,TRUE,OE,,,,,,,,,,p,965,4262029
CVOE updated,69,1,3,118,P 22,Number,N,FALSE,OE,,,,,,,,,,p,918,4263461
CVOE updated,69,1,3,119,S 86,Letter,Y,FALSE,CV,,,,,,,,,,q,855,4264837
CVOE updated,69,1,3,120,U 35,Letter,N,FALSE,CV,,,,,,,,,,p,890,4266245
CVOE updated,69,1,3,121,A 91,Number,Y,FALSE,OE,,,,,,,,,,q,1165,4267933
CVOE updated,69,1,3,122,D 78,Number,N,FALSE,OE,,,,,,,,,,p,1270,4269717
CVOE updated,69,1,3,123,E 91,Letter,Y,FALSE,CV,,,,,,,,,,q,1092,4271325
CVOE updated,69,1,3,124,H 54,Letter,N,FALSE,CV,,,,,,,,,,q,1151,4272997
CVOE updated,69,1,3,125,I 65,Number,Y,FALSE,OE,,,,,,,,,,q,989,4274501
CVOE updated,69,1,3,126,J 52,Number,N,FALSE,OE,,,,,,,,,,p,1003,4276021
CVOE updated,69,1,3,127,O 19,Letter,Y,FALSE,CV,,,,,,,,,,p,763,4277301
CVOE updated,69,1,3,128,P 48,Letter,N,FALSE,CV,,,,,,,,,,q,1028,4278845
CVOE updated,69,1,3,129,S 45,Number,Y,TRUE,OE,,,,,,,,,,q,1938,4281301
CVOE updated,69,1,3,130,U 26,Number,N,TRUE,OE,,,,,,,,,,p,1541,4283357
CVOE updated,69,1,4,1,U 38,Number,N,TRUE,OE,,,,,,,p,999,4294517,,,
CVOE updated,69,1,4,2,P 73,Number,N,TRUE,OE,,,,,,,p,880,4295917,,,
CVOE updated,69,1,4,3,U 95,Letter,Y,FALSE,CV,,,,,,,p,1432,4297869,,,
CVOE updated,69,1,4,4,J 61,Number,Y,TRUE,OE,,,,,,,q,1038,4299421,,,
CVOE updated,69,1,4,5,D 51,Number,N,TRUE,OE,,,,,,,q,1055,4300997,,,
CVOE updated,69,1,4,6,S 28,Number,N,FALSE,OE,,,,,,,p,826,4302341,,,
CVOE updated,69,1,4,7,A 56,Letter,Y,TRUE,CV,,,,,,,p,1032,4303893,,,
CVOE updated,69,1,4,8,H 78,Letter,N,FALSE,CV,,,,,,,q,1190,4305597,,,
CVOE updated,69,1,4,9,P 92,Letter,N,FALSE,CV,,,,,,,q,1068,4307181,,,
CVOE updated,69,1,4,10,E 05,Number,Y,FALSE,OE,,,,,,,q,2002,4309701,,,
CVOE updated,69,1,4,11,P 57,Letter,Y,TRUE,CV,,,,,,,q,883,4311101,,,
CVOE updated,69,1,4,12,D 88,Number,Y,FALSE,OE,,,,,,,p,803,4312421,,,
CVOE updated,69,1,4,13,O 89,Letter,Y,FALSE,CV,,,,,,,q,1372,4314309,,,
CVOE updated,69,1,4,14,U 43,Number,Y,FALSE,OE,,,,,,,q,1151,4315981,,,
CVOE updated,69,1,4,15,H 10,Number,N,FALSE,OE,,,,,,,p,1117,4317613,,,
CVOE updated,69,1,4,16,S 07,Letter,Y,TRUE,CV,,,,,,,q,1246,4319381,,,
CVOE updated,69,1,4,17,J 10,Letter,N,FALSE,CV,,,,,,,q,1430,4321325,,,
CVOE updated,69,1,4,18,H 54,Number,Y,FALSE,OE,,,,,,,p,821,4322661,,,
CVOE updated,69,1,4,19,E 99,Number,N,FALSE,OE,,,,,,,q,1314,4324501,,,
CVOE updated,69,1,4,20,J 36,Letter,Y,FALSE,CV,,,,,,,q,1459,4326485,,,
CVOE updated,69,1,4,21,I 94,Letter,N,TRUE,CV,,,,,,,p,1270,4328269,,,
CVOE updated,69,1,4,22,A 82,Letter,N,TRUE,CV,,,,,,,p,1533,4330317,,,
CVOE updated,69,1,4,23,H 79,Number,Y,TRUE,OE,,,,,,,q,984,4331821,,,
CVOE updated,69,1,4,24,J 60,Number,N,FALSE,OE,,,,,,,p,822,4333165,,,
CVOE updated,69,1,4,25,S 28,Letter,Y,FALSE,CV,,,,,,,q,1028,4334717,,,
CVOE updated,69,1,4,26,P 11,Number,Y,TRUE,OE,,,,,,,q,754,4335989,,,
CVOE updated,69,1,4,27,D 39,Number,N,TRUE,OE,,,,,,,q,1194,4337709,,,
CVOE updated,69,1,4,28,E 90,Number,N,TRUE,OE,,,,,,,p,1019,4339253,,,
CVOE updated,69,1,4,29,I 38,Number,N,TRUE,OE,,,,,,,p,878,4340645,,,
CVOE updated,69,1,4,30,S 35,Letter,Y,TRUE,CV,,,,,,,q,791,4341957,,,
CVOE updated,69,1,4,31,D 41,Number,Y,TRUE,OE,,,,,,,q,916,4343389,,,
CVOE updated,69,1,4,32,E 06,Number,N,TRUE,OE,,,,,,,p,933,4344845,,,
CVOE updated,69,1,4,33,A 27,Number,N,FALSE,OE,,,,,,,q,1384,4346749,,,
CVOE updated,69,1,4,34,U 95,Letter,Y,FALSE,CV,,,,,,,p,1206,4348477,,,
CVOE updated,69,1,4,35,A 53,Letter,N,FALSE,CV,,,,,,,p,1079,4350069,,,
CVOE updated,69,1,4,36,E 43,Letter,N,FALSE,CV,,,,,,,p,807,4351397,,,
CVOE updated,69,1,4,37,P 05,Number,Y,TRUE,OE,,,,,,,q,899,4352821,,,
CVOE updated,69,1,4,38,O 19,Letter,Y,FALSE,CV,,,,,,,p,790,4354125,,,
CVOE updated,69,1,4,39,I 96,Number,Y,TRUE,OE,,,,,,,p,1036,4355677,,,
CVOE updated,69,1,4,40,A 88,Number,N,TRUE,OE,,,,,,,p,908,4357109,,,
CVOE updated,69,1,4,41,I 67,Number,N,FALSE,OE,,,,,,,q,698,4358325,,,
CVOE updated,69,1,4,42,D 40,Number,N,FALSE,OE,,,,,,,p,781,4359621,,,
CVOE updated,69,1,4,43,P 79,Letter,Y,TRUE,CV,,,,,,,q,851,4360997,,,
CVOE updated,69,1,4,44,U 24,Number,Y,TRUE,OE,,,,,,,p,822,4362341,,,
CVOE updated,69,1,4,45,P 74,Number,N,FALSE,OE,,,,,,,p,1524,4364389,,,
CVOE updated,69,1,4,46,E 70,Number,N,TRUE,OE,,,,,,,p,965,4365869,,,
CVOE updated,69,1,4,47,S 27,Number,N,TRUE,OE,,,,,,,q,781,4367165,,,
CVOE updated,69,1,4,48,E 54,Letter,Y,TRUE,CV,,,,,,,p,931,4368621,,,
CVOE updated,69,1,4,49,A 53,Letter,N,FALSE,CV,,,,,,,p,991,4370133,,,
CVOE updated,69,1,4,50,P 34,Letter,N,FALSE,CV,,,,,,,q,724,4371373,,,
CVOE updated,69,1,4,51,D 74,Number,Y,FALSE,OE,,,,,,,p,1269,4373157,,,
CVOE updated,69,1,4,52,A 03,Letter,Y,FALSE,CV,,,,,,,p,1347,4375021,,,
CVOE updated,69,1,4,53,E 24,Number,Y,TRUE,OE,,,,,,,p,881,4376421,,,
CVOE updated,69,1,4,54,I 58,Letter,Y,TRUE,CV,,,,,,,p,1321,4378261,,,
CVOE updated,69,1,4,55,D 77,Number,Y,TRUE,OE,,,,,,,q,778,4379557,,,
CVOE updated,69,1,4,56,S 75,Number,N,TRUE,OE,,,,,,,q,789,4380861,,,
CVOE updated,69,1,4,57,I 20,Letter,Y,TRUE,CV,,,,,,,p,1011,4382389,,,
CVOE updated,69,1,4,58,J 52,Letter,N,FALSE,CV,,,,,,,q,1414,4384325,,,
CVOE updated,69,1,4,59,A 38,Number,Y,TRUE,OE,,,,,,,p,994,4385837,,,
CVOE updated,69,1,4,60,I 60,Letter,Y,TRUE,CV,,,,,,,p,1690,4388053,,,
CVOE updated,69,1,4,61,S 51,Number,Y,TRUE,OE,,,,,,,q,926,4389501,,,
CVOE updated,69,1,4,62,D 63,Letter,Y,TRUE,CV,,,,,,,q,886,4390901,,,
CVOE updated,69,1,4,63,U 27,Letter,N,FALSE,CV,,,,,,,p,1127,4392541,,,
CVOE updated,69,1,4,64,J 77,Letter,N,TRUE,CV,,,,,,,q,810,4393877,,,
CVOE updated,69,1,4,65,O 15,Number,Y,FALSE,OE,,,,,,,q,1085,4395485,,,
CVOE updated,69,1,4,66,J 20,Letter,Y,FALSE,CV,,,,,,,q,1062,4397061,,,
CVOE updated,69,1,4,67,U 97,Number,Y,FALSE,OE,,,,,,,q,884,4398469,,,
CVOE updated,69,1,4,68,H 03,Number,N,TRUE,OE,,,,,,,q,997,4399981,,,
CVOE updated,69,1,4,69,O 04,Letter,Y,TRUE,CV,,,,,,,p,1245,4401749,,,
CVOE updated,69,1,4,70,E 10,Letter,N,TRUE,CV,,,,,,,p,814,4403077,,,
CVOE updated,69,1,4,71,I 52,Letter,N,TRUE,CV,,,,,,,p,713,4404309,,,
CVOE updated,69,1,4,72,H 81,Number,Y,TRUE,OE,,,,,,,q,831,4405653,,,
CVOE updated,69,1,4,73,I 41,Number,N,FALSE,OE,,,,,,,q,1165,4407333,,,
CVOE updated,69,1,4,74,U 19,Letter,Y,FALSE,CV,,,,,,,p,821,4408669,,,
CVOE updated,69,1,4,75,O 17,Number,Y,FALSE,OE,,,,,,,q,779,4409973,,,
CVOE updated,69,1,4,76,A 10,Number,N,TRUE,OE,,,,,,,p,1022,4411509,,,
CVOE updated,69,1,4,77,P 93,Letter,Y,TRUE,CV,,,,,,,q,660,4412693,,,
CVOE updated,69,1,4,78,E 59,Letter,N,FALSE,CV,,,,,,,p,1047,4414253,,,
CVOE updated,69,1,4,79,O 53,Letter,N,FALSE,CV,,,,,,,p,1003,4415781,,,
CVOE updated,69,1,4,80,A 96,Letter,N,TRUE,CV,,,,,,,p,803,4417101,,,
CVOE updated,69,1,4,81,H 36,Letter,Y,FALSE,CV,,,,,,,q,692,4418309,,,
CVOE updated,69,1,4,82,A 63,Letter,N,FALSE,CV,,,,,,,p,719,4419549,,,
CVOE updated,69,1,4,83,I 38,Letter,N,TRUE,CV,,,,,,,p,815,4420885,,,
CVOE updated,69,1,4,84,O 51,Number,Y,FALSE,OE,,,,,,,q,826,4422229,,,
CVOE updated,69,1,4,85,J 26,Number,N,FALSE,OE,,,,,,,q,920,4423669,,,
CVOE updated,69,1,4,86,S 34,Letter,Y,FALSE,CV,,,,,,,q,1385,4425573,,,
CVOE updated,69,1,4,87,U 85,Number,Y,FALSE,OE,,,,,,,q,959,4427053,,,
CVOE updated,69,1,4,88,J 77,Number,N,TRUE,OE,,,,,,,q,1151,4428725,,,
CVOE updated,69,1,4,89,I 73,Letter,Y,FALSE,CV,,,,,,,p,709,4429949,,,
CVOE updated,69,1,4,90,H 46,Number,Y,FALSE,OE,,,,,,,p,1187,4431653,,,
CVOE updated,69,1,4,91,D 04,Number,N,FALSE,OE,,,,,,,p,1105,4433277,,,
CVOE updated,69,1,4,92,P 72,Letter,Y,FALSE,CV,,,,,,,q,1375,4435173,,,
CVOE updated,69,1,4,93,D 99,Number,Y,TRUE,OE,,,,,,,q,1258,4436949,,,
CVOE updated,69,1,4,94,U 25,Letter,Y,FALSE,CV,,,,,,,p,1518,4438981,,,
CVOE updated,69,1,4,95,O 32,Letter,N,TRUE,CV,,,,,,,p,1975,4441477,,,
CVOE updated,69,1,4,96,E 80,Letter,N,TRUE,CV,,,,,,,p,1042,4443037,,,
CVOE updated,69,1,4,97,O 84,Number,Y,TRUE,OE,,,,,,,p,1139,4444693,,,
CVOE updated,69,1,4,98,A 78,Number,N,TRUE,OE,,,,,,,p,1374,4446581,,,
CVOE updated,69,1,4,99,S 05,Number,N,TRUE,OE,,,,,,,q,1073,4448173,,,
CVOE updated,69,1,4,100,U 35,Letter,Y,FALSE,CV,,,,,,,p,962,4449661,,,
CVOE updated,69,1,4,101,H 14,Letter,N,FALSE,CV,,,,,,,q,1203,4451381,,,
CVOE updated,69,1,4,102,U 15,Number,Y,FALSE,OE,,,,,,,q,1019,4452917,,,
CVOE updated,69,1,4,103,E 36,Letter,Y,TRUE,CV,,,,,,,p,2351,4455781,,,
CVOE updated,69,1,4,104,P 70,Letter,N,FALSE,CV,,,,,,,q,861,4457157,,,
CVOE updated,69,1,4,105,O 44,Number,Y,TRUE,OE,,,,,,,p,763,4458445,,,
CVOE updated,69,1,4,106,S 41,Letter,Y,TRUE,CV,,,,,,,q,1011,4459973,,,
CVOE updated,69,1,4,107,D 83,Letter,N,TRUE,CV,,,,,,,q,1111,4461605,,,
CVOE updated,69,1,4,108,J 39,Letter,N,TRUE,CV,,,,,,,q,1029,4463149,,,
CVOE updated,69,1,4,109,S 22,Number,Y,FALSE,OE,,,,,,,p,1114,4464781,,,
CVOE updated,69,1,4,110,D 89,Letter,Y,TRUE,CV,,,,,,,q,1251,4466557,,,
CVOE updated,69,1,4,111,P 87,Letter,N,TRUE,CV,,,,,,,q,774,4467853,,,
CVOE updated,69,1,4,112,H 42,Letter,N,FALSE,CV,,,,,,,q,858,4469229,,,
CVOE updated,69,1,4,113,S 49,Letter,N,TRUE,CV,,,,,,,q,725,4470469,,,
CVOE updated,69,1,4,114,J 20,Number,Y,FALSE,OE,,,,,,,p,741,4471725,,,
CVOE updated,69,1,4,115,O 19,Letter,Y,FALSE,CV,,,,,,,p,923,4473173,,,
CVOE updated,69,1,4,116,H 50,Letter,N,FALSE,CV,,,,,,,q,1348,4475037,,,
CVOE updated,69,1,4,117,I 68,Number,Y,TRUE,OE,,,,,,,p,1210,4476765,,,
CVOE updated,69,1,4,118,J 72,Number,N,FALSE,OE,,,,,,,p,1181,4478469,,,
CVOE updated,69,1,4,119,O 21,Number,N,FALSE,OE,,,,,,,q,1619,4480613,,,
CVOE updated,69,1,4,120,H 22,Number,N,FALSE,OE,,,,,,,p,974,4482101,,,
CVOE updated,73,1,1,1,A 10,,,TRUE,CV,,,,,,,,,,,,
CVOE updated,73,1,1,2,D 11,,,TRUE,CV,,,,,,,,,,,,
CVOE updated,73,1,1,3,E 21,,,FALSE,CV,,,,,,,,,,,,
CVOE updated,73,1,1,4,H 26,,,FALSE,CV,,,,,,,,,,,,
CVOE updated,73,1,1,5,I 32,,,TRUE,CV,,,,,,,,,,,,
CVOE updated,73,1,1,6,J 44,,,FALSE,CV,,,,,,,,,,,,
CVOE updated,73,1,1,7,P 59,,,TRUE,CV,,,,,,,,,,,,
CVOE updated,73,1,1,8,O 61,,,FALSE,CV,,,,,,,,,,,,
CVOE updated,73,1,1,9,S 70,,,FALSE,CV,,,,,,,,,,,,
CVOE updated,73,1,1,10,U 82,,,TRUE,CV,,,,,,,,,,,,
CVOE updated,73,1,1,11,A 71,,,FALSE,CV,p,1175,822809,,,,,,,,,
CVOE updated,73,1,1,12,I 66,,,TRUE,CV,p,610,823937,,,,,,,,,
CVOE updated,73,1,1,13,S 30,,,FALSE,CV,q,613,825073,,,,,,,,,
CVOE updated,73,1,1,14,D 20,,,FALSE,CV,q,656,826249,,,,,,,,,
CVOE updated,73,1,1,15,I 31,,,FALSE,CV,p,619,827385,,,,,,,,,
CVOE updated,73,1,1,16,P 16,,,FALSE,CV,q,558,828457,,,,,,,,,
CVOE updated,73,1,1,17,A 49,,,FALSE,CV,q,591,829569,,,,,,,,,
CVOE updated,73,1,1,18,O 64,,,TRUE,CV,p,749,830833,,,,,,,,,
CVOE updated,73,1,1,19,D 02,,,FALSE,CV,q,618,831969,,,,,,,,,
CVOE updated,73,1,1,20,P 81,,,TRUE,CV,q,654,833137,,,,,,,,,
CVOE updated,73,1,1,21,J 58,,,FALSE,CV,q,713,834369,,,,,,,,,
CVOE updated,73,1,1,22,A 22,,,TRUE,CV,p,649,835545,,,,,,,,,
CVOE updated,73,1,1,23,J 72,,,FALSE,CV,q,628,836697,,,,,,,,,
CVOE updated,73,1,1,24,P 91,,,TRUE,CV,q,666,837881,,,,,,,,,
CVOE updated,73,1,1,25,E 19,,,FALSE,CV,p,720,839121,,,,,,,,,
CVOE updated,73,1,1,26,I 30,,,TRUE,CV,p,656,840297,,,,,,,,,
CVOE updated,73,1,1,27,D 91,,,TRUE,CV,q,595,841409,,,,,,,,,
CVOE updated,73,1,1,28,O 48,,,TRUE,CV,p,788,842721,,,,,,,,,
CVOE updated,73,1,1,29,A 89,,,FALSE,CV,p,1226,844465,,,,,,,,,
CVOE updated,73,1,1,30,U 11,,,FALSE,CV,p,600,845585,,,,,,,,,
CVOE updated,73,1,1,31,I 76,,,TRUE,CV,p,648,846753,,,,,,,,,
CVOE updated,73,1,1,32,U 89,,,FALSE,CV,p,611,847889,,,,,,,,,
CVOE updated,73,1,1,33,D 63,,,TRUE,CV,q,590,849001,,,,,,,,,
CVOE updated,73,1,1,34,H 70,,,FALSE,CV,q,884,850401,,,,,,,,,
CVOE updated,73,1,1,35,D 48,,,FALSE,CV,q,717,851633,,,,,,,,,
CVOE updated,73,1,1,36,P 56,,,FALSE,CV,q,685,852841,,,,,,,,,
CVOE updated,73,1,1,37,O 77,,,FALSE,CV,p,726,854081,,,,,,,,,
CVOE updated,73,1,1,38,P 42,,,FALSE,CV,q,670,855265,,,,,,,,,
CVOE updated,73,1,1,39,H 22,,,FALSE,CV,q,820,856601,,,,,,,,,
CVOE updated,73,1,1,40,E 42,,,TRUE,CV,p,618,857745,,,,,,,,,
CVOE updated,73,1,1,41,J 28,,,FALSE,CV,q,693,858953,,,,,,,,,
CVOE updated,73,1,1,42,E 95,,,FALSE,CV,p,752,860225,,,,,,,,,
CVOE updated,73,1,1,43,S 63,,,TRUE,CV,q,606,861345,,,,,,,,,
CVOE updated,73,1,1,44,H 50,,,FALSE,CV,q,766,862625,,,,,,,,,
CVOE updated,73,1,1,45,S 33,,,TRUE,CV,q,649,863801,,,,,,,,,
CVOE updated,73,1,1,46,P 57,,,TRUE,CV,q,612,864937,,,,,,,,,
CVOE updated,73,1,1,47,E 23,,,FALSE,CV,p,665,866122,,,,,,,,,
CVOE updated,73,1,1,48,S 61,,,TRUE,CV,q,557,867201,,,,,,,,,
CVOE updated,73,1,1,49,U 67,,,FALSE,CV,p,718,868441,,,,,,,,,
CVOE updated,73,1,1,50,H 32,,,FALSE,CV,q,662,869625,,,,,,,,,
CVOE updated,73,1,1,51,U 50,,,TRUE,CV,p,1220,871369,,,,,,,,,
CVOE updated,73,1,1,52,O 49,,,FALSE,CV,p,594,872489,,,,,,,,,
CVOE updated,73,1,1,53,U 32,,,TRUE,CV,p,618,873633,,,,,,,,,
CVOE updated,73,1,1,54,J 78,,,FALSE,CV,q,582,874729,,,,,,,,,
CVOE updated,73,1,1,55,S 54,,,FALSE,CV,q,859,876113,,,,,,,,,
CVOE updated,73,1,1,56,J 27,,,TRUE,CV,q,558,877185,,,,,,,,,
CVOE updated,73,1,1,57,S 06,,,FALSE,CV,q,599,878305,,,,,,,,,
CVOE updated,73,1,1,58,D 67,,,TRUE,CV,q,647,879473,,,,,,,,,
CVOE updated,73,1,1,59,A 79,,,FALSE,CV,p,618,880617,,,,,,,,,
CVOE updated,73,1,1,60,S 52,,,FALSE,CV,q,742,881873,,,,,,,,,
CVOE updated,73,1,1,61,U 16,,,TRUE,CV,p,715,883113,,,,,,,,,
CVOE updated,73,1,1,62,O 82,,,TRUE,CV,p,636,884273,,,,,,,,,
CVOE updated,73,1,1,63,H 87,,,TRUE,CV,q,692,885489,,,,,,,,,
CVOE updated,73,1,1,64,I 32,,,TRUE,CV,p,879,886889,,,,,,,,,
CVOE updated,73,1,1,65,U 37,,,FALSE,CV,p,768,888177,,,,,,,,,
CVOE updated,73,1,1,66,I 42,,,TRUE,CV,p,715,889417,,,,,,,,,
CVOE updated,73,1,1,67,D 65,,,TRUE,CV,q,652,890593,,,,,,,,,
CVOE updated,73,1,1,68,U 77,,,FALSE,CV,p,927,892041,,,,,,,,,
CVOE updated,73,1,1,69,E 12,,,TRUE,CV,p,666,893233,,,,,,,,,
CVOE updated,73,1,1,70,I 60,,,TRUE,CV,p,616,894369,,,,,,,,,
CVOE updated,73,1,1,71,J 36,,,FALSE,CV,q,675,895561,,,,,,,,,
CVOE updated,73,1,1,72,H 75,,,TRUE,CV,q,691,896777,,,,,,,,,
CVOE updated,73,1,1,73,I 50,,,TRUE,CV,p,614,897913,,,,,,,,,
CVOE updated,73,1,1,74,E 99,,,FALSE,CV,p,665,899097,,,,,,,,,
CVOE updated,73,1,1,75,A 86,,,TRUE,CV,p,607,900225,,,,,,,,,
CVOE updated,73,1,1,76,U 48,,,TRUE,CV,p,618,901369,,,,,,,,,
CVOE updated,73,1,1,77,E 01,,,FALSE,CV,p,709,902593,,,,,,,,,
CVOE updated,73,1,1,78,A 78,,,TRUE,CV,p,747,903857,,,,,,,,,
CVOE updated,73,1,1,79,P 60,,,FALSE,CV,q,633,905009,,,,,,,,,
CVOE updated,73,1,1,80,E 43,,,FALSE,CV,p,674,906209,,,,,,,,,
CVOE updated,73,1,1,81,D 69,,,TRUE,CV,q,642,907377,,,,,,,,,
CVOE updated,73,1,1,82,H 11,,,TRUE,CV,q,978,908873,,,,,,,,,
CVOE updated,73,1,1,83,P 43,,,TRUE,CV,q,646,910033,,,,,,,,,
CVOE updated,73,1,1,84,O 67,,,FALSE,CV,p,630,911177,,,,,,,,,
CVOE updated,73,1,1,85,S 91,,,FALSE,CV,q,788,912481,,,,,,,,,
CVOE updated,73,1,1,86,J 68,,,TRUE,CV,q,738,913737,,,,,,,,,
CVOE updated,73,1,1,87,S 47,,,FALSE,CV,q,661,914913,,,,,,,,,
CVOE updated,73,1,1,88,I 81,,,TRUE,CV,p,739,916177,,,,,,,,,
CVOE updated,73,1,1,89,J 39,,,FALSE,CV,q,622,917313,,,,,,,,,
CVOE updated,73,1,1,90,A 11,,,TRUE,CV,p,612,918449,,,,,,,,,
CVOE updated,73,1,1,91,O 76,,,FALSE,CV,p,639,919609,,,,,,,,,
CVOE updated,73,1,1,92,A 62,,,FALSE,CV,p,679,920809,,,,,,,,,
CVOE updated,73,1,1,93,O 27,,,TRUE,CV,p,664,921993,,,,,,,,,
CVOE updated,73,1,1,94,E 66,,,FALSE,CV,p,637,923153,,,,,,,,,
CVOE updated,73,1,1,95,J 62,,,TRUE,CV,q,598,924273,,,,,,,,,
CVOE updated,73,1,1,96,H 72,,,TRUE,CV,q,630,925425,,,,,,,,,
CVOE updated,73,1,1,97,E 49,,,TRUE,CV,p,652,926593,,,,,,,,,
CVOE updated,73,1,1,98,D 52,,,TRUE,CV,q,663,927777,,,,,,,,,
CVOE updated,73,1,1,99,H 62,,,TRUE,CV,q,749,929049,,,,,,,,,
CVOE updated,73,1,1,100,I 11,,,TRUE,CV,p,675,930241,,,,,,,,,
CVOE updated,73,1,1,101,A 98,,,FALSE,CV,p,627,931393,,,,,,,,,
CVOE updated,73,1,1,102,H 29,,,FALSE,CV,q,545,932457,,,,,,,,,
CVOE updated,73,1,1,103,E 83,,,TRUE,CV,p,855,933833,,,,,,,,,
CVOE updated,73,1,1,104,D 43,,,FALSE,CV,q,626,934977,,,,,,,,,
CVOE updated,73,1,1,105,P 45,,,TRUE,CV,q,656,936153,,,,,,,,,
CVOE updated,73,1,1,106,J 17,,,TRUE,CV,q,691,937361,,,,,,,,,
CVOE updated,73,1,2,1,U 08,,,TRUE,OE,,,,,,,,,,,,
CVOE updated,73,1,2,2,S 13,,,FALSE,OE,,,,,,,,,,,,
CVOE updated,73,1,2,3,O 25,,,FALSE,OE,,,,,,,,,,,,
CVOE updated,73,1,2,4,P 26,,,FALSE,OE,,,,,,,,,,,,
CVOE updated,73,1,2,5,J 49,,,TRUE,OE,,,,,,,,,,,,
CVOE updated,73,1,2,6,I 43,,,FALSE,OE,,,,,,,,,,,,
CVOE updated,73,1,2,7,H 26,,,FALSE,OE,,,,,,,,,,,,
CVOE updated,73,1,2,8,E 21,,,FALSE,OE,,,,,,,,,,,,
CVOE updated,73,1,2,9,D 19,,,TRUE,OE,,,,,,,,,,,,
CVOE updated,73,1,2,10,A 82,,,TRUE,OE,,,,,,,,,,,,
CVOE updated,73,1,2,11,A 24,,,TRUE,OE,,,,p,1164,996105,,,,,,
CVOE updated,73,1,2,12,O 83,,,FALSE,OE,,,,q,668,997289,,,,,,
CVOE updated,73,1,2,13,H 55,,,TRUE,OE,,,,q,1074,998881,,,,,,
CVOE updated,73,1,2,14,P 10,,,FALSE,OE,,,,p,1211,1000617,,,,,,
CVOE updated,73,1,2,15,D 30,,,FALSE,OE,,,,p,1022,1002161,,,,,,
CVOE updated,73,1,2,16,U 62,,,TRUE,OE,,,,p,668,1003353,,,,,,
CVOE updated,73,1,2,17,P 95,,,TRUE,OE,,,,q,682,1004553,,,,,,
CVOE updated,73,1,2,18,U 06,,,TRUE,OE,,,,p,762,1005833,,,,,,
CVOE updated,73,1,2,19,E 75,,,FALSE,OE,,,,q,867,1007217,,,,,,
CVOE updated,73,1,2,20,I 67,,,FALSE,OE,,,,q,817,1008553,,,,,,
CVOE updated,73,1,2,21,S 13,,,TRUE,OE,,,,q,804,1009873,,,,,,
CVOE updated,73,1,2,22,P 78,,,FALSE,OE,,,,p,892,1011281,,,,,,
CVOE updated,73,1,2,23,I 15,,,FALSE,OE,,,,q,704,1012505,,,,,,
CVOE updated,73,1,2,24,D 27,,,TRUE,OE,,,,q,781,1013809,,,,,,
CVOE updated,73,1,2,25,O 94,,,TRUE,OE,,,,p,851,1015185,,,,,,
CVOE updated,73,1,2,26,A 65,,,FALSE,OE,,,,q,718,1016425,,,,,,
CVOE updated,73,1,2,27,I 42,,,TRUE,OE,,,,q,751,1017697,,,,,,
CVOE updated,73,1,2,28,E 25,,,FALSE,OE,,,,q,645,1018857,,,,,,
CVOE updated,73,1,2,29,H 49,,,TRUE,OE,,,,q,1253,1020625,,,,,,
CVOE updated,73,1,2,30,S 18,,,FALSE,OE,,,,p,768,1021913,,,,,,
CVOE updated,73,1,2,31,H 51,,,TRUE,OE,,,,q,724,1023161,,,,,,
CVOE updated,73,1,2,32,U 14,,,TRUE,OE,,,,p,860,1024537,,,,,,
CVOE updated,73,1,2,33,E 02,,,TRUE,OE,,,,p,1330,1026393,,,,,,
CVOE updated,73,1,2,34,J 26,,,FALSE,OE,,,,p,693,1027609,,,,,,
CVOE updated,73,1,2,35,D 24,,,FALSE,OE,,,,p,672,1028801,,,,,,
CVOE updated,73,1,2,36,O 50,,,TRUE,OE,,,,p,862,1030177,,,,,,
CVOE updated,73,1,2,37,U 16,,,TRUE,OE,,,,p,732,1031433,,,,,,
CVOE updated,73,1,2,38,O 15,,,FALSE,OE,,,,q,783,1032737,,,,,,
CVOE updated,73,1,2,39,D 32,,,FALSE,OE,,,,p,885,1034145,,,,,,
CVOE updated,73,1,2,40,S 67,,,TRUE,OE,,,,q,1182,1035841,,,,,,
CVOE updated,73,1,2,41,J 74,,,FALSE,OE,,,,p,748,1037113,,,,,,
CVOE updated,73,1,2,42,D 92,,,FALSE,OE,,,,q,937,1038569,,,,,,
CVOE updated,73,1,2,43,A 65,,,FALSE,OE,,,,q,1565,1040649,,,,,,
CVOE updated,73,1,2,44,I 87,,,FALSE,OE,,,,q,853,1042017,,,,,,
CVOE updated,73,1,2,45,H 61,,,TRUE,OE,,,,q,1441,1043977,,,,,,
CVOE updated,73,1,2,46,E 59,,,FALSE,OE,,,,q,1017,1045513,,,,,,
CVOE updated,73,1,2,47,I 33,,,FALSE,OE,,,,q,1485,1047513,,,,,,
CVOE updated,73,1,2,48,O 90,,,TRUE,OE,,,,p,605,1048633,,,,,,
CVOE updated,73,1,2,49,U 51,,,FALSE,OE,,,,q,854,1050001,,,,,,
CVOE updated,73,1,2,50,A 10,,,TRUE,OE,,,,p,1417,1051937,,,,,,
CVOE updated,73,1,2,51,E 50,,,TRUE,OE,,,,p,644,1053097,,,,,,
CVOE updated,73,1,2,52,D 92,,,FALSE,OE,,,,p,757,1054369,,,,,,
CVOE updated,73,1,2,53,E 60,,,TRUE,OE,,,,p,749,1055641,,,,,,
CVOE updated,73,1,2,54,A 95,,,FALSE,OE,,,,q,915,1057073,,,,,,
CVOE updated,73,1,2,55,E 64,,,TRUE,OE,,,,p,836,1058433,,,,,,
CVOE updated,73,1,2,56,P 20,,,FALSE,OE,,,,p,764,1059721,,,,,,
CVOE updated,73,1,2,57,S 06,,,FALSE,OE,,,,p,749,1060985,,,,,,
CVOE updated,73,1,2,58,P 64,,,FALSE,OE,,,,p,763,1062265,,,,,,
CVOE updated,73,1,2,59,U 70,,,TRUE,OE,,,,p,779,1063561,,,,,,
CVOE updated,73,1,2,60,S 16,,,FALSE,OE,,,,p,758,1064833,,,,,,
CVOE updated,73,1,2,61,E 35,,,FALSE,OE,,,,q,751,1066105,,,,,,
CVOE updated,73,1,2,62,I 93,,,FALSE,OE,,,,q,685,1067305,,,,,,
CVOE updated,73,1,2,63,D 63,,,TRUE,OE,,,,q,733,1068553,,,,,,
CVOE updated,73,1,2,64,U 89,,,FALSE,OE,,,,q,872,1069945,,,,,,
CVOE updated,73,1,2,65,E 91,,,FALSE,OE,,,,q,726,1071185,,,,,,
CVOE updated,73,1,2,66,A 12,,,TRUE,OE,,,,p,838,1072537,,,,,,
CVOE updated,73,1,2,67,P 56,,,FALSE,OE,,,,p,775,1073833,,,,,,
CVOE updated,73,1,2,68,S 65,,,TRUE,OE,,,,q,754,1075105,,,,,,
CVOE updated,73,1,2,69,P 07,,,TRUE,OE,,,,q,811,1076441,,,,,,
CVOE updated,73,1,2,70,I 77,,,FALSE,OE,,,,q,1014,1077977,,,,,,
CVOE updated,73,1,2,71,J 19,,,TRUE,OE,,,,q,817,1079313,,,,,,
CVOE updated,73,1,2,72,O 59,,,FALSE,OE,,,,q,908,1080737,,,,,,
CVOE updated,73,1,2,73,J 15,,,TRUE,OE,,,,q,850,1082105,,,,,,
CVOE updated,73,1,2,74,I 89,,,FALSE,OE,,,,q,869,1083497,,,,,,
CVOE updated,73,1,2,75,O 97,,,FALSE,OE,,,,q,819,1084833,,,,,,
CVOE updated,73,1,2,76,A 92,,,TRUE,OE,,,,p,846,1086193,,,,,,
CVOE updated,73,1,2,77,J 90,,,FALSE,OE,,,,p,730,1087449,,,,,,
CVOE updated,73,1,2,78,H 65,,,TRUE,OE,,,,q,725,1088697,,,,,,
CVOE updated,73,1,2,79,H 17,,,TRUE,OE,,,,q,829,1090041,,,,,,
CVOE updated,73,1,2,80,S 26,,,FALSE,OE,,,,p,787,1091345,,,,,,
CVOE updated,73,1,2,81,D 56,,,FALSE,OE,,,,p,745,1092609,,,,,,
CVOE updated,73,1,2,82,I 91,,,FALSE,OE,,,,q,775,1093905,,,,,,
CVOE updated,73,1,2,83,J 11,,,TRUE,OE,,,,q,666,1095089,,,,,,
CVOE updated,73,1,2,84,O 28,,,TRUE,OE,,,,p,816,1096425,,,,,,
CVOE updated,73,1,2,85,H 29,,,TRUE,OE,,,,q,739,1097681,,,,,,
CVOE updated,73,1,2,86,J 25,,,TRUE,OE,,,,q,790,1098985,,,,,,
CVOE updated,73,1,2,87,A 73,,,FALSE,OE,,,,q,788,1100289,,,,,,
CVOE updated,73,1,2,88,J 63,,,TRUE,OE,,,,q,722,1101529,,,,,,
CVOE updated,73,1,2,89,U 84,,,TRUE,OE,,,,p,1482,1103529,,,,,,
CVOE updated,73,1,2,90,A 58,,,TRUE,OE,,,,p,627,1104673,,,,,,
CVOE updated,73,1,2,91,S 43,,,TRUE,OE,,,,q,665,1105857,,,,,,
CVOE updated,73,1,2,92,H 54,,,FALSE,OE,,,,p,1006,1107385,,,,,,
CVOE updated,73,1,2,93,D 4,,,FALSE,OE,,,,p,746,1108657,,,,,,
CVOE updated,73,1,2,94,J 75,,,TRUE,OE,,,,q,847,1110025,,,,,,
CVOE updated,73,1,2,95,D 19,,,TRUE,OE,,,,q,1675,1112225,,,,,,
CVOE updated,73,1,2,96,J 38,,,FALSE,OE,,,,p,660,1113409,,,,,,
CVOE updated,73,1,2,97,I 56,,,TRUE,OE,,,,p,735,1114657,,,,,,
CVOE updated,73,1,2,98,P 87,,,TRUE,OE,,,,q,650,1115825,,,,,,
CVOE updated,73,1,2,99,O 80,,,TRUE,OE,,,,p,933,1117281,,,,,,
CVOE updated,73,1,2,100,U 60,,,TRUE,OE,,,,p,704,1118505,,,,,,
CVOE updated,73,1,2,101,P 48,,,FALSE,OE,,,,p,662,1119689,,,,,,
CVOE updated,73,1,2,102,H 64,,,FALSE,OE,,,,p,828,1121041,,,,,,
CVOE updated,73,1,2,103,A 13,,,FALSE,OE,,,,q,714,1122273,,,,,,
CVOE updated,73,1,2,104,H 68,,,FALSE,OE,,,,p,1578,1124377,,,,,,
CVOE updated,73,1,2,105,E 16,,,TRUE,OE,,,,p,734,1125625,,,,,,
CVOE updated,73,1,2,106,S 71,,,TRUE,OE,,,,q,1273,1127417,,,,,,
CVOE updated,73,1,3,1,U 84,Letter,N,TRUE,CV,,,,,,,,,,,,
CVOE updated,73,1,3,2,D 34,Letter,N,FALSE,CV,,,,,,,,,,,,
CVOE updated,73,1,3,3,O 73,Number,Y,FALSE,OE,,,,,,,,,,,,
CVOE updated,73,1,3,4,H 85,Number,N,TRUE,OE,,,,,,,,,,,,
CVOE updated,73,1,3,5,I 60,Letter,Y,TRUE,CV,,,,,,,,,,,,
CVOE updated,73,1,3,6,J 32,Letter,N,FALSE,CV,,,,,,,,,,,,
CVOE updated,73,1,3,7,E 99,Number,Y,FALSE,OE,,,,,,,,,,,,
CVOE updated,73,1,3,8,P 07,Number,N,TRUE,OE,,,,,,,,,,,,
CVOE updated,73,1,3,9,S 38,Letter,Y,FALSE,CV,,,,,,,,,,,,
CVOE updated,73,1,3,10,A 18,Letter,N,TRUE,CV,,,,,,,,,,,,
CVOE updated,73,1,3,11,A 44,Letter,N,TRUE,CV,,,,,,,,,,p,2364,1206105
CVOE updated,73,1,3,12,D 94,Letter,N,FALSE,CV,,,,,,,,,,q,1381,1208001
CVOE updated,73,1,3,13,E 75,Number,Y,FALSE,OE,,,,,,,,,,q,1067,1209593
CVOE updated,73,1,3,14,H 81,Number,N,TRUE,OE,,,,,,,,,,q,1201,1211313
CVOE updated,73,1,3,15,I 64,Letter,Y,TRUE,CV,,,,,,,,,,p,1457,1213289
CVOE updated,73,1,3,16,J 54,Letter,N,FALSE,CV,,,,,,,,,,q,1261,1215065
CVOE updated,73,1,3,17,O 23,Number,Y,FALSE,OE,,,,,,,,,,q,1259,1216849
CVOE updated,73,1,3,18,P 05,Number,N,TRUE,OE,,,,,,,,,,q,1182,1218545
CVOE updated,73,1,3,19,S 34,Letter,Y,FALSE,CV,,,,,,,,,,q,1284,1220353
CVOE updated,73,1,3,20,U 88,Letter,N,TRUE,CV,,,,,,,,,,p,1133,1222001
CVOE updated,73,1,3,21,A 70,Number,Y,TRUE,OE,,,,,,,,,,p,2024,1224545
CVOE updated,73,1,3,22,D 12,Number,N,FALSE,OE,,,,,,,,,,p,2063,1227129
CVOE updated,73,1,3,23,E 79,Letter,Y,FALSE,CV,,,,,,,,,,p,1405,1229057
CVOE updated,73,1,3,24,H 72,Letter,N,FALSE,CV,,,,,,,,,,q,1030,1230601
CVOE updated,73,1,3,25,I 41,Number,Y,FALSE,OE,,,,,,,,,,q,1484,1232601
CVOE updated,73,1,3,26,J 63,Number,N,TRUE,OE,,,,,,,,,,q,1916,1235033
CVOE updated,73,1,3,27,O 03,Letter,Y,FALSE,CV,,,,,,,,,,p,1285,1236841
CVOE updated,73,1,3,28,P 75,Letter,N,TRUE,CV,,,,,,,,,,q,1038,1238393
CVOE updated,73,1,3,29,S 61,Number,Y,TRUE,OE,,,,,,,,,,q,1486,1240401
CVOE updated,73,1,3,30,U 28,Number,N,TRUE,OE,,,,,,,,,,p,1178,1242105
CVOE updated,73,1,3,31,A 21,Letter,Y,FALSE,CV,,,,,,,,,,p,1317,1243937
CVOE updated,73,1,3,32,D 18,Letter,N,FALSE,CV,,,,,,,,,,q,1478,1245937
CVOE updated,73,1,3,33,E 35,Number,Y,FALSE,OE,,,,,,,,,,q,1823,1248281
CVOE updated,73,1,3,34,H 62,Number,N,FALSE,OE,,,,,,,,,,p,2181,1250985
CVOE updated,73,1,3,35,I 82,Letter,Y,TRUE,CV,,,,,,,,,,p,1299,1252809
CVOE updated,73,1,3,36,J 78,Letter,N,FALSE,CV,,,,,,,,,,q,1415,1254737
CVOE updated,73,1,3,37,O 12,Number,Y,TRUE,OE,,,,,,,,,,p,1050,1256305
CVOE updated,73,1,3,38,P 13,Number,N,TRUE,OE,,,,,,,,,,q,1117,1257945
CVOE updated,73,1,3,39,S 07,Letter,Y,TRUE,CV,,,,,,,,,,q,1318,1259785
CVOE updated,73,1,3,40,U 36,Letter,N,TRUE,CV,,,,,,,,,,p,1207,1261513
CVOE updated,73,1,3,41,A 96,Number,Y,TRUE,OE,,,,,,,,,,p,1514,1263553
CVOE updated,73,1,3,42,D 04,Number,N,FALSE,OE,,,,,,,,,,p,1859,1265937
CVOE updated,73,1,3,43,E 60,Letter,Y,TRUE,CV,,,,,,,,,,p,1174,1267625
CVOE updated,73,1,3,44,H 83,Letter,N,TRUE,CV,,,,,,,,,,q,1042,1269185
CVOE updated,73,1,3,45,I 64,Number,Y,TRUE,OE,,,,,,,,,,p,1442,1271145
CVOE updated,73,1,3,46,J 76,Number,N,FALSE,OE,,,,,,,,,,p,1075,1272737
CVOE updated,73,1,3,47,O 78,Letter,Y,TRUE,CV,,,,,,,,,,p,1428,1274689
CVOE updated,73,1,3,48,P 09,Letter,N,TRUE,CV,,,,,,,,,,q,2066,1277273
CVOE updated,73,1,3,49,S 72,Number,Y,FALSE,OE,,,,,,,,,,p,1240,1279033
CVOE updated,73,1,3,50,U 47,Number,N,FALSE,OE,,,,,,,,,,q,849,1280401
CVOE updated,73,1,3,51,A 31,Letter,Y,FALSE,CV,,,,,,,,,,p,1172,1282097
CVOE updated,73,1,3,52,D 96,Letter,N,FALSE,CV,,,,,,,,,,q,2399,1285017
CVOE updated,73,1,3,53,E 40,Number,Y,TRUE,OE,,,,,,,,,,p,1984,1287521
CVOE updated,73,1,3,54,H 79,Number,N,TRUE,OE,,,,,,,,,,q,1199,1289241
CVOE updated,73,1,3,55,I 15,Letter,Y,FALSE,CV,,,,,,,,,,p,1055,1290817
CVOE updated,73,1,3,56,J 07,Letter,N,TRUE,CV,,,,,,,,,,q,2043,1293377
CVOE updated,73,1,3,57,O 61,Number,Y,FALSE,OE,,,,,,,,,,q,1908,1295801
CVOE updated,73,1,3,58,P 58,Number,N,FALSE,OE,,,,,,,,,,p,1858,1298177
CVOE updated,73,1,3,59,S 37,Letter,Y,TRUE,CV,,,,,,,,,,q,1277,1299969
CVOE updated,73,1,3,60,U 61,Letter,N,FALSE,CV,,,,,,,,,,p,1806,1302297
CVOE updated,73,1,3,61,A 17,Number,Y,FALSE,OE,,,,,,,,,,q,1311,1304121
CVOE updated,73,1,3,62,D 85,Number,N,TRUE,OE,,,,,,,,,,q,1205,1305841
CVOE updated,73,1,3,63,E 20,Letter,Y,TRUE,CV,,,,,,,,,,p,830,1307185
CVOE updated,73,1,3,64,H 86,Letter,N,FALSE,CV,,,,,,,,,,q,1059,1308761
CVOE updated,73,1,3,65,I 21,Number,Y,FALSE,OE,,,,,,,,,,q,1847,1311121
CVOE updated,73,1,3,66,J 29,Number,N,TRUE,OE,,,,,,,,,,q,1946,1313593
CVOE updated,73,1,3,67,O 13,Letter,Y,FALSE,CV,,,,,,,,,,p,1209,1315321
CVOE updated,73,1,3,68,P 82,Letter,N,FALSE,CV,,,,,,,,,,q,1668,1317513
CVOE updated,73,1,3,69,S 72,Number,Y,FALSE,OE,,,,,,,,,,p,1146,1319177
CVOE updated,73,1,3,70,U 84,Number,N,TRUE,OE,,,,,,,,,,p,1032,1320729
CVOE updated,73,1,3,71,A 49,Letter,Y,FALSE,CV,,,,,,,,,,p,1150,1322393
CVOE updated,73,1,3,72,D 91,Letter,N,TRUE,CV,,,,,,,,,,q,2076,1324985
CVOE updated,73,1,3,73,E 99,Number,Y,FALSE,OE,,,,,,,,,,p,1293,1326801
CVOE updated,73,1,3,74,H 16,Number,N,FALSE,OE,,,,,,,,,,p,2528,1329849
CVOE updated,73,1,3,75,I 45,Letter,Y,FALSE,CV,,,,,,,,,,p,1212,1331585
CVOE updated,73,1,3,76,J 70,Letter,N,FALSE,CV,,,,,,,,,,q,1872,1333977
CVOE updated,73,1,3,77,O 22,Number,Y,TRUE,OE,,,,,,,,,,p,1302,1335793
CVOE updated,73,1,3,78,P 41,Number,N,TRUE,OE,,,,,,,,,,q,1428,1337745
CVOE updated,73,1,3,79,S 93,Letter,Y,TRUE,CV,,,,,,,,,,q,1034,1339297
CVOE updated,73,1,3,80,U 70,Letter,N,TRUE,CV,,,,,,,,,,p,1490,1341313
CVOE updated,73,1,3,81,A 42,Number,Y,TRUE,OE,,,,,,,,,,p,1182,1343017
CVOE updated,73,1,3,82,D 85,Number,N,TRUE,OE,,,,,,,,,,q,2252,1345793
CVOE updated,73,1,3,83,E 68,Letter,Y,TRUE,CV,,,,,,,,,,p,1448,1347761
CVOE updated,73,1,3,84,H 17,Letter,N,TRUE,CV,,,,,,,,,,q,1987,1350273
CVOE updated,73,1,3,85,I 70,Number,Y,TRUE,OE,,,,,,,,,,p,1233,1352025
CVOE updated,73,1,3,86,J 88,Number,N,FALSE,OE,,,,,,,,,,p,1250,1353801
CVOE updated,73,1,3,87,O 32,Letter,Y,TRUE,CV,,,,,,,,,,p,917,1355241
CVOE updated,73,1,3,88,P 95,Letter,N,TRUE,CV,,,,,,,,,,q,854,1356617
CVOE updated,73,1,3,89,S 98,Number,Y,FALSE,OE,,,,,,,,,,p,1433,1358569
CVOE updated,73,1,3,90,U 37,Number,N,FALSE,OE,,,,,,,,,,q,1055,1360137
CVOE updated,73,1,3,91,A 56,Letter,Y,TRUE,CV,,,,,,,,,,p,962,1361617
CVOE updated,73,1,3,92,D 57,Letter,N,TRUE,CV,,,,,,,,,,q,850,1362984
CVOE updated,73,1,3,93,E 93,Number,Y,FALSE,OE,,,,,,,,,,q,1182,1364689
CVOE updated,73,1,3,94,H 27,Number,N,TRUE,OE,,,,,,,,,,q,1756,1366969
CVOE updated,73,1,3,95,I 35,Letter,Y,FALSE,CV,,,,,,,,,,p,1829,1369321
CVOE updated,73,1,3,96,J 03,Letter,N,TRUE,CV,,,,,,,,,,q,1275,1371113
CVOE updated,73,1,3,97,O 28,Number,Y,TRUE,OE,,,,,,,,,,p,876,1372513
CVOE updated,73,1,3,98,P 59,Number,N,TRUE,OE,,,,,,,,,,q,1213,1374249
CVOE updated,73,1,3,99,S 77,Letter,Y,TRUE,CV,,,,,,,,,,q,1048,1375817
CVOE updated,73,1,3,100,U 05,Letter,N,FALSE,CV,,,,,,,,,,p,1738,1378080
CVOE updated,73,1,3,101,A 56,Number,Y,TRUE,OE,,,,,,,,,,p,1583,1380177
CVOE updated,73,1,3,102,D 01,Number,N,TRUE,OE,,,,,,,,,,q,1132,1381832
CVOE updated,73,1,3,103,E 02,Letter,Y,TRUE,CV,,,,,,,,,,p,943,1383296
CVOE updated,73,1,3,104,H 68,Letter,N,FALSE,CV,,,,,,,,,,q,1934,1385753
CVOE updated,73,1,3,105,I 05,Number,Y,FALSE,OE,,,,,,,,,,q,1209,1387480
CVOE updated,73,1,3,106,J 55,Number,N,TRUE,OE,,,,,,,,,,p,1300,1389304
CVOE updated,73,1,3,107,O 73,Letter,Y,FALSE,CV,,,,,,,,,,p,1675,1391505
CVOE updated,73,1,3,108,P 41,Letter,N,TRUE,CV,,,,,,,,,,q,2107,1394136
CVOE updated,73,1,3,109,S 92,Number,Y,FALSE,OE,,,,,,,,,,p,1546,1396201
CVOE updated,73,1,3,110,U 34,Number,N,TRUE,OE,,,,,,,,,,p,936,1397657
CVOE updated,73,1,3,111,A 09,Letter,Y,FALSE,CV,,,,,,,,,,p,2378,1400552
CVOE updated,73,1,3,112,D 92,Letter,N,FALSE,CV,,,,,,,,,,q,1055,1402121
CVOE updated,73,1,3,113,E 48,Number,Y,TRUE,OE,,,,,,,,,,p,1474,1404112
CVOE updated,73,1,3,114,H 76,Number,N,FALSE,OE,,,,,,,,,,p,2946,1407584
CVOE updated,73,1,3,115,I 44,Letter,Y,TRUE,CV,,,,,,,,,,p,1489,1409592
CVOE updated,73,1,3,116,J 67,Letter,N,TRUE,CV,,,,,,,,,,q,1348,1411464
CVOE updated,73,1,3,117,O 48,Number,Y,TRUE,OE,,,,,,,,,,p,1234,1413216
CVOE updated,73,1,3,118,P 22,Number,N,FALSE,OE,,,,,,,,,,p,1372,1415113
CVOE updated,73,1,3,119,S 86,Letter,Y,FALSE,CV,,,,,,,,,,q,822,1416456
CVOE updated,73,1,3,120,U 35,Letter,N,FALSE,CV,,,,,,,,,,p,1860,1418840
CVOE updated,73,1,3,121,A 91,Number,Y,FALSE,OE,,,,,,,,,,q,1235,1420600
CVOE updated,73,1,3,122,D 78,Number,N,FALSE,OE,,,,,,,,,,p,1003,1422128
CVOE updated,73,1,3,123,E 91,Letter,Y,FALSE,CV,,,,,,,,,,p,932,1423576
CVOE updated,73,1,3,124,H 54,Letter,N,FALSE,CV,,,,,,,,,,q,911,1425008
CVOE updated,73,1,3,125,I 65,Number,Y,FALSE,OE,,,,,,,,,,q,925,1426448
CVOE updated,73,1,3,126,J 52,Number,N,FALSE,OE,,,,,,,,,,p,1621,1428584
CVOE updated,73,1,3,127,O 19,Letter,Y,FALSE,CV,,,,,,,,,,p,852,1429960
CVOE updated,73,1,3,128,P 48,Letter,N,FALSE,CV,,,,,,,,,,q,1119,1431600
CVOE updated,73,1,3,129,S 45,Number,Y,TRUE,OE,,,,,,,,,,q,863,1432984
CVOE updated,73,1,3,130,U 26,Number,N,TRUE,OE,,,,,,,,,,p,1005,1434512
CVOE updated,73,1,4,1,U 38,Number,N,TRUE,OE,,,,,,,p,1812,1466720,,,
CVOE updated,73,1,4,2,P 73,Number,N,TRUE,OE,,,,,,,q,1048,1468288,,,
CVOE updated,73,1,4,3,U 95,Letter,Y,FALSE,CV,,,,,,,p,987,1469800,,,
CVOE updated,73,1,4,4,J 61,Number,Y,TRUE,OE,,,,,,,q,1137,1471456,,,
CVOE updated,73,1,4,5,D 51,Number,N,TRUE,OE,,,,,,,q,1028,1473000,,,
CVOE updated,73,1,4,6,S 28,Number,N,FALSE,OE,,,,,,,p,1034,1474552,,,
CVOE updated,73,1,4,7,A 56,Letter,Y,TRUE,CV,,,,,,,p,1075,1476152,,,
CVOE updated,73,1,4,8,H 78,Letter,N,FALSE,CV,,,,,,,q,995,1477672,,,
CVOE updated,73,1,4,9,P 92,Letter,N,FALSE,CV,,,,,,,q,1412,1479608,,,
CVOE updated,73,1,4,10,E 05,Number,Y,FALSE,OE,,,,,,,q,1031,1481160,,,
CVOE updated,73,1,4,11,P 57,Letter,Y,TRUE,CV,,,,,,,q,973,1482648,,,
CVOE updated,73,1,4,12,D 88,Number,Y,FALSE,OE,,,,,,,p,1144,1484312,,,
CVOE updated,73,1,4,13,O 89,Letter,Y,FALSE,CV,,,,,,,p,966,1485800,,,
CVOE updated,73,1,4,14,U 43,Number,Y,FALSE,OE,,,,,,,q,1234,1487560,,,
CVOE updated,73,1,4,15,H 10,Number,N,FALSE,OE,,,,,,,p,1162,1489248,,,
CVOE updated,73,1,4,16,S 07,Letter,Y,TRUE,CV,,,,,,,q,1779,1491544,,,
CVOE updated,73,1,4,17,J 10,Letter,N,FALSE,CV,,,,,,,q,1198,1493256,,,
CVOE updated,73,1,4,18,H 54,Number,Y,FALSE,OE,,,,,,,p,1007,1494784,,,
CVOE updated,73,1,4,19,E 99,Number,N,FALSE,OE,,,,,,,q,970,1496280,,,
CVOE updated,73,1,4,20,J 36,Letter,Y,FALSE,CV,,,,,,,q,1095,1497897,,,
CVOE updated,73,1,4,21,I 94,Letter,N,TRUE,CV,,,,,,,p,1185,1499600,,,
CVOE updated,73,1,4,22,A 82,Letter,N,TRUE,CV,,,,,,,p,1047,1501168,,,
CVOE updated,73,1,4,23,H 79,Number,Y,TRUE,OE,,,,,,,q,1362,1503056,,,
CVOE updated,73,1,4,24,J 60,Number,N,FALSE,OE,,,,,,,p,1339,1504912,,,
CVOE updated,73,1,4,25,S 28,Letter,Y,FALSE,CV,,,,,,,q,1270,1506696,,,
CVOE updated,73,1,4,26,P 11,Number,Y,TRUE,OE,,,,,,,q,1116,1508328,,,
CVOE updated,73,1,4,27,D 39,Number,N,TRUE,OE,,,,,,,q,1021,1509872,,,
CVOE updated,73,1,4,28,E 90,Number,N,TRUE,OE,,,,,,,p,979,1511376,,,
CVOE updated,73,1,4,29,I 38,Number,N,TRUE,OE,,,,,,,p,1142,1513032,,,
CVOE updated,73,1,4,30,S 35,Letter,Y,TRUE,CV,,,,,,,q,1036,1514592,,,
CVOE updated,73,1,4,31,D 41,Number,Y,TRUE,OE,,,,,,,q,1029,1516144,,,
CVOE updated,73,1,4,32,E 06,Number,N,TRUE,OE,,,,,,,p,1019,1517680,,,
CVOE updated,73,1,4,33,A 27,Number,N,FALSE,OE,,,,,,,q,1006,1519200,,,
CVOE updated,73,1,4,34,U 95,Letter,Y,FALSE,CV,,,,,,,p,1366,1521080,,,
CVOE updated,73,1,4,35,A 53,Letter,N,FALSE,CV,,,,,,,p,1466,1523072,,,
CVOE updated,73,1,4,36,E 43,Letter,N,FALSE,CV,,,,,,,p,904,1524496,,,
CVOE updated,73,1,4,37,P 05,Number,Y,TRUE,OE,,,,,,,q,958,1525976,,,
CVOE updated,73,1,4,38,O 19,Letter,Y,FALSE,CV,,,,,,,q,1030,1527528,,,
CVOE updated,73,1,4,39,I 96,Number,Y,TRUE,OE,,,,,,,p,1756,1529800,,,
CVOE updated,73,1,4,40,A 88,Number,N,TRUE,OE,,,,,,,p,1237,1531560,,,
CVOE updated,73,1,4,41,I 67,Number,N,FALSE,OE,,,,,,,q,1374,1533456,,,
CVOE updated,73,1,4,42,D 40,Number,N,FALSE,OE,,,,,,,p,1225,1535200,,,
CVOE updated,73,1,4,43,P 79,Letter,Y,TRUE,CV,,,,,,,q,943,1536664,,,
CVOE updated,73,1,4,44,U 24,Number,Y,TRUE,OE,,,,,,,p,1581,1538768,,,
CVOE updated,73,1,4,45,P 74,Number,N,FALSE,OE,,,,,,,p,1395,1540688,,,
CVOE updated,73,1,4,46,E 70,Number,N,TRUE,OE,,,,,,,p,1228,1542440,,,
CVOE updated,73,1,4,47,S 27,Number,N,TRUE,OE,,,,,,,q,1370,1544328,,,
CVOE updated,73,1,4,48,E 54,Letter,Y,TRUE,CV,,,,,,,p,869,1545720,,,
CVOE updated,73,1,4,49,A 53,Letter,N,FALSE,CV,,,,,,,p,915,1547152,,,
CVOE updated,73,1,4,50,P 34,Letter,N,FALSE,CV,,,,,,,q,788,1548464,,,
CVOE updated,73,1,4,51,D 74,Number,Y,FALSE,OE,,,,,,,p,994,1549976,,,
CVOE updated,73,1,4,52,A 03,Letter,Y,FALSE,CV,,,,,,,p,1570,1552072,,,
CVOE updated,73,1,4,53,E 24,Number,Y,TRUE,OE,,,,,,,p,1070,1553664,,,
CVOE updated,73,1,4,54,I 58,Letter,Y,TRUE,CV,,,,,,,p,1244,1555424,,,
CVOE updated,73,1,4,55,D 77,Number,Y,TRUE,OE,,,,,,,q,1668,1557608,,,
CVOE updated,73,1,4,56,S 75,Number,N,TRUE,OE,,,,,,,q,818,1558944,,,
CVOE updated,73,1,4,57,I 20,Letter,Y,TRUE,CV,,,,,,,p,1126,1560584,,,
CVOE updated,73,1,4,58,J 52,Letter,N,FALSE,CV,,,,,,,q,806,1561904,,,
CVOE updated,73,1,4,59,A 38,Number,Y,TRUE,OE,,,,,,,p,1249,1563680,,,
CVOE updated,73,1,4,60,I 60,Letter,Y,TRUE,CV,,,,,,,p,1125,1565328,,,
CVOE updated,73,1,4,61,S 51,Number,Y,TRUE,OE,,,,,,,q,1165,1567008,,,
CVOE updated,73,1,4,62,D 63,Letter,Y,TRUE,CV,,,,,,,q,1702,1569224,,,
CVOE updated,73,1,4,63,U 27,Letter,N,FALSE,CV,,,,,,,p,900,1570648,,,
CVOE updated,73,1,4,64,J 77,Letter,N,TRUE,CV,,,,,,,q,1426,1572600,,,
CVOE updated,73,1,4,65,O 15,Number,Y,FALSE,OE,,,,,,,q,960,1574080,,,
CVOE updated,73,1,4,66,J 20,Letter,Y,FALSE,CV,,,,,,,q,1049,1575648,,,
CVOE updated,73,1,4,67,U 97,Number,Y,FALSE,OE,,,,,,,q,1796,1577968,,,
CVOE updated,73,1,4,68,H 03,Number,N,TRUE,OE,,,,,,,q,1381,1579872,,,
CVOE updated,73,1,4,69,O 04,Letter,Y,TRUE,CV,,,,,,,p,851,1581248,,,
CVOE updated,73,1,4,70,E 10,Letter,N,TRUE,CV,,,,,,,p,806,1582576,,,
CVOE updated,73,1,4,71,I 52,Letter,N,TRUE,CV,,,,,,,p,743,1583832,,,
CVOE updated,73,1,4,72,H 81,Number,Y,TRUE,OE,,,,,,,q,940,1585296,,,
CVOE updated,73,1,4,73,I 41,Number,N,FALSE,OE,,,,,,,q,1354,1587176,,,
CVOE updated,73,1,4,74,U 19,Letter,Y,FALSE,CV,,,,,,,p,1003,1588704,,,
CVOE updated,73,1,4,75,O 17,Number,Y,FALSE,OE,,,,,,,q,1044,1590264,,,
CVOE updated,73,1,4,76,A 10,Number,N,TRUE,OE,,,,,,,p,996,1591776,,,
CVOE updated,73,1,4,77,P 93,Letter,Y,TRUE,CV,,,,,,,q,1221,1593520,,,
CVOE updated,73,1,4,78,E 59,Letter,N,FALSE,CV,,,,,,,p,731,1594776,,,
CVOE updated,73,1,4,79,O 53,Letter,N,FALSE,CV,,,,,,,q,934,1596232,,,
CVOE updated,73,1,4,80,A 96,Letter,N,TRUE,CV,,,,,,,p,1425,1598176,,,
CVOE updated,73,1,4,81,H 36,Letter,Y,FALSE,CV,,,,,,,q,719,1599416,,,
CVOE updated,73,1,4,82,A 63,Letter,N,FALSE,CV,,,,,,,p,1128,1601064,,,
CVOE updated,73,1,4,83,I 38,Letter,N,TRUE,CV,,,,,,,p,819,1602408,,,
CVOE updated,73,1,4,84,O 51,Number,Y,FALSE,OE,,,,,,,q,1689,1604624,,,
CVOE updated,73,1,4,85,J 26,Number,N,FALSE,OE,,,,,,,p,1276,1606424,,,
CVOE updated,73,1,4,86,S 34,Letter,Y,FALSE,CV,,,,,,,q,1085,1608032,,,
CVOE updated,73,1,4,87,U 85,Number,Y,FALSE,OE,,,,,,,q,2150,1610696,,,
CVOE updated,73,1,4,88,J 77,Number,N,TRUE,OE,,,,,,,q,1740,1612952,,,
CVOE updated,73,1,4,89,I 73,Letter,Y,FALSE,CV,,,,,,,p,938,1614416,,,
CVOE updated,73,1,4,90,H 46,Number,Y,FALSE,OE,,,,,,,p,1181,1616112,,,
CVOE updated,73,1,4,91,D 04,Number,N,FALSE,OE,,,,,,,p,1555,1618192,,,
CVOE updated,73,1,4,92,P 72,Letter,Y,FALSE,CV,,,,,,,q,1220,1619936,,,
CVOE updated,73,1,4,93,D 99,Number,Y,TRUE,OE,,,,,,,q,970,1621432,,,
CVOE updated,73,1,4,94,U 25,Letter,Y,FALSE,CV,,,,,,,p,1005,1622960,,,
CVOE updated,73,1,4,95,O 32,Letter,N,TRUE,CV,,,,,,,p,1038,1624512,,,
CVOE updated,73,1,4,96,E 80,Letter,N,TRUE,CV,,,,,,,p,943,1625976,,,
CVOE updated,73,1,4,97,O 84,Number,Y,TRUE,OE,,,,,,,p,1613,1628112,,,
CVOE updated,73,1,4,98,A 78,Number,N,TRUE,OE,,,,,,,p,1368,1630000,,,
CVOE updated,73,1,4,99,S 05,Number,N,TRUE,OE,,,,,,,q,963,1631488,,,
CVOE updated,73,1,4,100,U 35,Letter,Y,FALSE,CV,,,,,,,p,1860,1633864,,,
CVOE updated,73,1,4,101,H 14,Letter,N,FALSE,CV,,,,,,,q,794,1635184,,,
CVOE updated,73,1,4,102,U 15,Number,Y,FALSE,OE,,,,,,,q,1067,1636776,,,
CVOE updated,73,1,4,103,E 36,Letter,Y,TRUE,CV,,,,,,,p,1265,1638560,,,
CVOE updated,73,1,4,104,P 70,Letter,N,FALSE,CV,,,,,,,q,1071,1640152,,,
CVOE updated,73,1,4,105,O 44,Number,Y,TRUE,OE,,,,,,,p,1053,1641720,,,
CVOE updated,73,1,4,106,S 41,Letter,Y,TRUE,CV,,,,,,,q,1456,1643696,,,
CVOE updated,73,1,4,107,D 83,Letter,N,TRUE,CV,,,,,,,q,1459,1645672,,,
CVOE updated,73,1,4,108,J 39,Letter,N,TRUE,CV,,,,,,,q,1081,1647280,,,
CVOE updated,73,1,4,109,S 22,Number,Y,FALSE,OE,,,,,,,p,1130,1648928,,,
CVOE updated,73,1,4,110,D 89,Letter,Y,TRUE,CV,,,,,,,q,1349,1650800,,,
CVOE updated,73,1,4,111,P 87,Letter,N,TRUE,CV,,,,,,,q,1659,1652976,,,
CVOE updated,73,1,4,112,H 42,Letter,N,FALSE,CV,,,,,,,q,1215,1654704,,,
CVOE updated,73,1,4,113,S 49,Letter,N,TRUE,CV,,,,,,,q,818,1656040,,,
CVOE updated,73,1,4,114,J 20,Number,Y,FALSE,OE,,,,,,,p,1645,1658200,,,
CVOE updated,73,1,4,115,O 19,Letter,Y,FALSE,CV,,,,,,,p,1894,1660608,,,
CVOE updated,73,1,4,116,H 50,Letter,N,FALSE,CV,,,,,,,q,2194,1663320,,,
CVOE updated,73,1,4,117,I 68,Number,Y,TRUE,OE,,,,,,,p,1299,1665144,,,
CVOE updated,73,1,4,118,J 72,Number,N,FALSE,OE,,,,,,,p,1294,1666952,,,
CVOE updated,73,1,4,119,O 21,Number,N,FALSE,OE,,,,,,,q,1066,1668536,,,
CVOE updated,73,1,4,120,H 22,Number,N,FALSE,OE,,,,,,,p,1368,1670424,,,
CVOE updated,77,1,1,1,A 10,,,TRUE,CV,,,,,,,,,,,,
CVOE updated,77,1,1,2,D 11,,,TRUE,CV,,,,,,,,,,,,
CVOE updated,77,1,1,3,E 21,,,FALSE,CV,,,,,,,,,,,,
CVOE updated,77,1,1,4,H 26,,,FALSE,CV,,,,,,,,,,,,
CVOE updated,77,1,1,5,I 32,,,TRUE,CV,,,,,,,,,,,,
CVOE updated,77,1,1,6,J 44,,,FALSE,CV,,,,,,,,,,,,
CVOE updated,77,1,1,7,P 59,,,TRUE,CV,,,,,,,,,,,,
CVOE updated,77,1,1,8,O 61,,,FALSE,CV,,,,,,,,,,,,
CVOE updated,77,1,1,9,S 70,,,FALSE,CV,,,,,,,,,,,,
CVOE updated,77,1,1,10,U 82,,,TRUE,CV,,,,,,,,,,,,
CVOE updated,77,1,1,11,A 71,,,FALSE,CV,p,1049,350313,,,,,,,,,
CVOE updated,77,1,1,12,I 66,,,TRUE,CV,p,563,351393,,,,,,,,,
CVOE updated,77,1,1,13,S 30,,,FALSE,CV,q,535,352449,,,,,,,,,
CVOE updated,77,1,1,14,D 20,,,FALSE,CV,q,597,353561,,,,,,,,,
CVOE updated,77,1,1,15,I 31,,,FALSE,CV,p,800,354881,,,,,,,,,
CVOE updated,77,1,1,16,P 16,,,FALSE,CV,q,988,356385,,,,,,,,,
CVOE updated,77,1,1,17,A 49,,,FALSE,CV,p,552,357449,,,,,,,,,
CVOE updated,77,1,1,18,O 64,,,TRUE,CV,p,493,358457,,,,,,,,,
CVOE updated,77,1,1,19,D 02,,,FALSE,CV,q,533,359497,,,,,,,,,
CVOE updated,77,1,1,20,P 81,,,TRUE,CV,q,515,360529,,,,,,,,,
CVOE updated,77,1,1,21,J 58,,,FALSE,CV,q,473,361521,,,,,,,,,
CVOE updated,77,1,1,22,A 22,,,TRUE,CV,p,506,362537,,,,,,,,,
CVOE updated,77,1,1,23,J 72,,,FALSE,CV,q,513,363561,,,,,,,,,
CVOE updated,77,1,1,24,P 91,,,TRUE,CV,q,1136,365217,,,,,,,,,
CVOE updated,77,1,1,25,E 19,,,FALSE,CV,p,542,366273,,,,,,,,,
CVOE updated,77,1,1,26,I 30,,,TRUE,CV,p,532,367313,,,,,,,,,
CVOE updated,77,1,1,27,D 91,,,TRUE,CV,q,490,368321,,,,,,,,,
CVOE updated,77,1,1,28,O 48,,,TRUE,CV,p,457,369289,,,,,,,,,
CVOE updated,77,1,1,29,A 89,,,FALSE,CV,p,707,370505,,,,,,,,,
CVOE updated,77,1,1,30,U 11,,,FALSE,CV,p,538,371553,,,,,,,,,
CVOE updated,77,1,1,31,I 76,,,TRUE,CV,p,552,372617,,,,,,,,,
CVOE updated,77,1,1,32,U 89,,,FALSE,CV,p,485,373617,,,,,,,,,
CVOE updated,77,1,1,33,D 63,,,TRUE,CV,q,549,374681,,,,,,,,,
CVOE updated,77,1,1,34,H 70,,,FALSE,CV,q,682,375881,,,,,,,,,
CVOE updated,77,1,1,35,D 48,,,FALSE,CV,q,338,376737,,,,,,,,,
CVOE updated,77,1,1,36,P 56,,,FALSE,CV,q,496,377745,,,,,,,,,
CVOE updated,77,1,1,37,O 77,,,FALSE,CV,p,535,378801,,,,,,,,,
CVOE updated,77,1,1,38,P 42,,,FALSE,CV,q,453,379769,,,,,,,,,
CVOE updated,77,1,1,39,H 22,,,FALSE,CV,q,631,380913,,,,,,,,,
CVOE updated,77,1,1,40,E 42,,,TRUE,CV,p,521,381953,,,,,,,,,
CVOE updated,77,1,1,41,J 28,,,FALSE,CV,q,471,382937,,,,,,,,,
CVOE updated,77,1,1,42,E 95,,,FALSE,CV,p,488,383937,,,,,,,,,
CVOE updated,77,1,1,43,S 63,,,TRUE,CV,q,592,385041,,,,,,,,,
CVOE updated,77,1,1,44,H 50,,,FALSE,CV,p,340,385889,,,,,,,,,
CVOE updated,77,1,1,45,S 33,,,TRUE,CV,q,1794,388193,,,,,,,,,
CVOE updated,77,1,1,46,P 57,,,TRUE,CV,q,437,389153,,,,,,,,,
CVOE updated,77,1,1,47,E 23,,,FALSE,CV,p,647,390313,,,,,,,,,
CVOE updated,77,1,1,48,S 61,,,TRUE,CV,q,568,391401,,,,,,,,,
CVOE updated,77,1,1,49,U 67,,,FALSE,CV,p,613,392529,,,,,,,,,
CVOE updated,77,1,1,50,H 32,,,FALSE,CV,q,471,393521,,,,,,,,,
CVOE updated,77,1,1,51,U 50,,,TRUE,CV,p,592,394625,,,,,,,,,
CVOE updated,77,1,1,52,O 49,,,FALSE,CV,p,476,395609,,,,,,,,,
CVOE updated,77,1,1,53,U 32,,,TRUE,CV,p,492,396609,,,,,,,,,
CVOE updated,77,1,1,54,J 78,,,FALSE,CV,q,628,397745,,,,,,,,,
CVOE updated,77,1,1,55,S 54,,,FALSE,CV,q,830,399097,,,,,,,,,
CVOE updated,77,1,1,56,J 27,,,TRUE,CV,q,656,400273,,,,,,,,,
CVOE updated,77,1,1,57,S 06,,,FALSE,CV,q,481,401265,,,,,,,,,
CVOE updated,77,1,1,58,D 67,,,TRUE,CV,q,537,402321,,,,,,,,,
CVOE updated,77,1,1,59,A 79,,,FALSE,CV,p,551,403385,,,,,,,,,
CVOE updated,77,1,1,60,S 52,,,FALSE,CV,q,564,404465,,,,,,,,,
CVOE updated,77,1,1,61,U 16,,,TRUE,CV,p,625,405609,,,,,,,,,
CVOE updated,77,1,1,62,O 82,,,TRUE,CV,p,540,406657,,,,,,,,,
CVOE updated,77,1,1,63,H 87,,,TRUE,CV,q,585,407753,,,,,,,,,
CVOE updated,77,1,1,64,I 32,,,TRUE,CV,p,549,408817,,,,,,,,,
CVOE updated,77,1,1,65,U 37,,,FALSE,CV,p,547,409881,,,,,,,,,
CVOE updated,77,1,1,66,I 42,,,TRUE,CV,p,536,410937,,,,,,,,,
CVOE updated,77,1,1,67,D 65,,,TRUE,CV,q,550,412001,,,,,,,,,
CVOE updated,77,1,1,68,U 77,,,FALSE,CV,p,531,413049,,,,,,,,,
CVOE updated,77,1,1,69,E 12,,,TRUE,CV,p,537,414105,,,,,,,,,
CVOE updated,77,1,1,70,I 60,,,TRUE,CV,p,567,415185,,,,,,,,,
CVOE updated,77,1,1,71,J 36,,,FALSE,CV,q,508,416209,,,,,,,,,
CVOE updated,77,1,1,72,H 75,,,TRUE,CV,q,907,417625,,,,,,,,,
CVOE updated,77,1,1,73,I 50,,,TRUE,CV,p,538,418673,,,,,,,,,
CVOE updated,77,1,1,74,E 99,,,FALSE,CV,p,1016,420201,,,,,,,,,
CVOE updated,77,1,1,75,A 86,,,TRUE,CV,p,571,421289,,,,,,,,,
CVOE updated,77,1,1,76,U 48,,,TRUE,CV,q,1407,423209,,,,,,,,,
CVOE updated,77,1,1,77,E 01,,,FALSE,CV,p,634,424353,,,,,,,,,
CVOE updated,77,1,1,78,A 78,,,TRUE,CV,p,588,425457,,,,,,,,,
CVOE updated,77,1,1,79,P 60,,,FALSE,CV,q,640,426609,,,,,,,,,
CVOE updated,77,1,1,80,E 43,,,FALSE,CV,p,546,427665,,,,,,,,,
CVOE updated,77,1,1,81,D 69,,,TRUE,CV,q,807,428993,,,,,,,,,
CVOE updated,77,1,1,82,H 11,,,TRUE,CV,p,579,430081,,,,,,,,,
CVOE updated,77,1,1,83,P 43,,,TRUE,CV,q,1279,431881,,,,,,,,,
CVOE updated,77,1,1,84,O 67,,,FALSE,CV,p,574,432977,,,,,,,,,
CVOE updated,77,1,1,85,S 91,,,FALSE,CV,q,859,434345,,,,,,,,,
CVOE updated,77,1,1,86,J 68,,,TRUE,CV,q,764,435617,,,,,,,,,
CVOE updated,77,1,1,87,S 47,,,FALSE,CV,q,537,436673,,,,,,,,,
CVOE updated,77,1,1,88,I 81,,,TRUE,CV,p,647,437833,,,,,,,,,
CVOE updated,77,1,1,89,J 39,,,FALSE,CV,q,752,439105,,,,,,,,,
CVOE updated,77,1,1,90,A 11,,,TRUE,CV,p,525,440145,,,,,,,,,
CVOE updated,77,1,1,91,O 76,,,FALSE,CV,p,516,441169,,,,,,,,,
CVOE updated,77,1,1,92,A 62,,,FALSE,CV,p,442,442129,,,,,,,,,
CVOE updated,77,1,1,93,O 27,,,TRUE,CV,p,404,443041,,,,,,,,,
CVOE updated,77,1,1,94,E 66,,,FALSE,CV,p,544,444097,,,,,,,,,
CVOE updated,77,1,1,95,J 62,,,TRUE,CV,q,581,445201,,,,,,,,,
CVOE updated,77,1,1,96,H 72,,,TRUE,CV,q,617,446337,,,,,,,,,
CVOE updated,77,1,1,97,E 49,,,TRUE,CV,p,515,447369,,,,,,,,,
CVOE updated,77,1,1,98,D 52,,,TRUE,CV,q,514,448401,,,,,,,,,
CVOE updated,77,1,1,99,H 62,,,TRUE,CV,q,809,449729,,,,,,,,,
CVOE updated,77,1,1,100,I 11,,,TRUE,CV,p,604,450841,,,,,,,,,
CVOE updated,77,1,1,101,A 98,,,FALSE,CV,p,583,451937,,,,,,,,,
CVOE updated,77,1,1,102,H 29,,,FALSE,CV,q,563,453017,,,,,,,,,
CVOE updated,77,1,1,103,E 83,,,TRUE,CV,p,536,454073,,,,,,,,,
CVOE updated,77,1,1,104,D 43,,,FALSE,CV,q,798,455385,,,,,,,,,
CVOE updated,77,1,1,105,P 45,,,TRUE,CV,q,473,456377,,,,,,,,,
CVOE updated,77,1,1,106,J 17,,,TRUE,CV,q,689,457577,,,,,,,,,
CVOE updated,77,1,2,1,U 08,,,TRUE,OE,,,,,,,,,,,,
CVOE updated,77,1,2,2,S 13,,,FALSE,OE,,,,,,,,,,,,
CVOE updated,77,1,2,3,O 25,,,FALSE,OE,,,,,,,,,,,,
CVOE updated,77,1,2,4,P 26,,,FALSE,OE,,,,,,,,,,,,
CVOE updated,77,1,2,5,J 49,,,TRUE,OE,,,,,,,,,,,,
CVOE updated,77,1,2,6,I 43,,,FALSE,OE,,,,,,,,,,,,
CVOE updated,77,1,2,7,H 26,,,FALSE,OE,,,,,,,,,,,,
CVOE updated,77,1,2,8,E 21,,,FALSE,OE,,,,,,,,,,,,
CVOE updated,77,1,2,9,D 19,,,TRUE,OE,,,,,,,,,,,,
CVOE updated,77,1,2,10,A 82,,,TRUE,OE,,,,,,,,,,,,
CVOE updated,77,1,2,11,A 24,,,TRUE,OE,,,,p,2068,517393,,,,,,
CVOE updated,77,1,2,12,O 83,,,FALSE,OE,,,,q,1276,519185,,,,,,
CVOE updated,77,1,2,13,H 55,,,TRUE,OE,,,,q,836,520545,,,,,,
CVOE updated,77,1,2,14,P 10,,,FALSE,OE,,,,p,766,521825,,,,,,
CVOE updated,77,1,2,15,D 30,,,FALSE,OE,,,,p,563,522905,,,,,,
CVOE updated,77,1,2,16,U 62,,,TRUE,OE,,,,p,575,524001,,,,,,
CVOE updated,77,1,2,17,P 95,,,TRUE,OE,,,,q,524,525033,,,,,,
CVOE updated,77,1,2,18,U 06,,,TRUE,OE,,,,p,595,526137,,,,,,
CVOE updated,77,1,2,19,E 75,,,FALSE,OE,,,,q,718,527377,,,,,,
CVOE updated,77,1,2,20,I 67,,,FALSE,OE,,,,q,620,528513,,,,,,
CVOE updated,77,1,2,21,S 13,,,TRUE,OE,,,,q,551,529577,,,,,,
CVOE updated,77,1,2,22,P 78,,,FALSE,OE,,,,p,732,530825,,,,,,
CVOE updated,77,1,2,23,I 15,,,FALSE,OE,,,,q,514,531857,,,,,,
CVOE updated,77,1,2,24,D 27,,,TRUE,OE,,,,q,1209,533585,,,,,,
CVOE updated,77,1,2,25,O 94,,,TRUE,OE,,,,p,516,534609,,,,,,
CVOE updated,77,1,2,26,A 65,,,FALSE,OE,,,,q,579,535705,,,,,,
CVOE updated,77,1,2,27,I 42,,,TRUE,OE,,,,p,638,536865,,,,,,
CVOE updated,77,1,2,28,E 25,,,FALSE,OE,,,,q,512,537889,,,,,,
CVOE updated,77,1,2,29,H 49,,,TRUE,OE,,,,q,639,539049,,,,,,
CVOE updated,77,1,2,30,S 18,,,FALSE,OE,,,,p,777,540337,,,,,,
CVOE updated,77,1,2,31,H 51,,,TRUE,OE,,,,q,965,541825,,,,,,
CVOE updated,77,1,2,32,U 14,,,TRUE,OE,,,,p,521,542865,,,,,,
CVOE updated,77,1,2,33,E 02,,,TRUE,OE,,,,p,504,543881,,,,,,
CVOE updated,77,1,2,34,J 26,,,FALSE,OE,,,,p,655,545049,,,,,,
CVOE updated,77,1,2,35,D 24,,,FALSE,OE,,,,p,441,546001,,,,,,
CVOE updated,77,1,2,36,O 50,,,TRUE,OE,,,,p,578,547089,,,,,,
CVOE updated,77,1,2,37,U 16,,,TRUE,OE,,,,p,502,548113,,,,,,
CVOE updated,77,1,2,38,O 15,,,FALSE,OE,,,,q,638,549265,,,,,,
CVOE updated,77,1,2,39,D 32,,,FALSE,OE,,,,p,584,550361,,,,,,
CVOE updated,77,1,2,40,S 67,,,TRUE,OE,,,,q,700,551577,,,,,,
CVOE updated,77,1,2,41,J 74,,,FALSE,OE,,,,p,595,552689,,,,,,
CVOE updated,77,1,2,42,D 92,,,FALSE,OE,,,,p,550,553761,,,,,,
CVOE updated,77,1,2,43,A 65,,,FALSE,OE,,,,q,539,554817,,,,,,
CVOE updated,77,1,2,44,I 87,,,FALSE,OE,,,,p,561,555889,,,,,,
CVOE updated,77,1,2,45,H 61,,,TRUE,OE,,,,q,870,557281,,,,,,
CVOE updated,77,1,2,46,E 59,,,FALSE,OE,,,,q,718,558513,,,,,,
CVOE updated,77,1,2,47,I 33,,,FALSE,OE,,,,q,573,559601,,,,,,
CVOE updated,77,1,2,48,O 90,,,TRUE,OE,,,,p,530,560641,,,,,,
CVOE updated,77,1,2,49,U 51,,,FALSE,OE,,,,q,503,561665,,,,,,
CVOE updated,77,1,2,50,A 10,,,TRUE,OE,,,,p,471,562649,,,,,,
CVOE updated,77,1,2,51,E 50,,,TRUE,OE,,,,p,631,563793,,,,,,
CVOE updated,77,1,2,52,D 92,,,FALSE,OE,,,,p,537,564849,,,,,,
CVOE updated,77,1,2,53,E 60,,,TRUE,OE,,,,p,455,565817,,,,,,
CVOE updated,77,1,2,54,A 95,,,FALSE,OE,,,,q,520,566849,,,,,,
CVOE updated,77,1,2,55,E 64,,,TRUE,OE,,,,p,583,567945,,,,,,
CVOE updated,77,1,2,56,P 20,,,FALSE,OE,,,,p,1899,570361,,,,,,
CVOE updated,77,1,2,57,S 06,,,FALSE,OE,,,,p,554,571433,,,,,,
CVOE updated,77,1,2,58,P 64,,,FALSE,OE,,,,p,535,572481,,,,,,
CVOE updated,77,1,2,59,U 70,,,TRUE,OE,,,,p,749,573745,,,,,,
CVOE updated,77,1,2,60,S 16,,,FALSE,OE,,,,p,603,574865,,,,,,
CVOE updated,77,1,2,61,E 35,,,FALSE,OE,,,,q,702,576081,,,,,,
CVOE updated,77,1,2,62,I 93,,,FALSE,OE,,,,q,789,577385,,,,,,
CVOE updated,77,1,2,63,D 63,,,TRUE,OE,,,,q,593,578489,,,,,,
CVOE updated,77,1,2,64,U 89,,,FALSE,OE,,,,q,580,579593,,,,,,
CVOE updated,77,1,2,65,E 91,,,FALSE,OE,,,,q,480,580593,,,,,,
CVOE updated,77,1,2,66,A 12,,,TRUE,OE,,,,p,472,581585,,,,,,
CVOE updated,77,1,2,67,P 56,,,FALSE,OE,,,,p,1009,583105,,,,,,
CVOE updated,77,1,2,68,S 65,,,TRUE,OE,,,,q,652,584265,,,,,,
CVOE updated,77,1,2,69,P 07,,,TRUE,OE,,,,p,797,585577,,,,,,
CVOE updated,77,1,2,70,I 77,,,FALSE,OE,,,,q,1608,587705,,,,,,
CVOE updated,77,1,2,71,J 19,,,TRUE,OE,,,,q,604,588817,,,,,,
CVOE updated,77,1,2,72,O 59,,,FALSE,OE,,,,q,1615,590945,,,,,,
CVOE updated,77,1,2,73,J 15,,,TRUE,OE,,,,q,609,592073,,,,,,
CVOE updated,77,1,2,74,I 89,,,FALSE,OE,,,,q,476,593073,,,,,,
CVOE updated,77,1,2,75,O 97,,,FALSE,OE,,,,q,724,594321,,,,,,
CVOE updated,77,1,2,76,A 92,,,TRUE,OE,,,,p,538,595369,,,,,,
CVOE updated,77,1,2,77,J 90,,,FALSE,OE,,,,p,528,596409,,,,,,
CVOE updated,77,1,2,78,H 65,,,TRUE,OE,,,,q,566,597497,,,,,,
CVOE updated,77,1,2,79,H 17,,,TRUE,OE,,,,q,627,598641,,,,,,
CVOE updated,77,1,2,80,S 26,,,FALSE,OE,,,,p,541,599705,,,,,,
CVOE updated,77,1,2,81,D 56,,,FALSE,OE,,,,p,755,600969,,,,,,
CVOE updated,77,1,2,82,I 91,,,FALSE,OE,,,,q,864,602345,,,,,,
CVOE updated,77,1,2,83,J 11,,,TRUE,OE,,,,q,953,603817,,,,,,
CVOE updated,77,1,2,84,O 28,,,TRUE,OE,,,,p,686,605017,,,,,,
CVOE updated,77,1,2,85,H 29,,,TRUE,OE,,,,q,542,606073,,,,,,
CVOE updated,77,1,2,86,J 25,,,TRUE,OE,,,,q,668,607249,,,,,,
CVOE updated,77,1,2,87,A 73,,,FALSE,OE,,,,q,596,608361,,,,,,
CVOE updated,77,1,2,88,J 63,,,TRUE,OE,,,,q,448,609329,,,,,,
CVOE updated,77,1,2,89,U 84,,,TRUE,OE,,,,p,809,610657,,,,,,
CVOE updated,77,1,2,90,A 58,,,TRUE,OE,,,,p,612,611777,,,,,,
CVOE updated,77,1,2,91,S 43,,,TRUE,OE,,,,q,567,612865,,,,,,
CVOE updated,77,1,2,92,H 54,,,FALSE,OE,,,,p,667,614049,,,,,,
CVOE updated,77,1,2,93,D 4,,,FALSE,OE,,,,p,540,615105,,,,,,
CVOE updated,77,1,2,94,J 75,,,TRUE,OE,,,,q,634,616249,,,,,,
CVOE updated,77,1,2,95,D 19,,,TRUE,OE,,,,q,828,617593,,,,,,
CVOE updated,77,1,2,96,J 38,,,FALSE,OE,,,,p,582,618697,,,,,,
CVOE updated,77,1,2,97,I 56,,,TRUE,OE,,,,p,681,619897,,,,,,
CVOE updated,77,1,2,98,P 87,,,TRUE,OE,,,,q,649,621065,,,,,,
CVOE updated,77,1,2,99,O 80,,,TRUE,OE,,,,p,539,622121,,,,,,
CVOE updated,77,1,2,100,U 60,,,TRUE,OE,,,,p,449,623081,,,,,,
CVOE updated,77,1,2,101,P 48,,,FALSE,OE,,,,p,434,624033,,,,,,
CVOE updated,77,1,2,102,H 64,,,FALSE,OE,,,,p,508,625057,,,,,,
CVOE updated,77,1,2,103,A 13,,,FALSE,OE,,,,q,459,626025,,,,,,
CVOE updated,77,1,2,104,H 68,,,FALSE,OE,,,,p,532,627065,,,,,,
CVOE updated,77,1,2,105,E 16,,,TRUE,OE,,,,p,514,628097,,,,,,
CVOE updated,77,1,2,106,S 71,,,TRUE,OE,,,,q,441,629057,,,,,,
CVOE updated,77,1,3,1,U 84,Letter,N,TRUE,CV,,,,,,,,,,,,
CVOE updated,77,1,3,2,D 34,Letter,N,FALSE,CV,,,,,,,,,,,,
CVOE updated,77,1,3,3,O 73,Number,Y,FALSE,OE,,,,,,,,,,,,
CVOE updated,77,1,3,4,H 85,Number,N,TRUE,OE,,,,,,,,,,,,
CVOE updated,77,1,3,5,I 60,Letter,Y,TRUE,CV,,,,,,,,,,,,
CVOE updated,77,1,3,6,J 32,Letter,N,FALSE,CV,,,,,,,,,,,,
CVOE updated,77,1,3,7,E 99,Number,Y,FALSE,OE,,,,,,,,,,,,
CVOE updated,77,1,3,8,P 07,Number,N,TRUE,OE,,,,,,,,,,,,
CVOE updated,77,1,3,9,S 38,Letter,Y,FALSE,CV,,,,,,,,,,,,
CVOE updated,77,1,3,10,A 18,Letter,N,TRUE,CV,,,,,,,,,,,,
CVOE updated,77,1,3,11,A 44,Letter,N,TRUE,CV,,,,,,,,,,p,4114,691001
CVOE updated,77,1,3,12,D 94,Letter,N,FALSE,CV,,,,,,,,,,q,1184,692705
CVOE updated,77,1,3,13,E 75,Number,Y,FALSE,OE,,,,,,,,,,q,1292,694513
CVOE updated,77,1,3,14,H 81,Number,N,TRUE,OE,,,,,,,,,,q,2748,697769
CVOE updated,77,1,3,15,I 64,Letter,Y,TRUE,CV,,,,,,,,,,p,1617,699905
CVOE updated,77,1,3,16,J 54,Letter,N,FALSE,CV,,,,,,,,,,q,1172,701593
CVOE updated,77,1,3,17,O 23,Number,Y,FALSE,OE,,,,,,,,,,q,3352,705457
CVOE updated,77,1,3,18,P 05,Number,N,TRUE,OE,,,,,,,,,,q,1885,707857
CVOE updated,77,1,3,19,S 34,Letter,Y,FALSE,CV,,,,,,,,,,q,1357,709729
CVOE updated,77,1,3,20,U 88,Letter,N,TRUE,CV,,,,,,,,,,p,1771,712009
CVOE updated,77,1,3,21,A 70,Number,Y,TRUE,OE,,,,,,,,,,p,2087,714609
CVOE updated,77,1,3,22,D 12,Number,N,FALSE,OE,,,,,,,,,,p,2447,717569
CVOE updated,77,1,3,23,E 79,Letter,Y,FALSE,CV,,,,,,,,,,p,2136,720225
CVOE updated,77,1,3,24,H 72,Letter,N,FALSE,CV,,,,,,,,,,q,934,721673
CVOE updated,77,1,3,25,I 41,Number,Y,FALSE,OE,,,,,,,,,,q,3020,725209
CVOE updated,77,1,3,26,J 63,Number,N,TRUE,OE,,,,,,,,,,q,1550,727273
CVOE updated,77,1,3,27,O 03,Letter,Y,FALSE,CV,,,,,,,,,,p,1627,729417
CVOE updated,77,1,3,28,P 75,Letter,N,TRUE,CV,,,,,,,,,,q,997,730937
CVOE updated,77,1,3,29,S 61,Number,Y,TRUE,OE,,,,,,,,,,q,1072,732529
CVOE updated,77,1,3,30,U 28,Number,N,TRUE,OE,,,,,,,,,,p,1129,734169
CVOE updated,77,1,3,31,A 21,Letter,Y,FALSE,CV,,,,,,,,,,p,1455,736145
CVOE updated,77,1,3,32,D 18,Letter,N,FALSE,CV,,,,,,,,,,q,1016,737673
CVOE updated,77,1,3,33,E 35,Number,Y,FALSE,OE,,,,,,,,,,q,1091,739281
CVOE updated,77,1,3,34,H 62,Number,N,FALSE,OE,,,,,,,,,,p,2402,742193
CVOE updated,77,1,3,35,I 82,Letter,Y,TRUE,CV,,,,,,,,,,p,1326,744033
CVOE updated,77,1,3,36,J 78,Letter,N,FALSE,CV,,,,,,,,,,q,1772,746313
CVOE updated,77,1,3,37,O 12,Number,Y,TRUE,OE,,,,,,,,,,p,1441,748265
CVOE updated,77,1,3,38,P 13,Number,N,TRUE,OE,,,,,,,,,,q,3386,752161
CVOE updated,77,1,3,39,S 07,Letter,Y,TRUE,CV,,,,,,,,,,q,1190,753865
CVOE updated,77,1,3,40,U 36,Letter,N,TRUE,CV,,,,,,,,,,p,1386,755761
CVOE updated,77,1,3,41,A 96,Number,Y,TRUE,OE,,,,,,,,,,p,1814,758089
CVOE updated,77,1,3,42,D 04,Number,N,FALSE,OE,,,,,,,,,,p,1569,760177
CVOE updated,77,1,3,43,E 60,Letter,Y,TRUE,CV,,,,,,,,,,p,2285,762977
CVOE updated,77,1,3,44,H 83,Letter,N,TRUE,CV,,,,,,,,,,q,941,764433
CVOE updated,77,1,3,45,I 64,Number,Y,TRUE,OE,,,,,,,,,,p,859,765801
CVOE updated,77,1,3,46,J 76,Number,N,FALSE,OE,,,,,,,,,,p,4908,771217
CVOE updated,77,1,3,47,O 78,Letter,Y,TRUE,CV,,,,,,,,,,p,1067,772793
CVOE updated,77,1,3,48,P 09,Letter,N,TRUE,CV,,,,,,,,,,q,1107,774417
CVOE updated,77,1,3,49,S 72,Number,Y,FALSE,OE,,,,,,,,,,p,1011,775937
CVOE updated,77,1,3,50,U 47,Number,N,FALSE,OE,,,,,,,,,,q,1333,777793
CVOE updated,77,1,3,51,A 31,Letter,Y,FALSE,CV,,,,,,,,,,p,1227,779537
CVOE updated,77,1,3,52,D 96,Letter,N,FALSE,CV,,,,,,,,,,q,1053,781113
CVOE updated,77,1,3,53,E 40,Number,Y,TRUE,OE,,,,,,,,,,p,1078,782705
CVOE updated,77,1,3,54,H 79,Number,N,TRUE,OE,,,,,,,,,,q,1630,784857
CVOE updated,77,1,3,55,I 15,Letter,Y,FALSE,CV,,,,,,,,,,p,928,786305
CVOE updated,77,1,3,56,J 07,Letter,N,TRUE,CV,,,,,,,,,,q,766,787593
CVOE updated,77,1,3,57,O 61,Number,Y,FALSE,OE,,,,,,,,,,q,4458,792569
CVOE updated,77,1,3,58,P 58,Number,N,FALSE,OE,,,,,,,,,,p,987,794065
CVOE updated,77,1,3,59,S 37,Letter,Y,TRUE,CV,,,,,,,,,,q,1543,796121
CVOE updated,77,1,3,60,U 61,Letter,N,FALSE,CV,,,,,,,,,,p,1765,798409
CVOE updated,77,1,3,61,A 17,Number,Y,FALSE,OE,,,,,,,,,,q,1521,800449
CVOE updated,77,1,3,62,D 85,Number,N,TRUE,OE,,,,,,,,,,q,1440,802401
CVOE updated,77,1,3,63,E 20,Letter,Y,TRUE,CV,,,,,,,,,,p,1385,804297
CVOE updated,77,1,3,64,H 86,Letter,N,FALSE,CV,,,,,,,,,,q,4413,809225
CVOE updated,77,1,3,65,I 21,Number,Y,FALSE,OE,,,,,,,,,,q,2000,811745
CVOE updated,77,1,3,66,J 29,Number,N,TRUE,OE,,,,,,,,,,q,1315,813577
CVOE updated,77,1,3,67,O 13,Letter,Y,FALSE,CV,,,,,,,,,,p,897,814993
CVOE updated,77,1,3,68,P 82,Letter,N,FALSE,CV,,,,,,,,,,q,793,816305
CVOE updated,77,1,3,69,S 72,Number,Y,FALSE,OE,,,,,,,,,,p,2972,819801
CVOE updated,77,1,3,70,U 84,Number,N,TRUE,OE,,,,,,,,,,p,920,821233
CVOE updated,77,1,3,71,A 49,Letter,Y,FALSE,CV,,,,,,,,,,p,1343,823089
CVOE updated,77,1,3,72,D 91,Letter,N,TRUE,CV,,,,,,,,,,q,1684,825297
CVOE updated,77,1,3,73,E 99,Number,Y,FALSE,OE,,,,,,,,,,q,1172,826985
CVOE updated,77,1,3,74,H 16,Number,N,FALSE,OE,,,,,,,,,,p,1512,829009
CVOE updated,77,1,3,75,I 45,Letter,Y,FALSE,CV,,,,,,,,,,p,5311,834841
CVOE updated,77,1,3,76,J 70,Letter,N,FALSE,CV,,,,,,,,,,q,893,836257
CVOE updated,77,1,3,77,O 22,Number,Y,TRUE,OE,,,,,,,,,,p,1852,838633
CVOE updated,77,1,3,78,P 41,Number,N,TRUE,OE,,,,,,,,,,q,1246,840393
CVOE updated,77,1,3,79,S 93,Letter,Y,TRUE,CV,,,,,,,,,,q,1039,841953
CVOE updated,77,1,3,80,U 70,Letter,N,TRUE,CV,,,,,,,,,,p,1057,843521
CVOE updated,77,1,3,81,A 42,Number,Y,TRUE,OE,,,,,,,,,,p,1770,845801
CVOE updated,77,1,3,82,D 85,Number,N,TRUE,OE,,,,,,,,,,q,3782,850097
CVOE updated,77,1,3,83,E 68,Letter,Y,TRUE,CV,,,,,,,,,,p,1050,851665
CVOE updated,77,1,3,84,H 17,Letter,N,TRUE,CV,,,,,,,,,,q,859,853041
CVOE updated,77,1,3,85,I 70,Number,Y,TRUE,OE,,,,,,,,,,p,1436,855001
CVOE updated,77,1,3,86,J 88,Number,N,FALSE,OE,,,,,,,,,,p,1998,857513
CVOE updated,77,1,3,87,O 32,Letter,Y,TRUE,CV,,,,,,,,,,q,3041,861073
CVOE updated,77,1,3,88,P 95,Letter,N,TRUE,CV,,,,,,,,,,q,1243,862825
CVOE updated,77,1,3,89,S 98,Number,Y,FALSE,OE,,,,,,,,,,p,1716,865065
CVOE updated,77,1,3,90,U 37,Number,N,FALSE,OE,,,,,,,,,,q,1442,867025
CVOE updated,77,1,3,91,A 56,Letter,Y,TRUE,CV,,,,,,,,,,p,1708,869257
CVOE updated,77,1,3,92,D 57,Letter,N,TRUE,CV,,,,,,,,,,q,2163,871929
CVOE updated,77,1,3,93,E 93,Number,Y,FALSE,OE,,,,,,,,,,q,1087,873537
CVOE updated,77,1,3,94,H 27,Number,N,TRUE,OE,,,,,,,,,,q,1103,875153
CVOE updated,77,1,3,95,I 35,Letter,Y,FALSE,CV,,,,,,,,,,p,894,876561
CVOE updated,77,1,3,96,J 03,Letter,N,TRUE,CV,,,,,,,,,,q,894,877977
CVOE updated,77,1,3,97,O 28,Number,Y,TRUE,OE,,,,,,,,,,p,1437,879937
CVOE updated,77,1,3,98,P 59,Number,N,TRUE,OE,,,,,,,,,,q,895,881345
CVOE updated,77,1,3,99,S 77,Letter,Y,TRUE,CV,,,,,,,,,,q,1182,883049
CVOE updated,77,1,3,100,U 05,Letter,N,FALSE,CV,,,,,,,,,,p,4722,888289
CVOE updated,77,1,3,101,A 56,Number,Y,TRUE,OE,,,,,,,,,,p,2016,890817
CVOE updated,77,1,3,102,D 01,Number,N,TRUE,OE,,,,,,,,,,q,1803,893137
CVOE updated,77,1,3,103,E 02,Letter,Y,TRUE,CV,,,,,,,,,,p,1718,895369
CVOE updated,77,1,3,104,H 68,Letter,N,FALSE,CV,,,,,,,,,,q,884,896769
CVOE updated,77,1,3,105,I 05,Number,Y,FALSE,OE,,,,,,,,,,q,2300,899585
CVOE updated,77,1,3,106,J 55,Number,N,TRUE,OE,,,,,,,,,,q,3355,903457
CVOE updated,77,1,3,107,O 73,Letter,Y,FALSE,CV,,,,,,,,,,p,1080,905049
CVOE updated,77,1,3,108,P 41,Letter,N,TRUE,CV,,,,,,,,,,q,800,906369
CVOE updated,77,1,3,109,S 92,Number,Y,FALSE,OE,,,,,,,,,,p,1052,907937
CVOE updated,77,1,3,110,U 34,Number,N,TRUE,OE,,,,,,,,,,p,829,909281
CVOE updated,77,1,3,111,A 09,Letter,Y,FALSE,CV,,,,,,,,,,p,1887,911689
CVOE updated,77,1,3,112,D 92,Letter,N,FALSE,CV,,,,,,,,,,q,848,913050
CVOE updated,77,1,3,113,E 48,Number,Y,TRUE,OE,,,,,,,,,,p,1352,914921
CVOE updated,77,1,3,114,H 76,Number,N,FALSE,OE,,,,,,,,,,p,4805,920241
CVOE updated,77,1,3,115,I 44,Letter,Y,TRUE,CV,,,,,,,,,,p,1488,922241
CVOE updated,77,1,3,116,J 67,Letter,N,TRUE,CV,,,,,,,,,,q,904,923657
CVOE updated,77,1,3,117,O 48,Number,Y,TRUE,OE,,,,,,,,,,p,1367,925537
CVOE updated,77,1,3,118,P 22,Number,N,FALSE,OE,,,,,,,,,,p,3244,929297
CVOE updated,77,1,3,119,S 86,Letter,Y,FALSE,CV,,,,,,,,,,q,1422,931242
CVOE updated,77,1,3,120,U 35,Letter,N,FALSE,CV,,,,,,,,,,p,1415,933169
CVOE updated,77,1,3,121,A 91,Number,Y,FALSE,OE,,,,,,,,,,p,3915,937602
CVOE updated,77,1,3,122,D 78,Number,N,FALSE,OE,,,,,,,,,,q,1448,939569
CVOE updated,77,1,3,123,E 91,Letter,Y,FALSE,CV,,,,,,,,,,p,2001,942089
CVOE updated,77,1,3,124,H 54,Letter,N,FALSE,CV,,,,,,,,,,q,932,943537
CVOE updated,77,1,3,125,I 65,Number,Y,FALSE,OE,,,,,,,,,,q,1219,945274
CVOE updated,77,1,3,126,J 52,Number,N,FALSE,OE,,,,,,,,,,p,1181,946969
CVOE updated,77,1,3,127,O 19,Letter,Y,FALSE,CV,,,,,,,,,,p,1290,948778
CVOE updated,77,1,3,128,P 48,Letter,N,FALSE,CV,,,,,,,,,,q,3786,953074
CVOE updated,77,1,3,129,S 45,Number,Y,TRUE,OE,,,,,,,,,,q,5557,959146
CVOE updated,77,1,3,130,U 26,Number,N,TRUE,OE,,,,,,,,,,p,810,960466
CVOE updated,77,1,4,1,U 38,Number,N,TRUE,OE,,,,,,,p,6638,973978,,,
CVOE updated,77,1,4,2,P 73,Number,N,TRUE,OE,,,,,,,q,1448,975938,,,
CVOE updated,77,1,4,3,U 95,Letter,Y,FALSE,CV,,,,,,,p,809,977266,,,
CVOE updated,77,1,4,4,J 61,Number,Y,TRUE,OE,,,,,,,q,1204,978978,,,
CVOE updated,77,1,4,5,D 51,Number,N,TRUE,OE,,,,,,,q,1944,981434,,,
CVOE updated,77,1,4,6,S 28,Number,N,FALSE,OE,,,,,,,p,1117,983074,,,
CVOE updated,77,1,4,7,A 56,Letter,Y,TRUE,CV,,,,,,,p,1195,984786,,,
CVOE updated,77,1,4,8,H 78,Letter,N,FALSE,CV,,,,,,,q,734,986042,,,
CVOE updated,77,1,4,9,P 92,Letter,N,FALSE,CV,,,,,,,q,1604,988162,,,
CVOE updated,77,1,4,10,E 05,Number,Y,FALSE,OE,,,,,,,q,1168,989842,,,
CVOE updated,77,1,4,11,P 57,Letter,Y,TRUE,CV,,,,,,,q,1516,991874,,,
CVOE updated,77,1,4,12,D 88,Number,Y,FALSE,OE,,,,,,,p,1019,993410,,,
CVOE updated,77,1,4,13,O 89,Letter,Y,FALSE,CV,,,,,,,q,1261,995186,,,
CVOE updated,77,1,4,14,U 43,Number,Y,FALSE,OE,,,,,,,q,2406,998114,,,
CVOE updated,77,1,4,15,H 10,Number,N,FALSE,OE,,,,,,,p,929,999554,,,
CVOE updated,77,1,4,16,S 07,Letter,Y,TRUE,CV,,,,,,,q,1039,1001114,,,
CVOE updated,77,1,4,17,J 10,Letter,N,FALSE,CV,,,,,,,q,4201,1005826,,,
CVOE updated,77,1,4,18,H 54,Number,Y,FALSE,OE,,,,,,,p,1124,1007466,,,
CVOE updated,77,1,4,19,E 99,Number,N,FALSE,OE,,,,,,,q,994,1008970,,,
CVOE updated,77,1,4,20,J 36,Letter,Y,FALSE,CV,,,,,,,q,1021,1010514,,,
CVOE updated,77,1,4,21,I 94,Letter,N,TRUE,CV,,,,,,,p,1392,1012418,,,
CVOE updated,77,1,4,22,A 82,Letter,N,TRUE,CV,,,,,,,p,1116,1014042,,,
CVOE updated,77,1,4,23,H 79,Number,Y,TRUE,OE,,,,,,,q,1322,1015882,,,
CVOE updated,77,1,4,24,J 60,Number,N,FALSE,OE,,,,,,,p,1417,1017810,,,
CVOE updated,77,1,4,25,S 28,Letter,Y,FALSE,CV,,,,,,,q,1276,1019602,,,
CVOE updated,77,1,4,26,P 11,Number,Y,TRUE,OE,,,,,,,q,908,1021018,,,
CVOE updated,77,1,4,27,D 39,Number,N,TRUE,OE,,,,,,,q,1979,1023506,,,
CVOE updated,77,1,4,28,E 90,Number,N,TRUE,OE,,,,,,,q,1383,1025410,,,
CVOE updated,77,1,4,29,I 38,Number,N,TRUE,OE,,,,,,,p,1363,1027290,,,
CVOE updated,77,1,4,30,S 35,Letter,Y,TRUE,CV,,,,,,,q,1768,1029578,,,
CVOE updated,77,1,4,31,D 41,Number,Y,TRUE,OE,,,,,,,q,2732,1032826,,,
CVOE updated,77,1,4,32,E 06,Number,N,TRUE,OE,,,,,,,p,2290,1035634,,,
CVOE updated,77,1,4,33,A 27,Number,N,FALSE,OE,,,,,,,q,1122,1037266,,,
CVOE updated,77,1,4,34,U 95,Letter,Y,FALSE,CV,,,,,,,p,1432,1039210,,,
CVOE updated,77,1,4,35,A 53,Letter,N,FALSE,CV,,,,,,,p,866,1040594,,,
CVOE updated,77,1,4,36,E 43,Letter,N,FALSE,CV,,,,,,,p,739,1041850,,,
CVOE updated,77,1,4,37,P 05,Number,Y,TRUE,OE,,,,,,,q,657,1043018,,,
CVOE updated,77,1,4,38,O 19,Letter,Y,FALSE,CV,,,,,,,p,3386,1046914,,,
CVOE updated,77,1,4,39,I 96,Number,Y,TRUE,OE,,,,,,,p,1878,1049306,,,
CVOE updated,77,1,4,40,A 88,Number,N,TRUE,OE,,,,,,,p,1301,1051130,,,
CVOE updated,77,1,4,41,I 67,Number,N,FALSE,OE,,,,,,,q,861,1052506,,,
CVOE updated,77,1,4,42,D 40,Number,N,FALSE,OE,,,,,,,p,789,1053818,,,
CVOE updated,77,1,4,43,P 79,Letter,Y,TRUE,CV,,,,,,,q,1009,1055338,,,
CVOE updated,77,1,4,44,U 24,Number,Y,TRUE,OE,,,,,,,p,1612,1057458,,,
CVOE updated,77,1,4,45,P 74,Number,N,FALSE,OE,,,,,,,p,1391,1059370,,,
CVOE updated,77,1,4,46,E 70,Number,N,TRUE,OE,,,,,,,p,995,1060874,,,
CVOE updated,77,1,4,47,S 27,Number,N,TRUE,OE,,,,,,,q,1246,1062642,,,
CVOE updated,77,1,4,48,E 54,Letter,Y,TRUE,CV,,,,,,,q,1487,1064650,,,
CVOE updated,77,1,4,49,A 53,Letter,N,FALSE,CV,,,,,,,p,2415,1067578,,,
CVOE updated,77,1,4,50,P 34,Letter,N,FALSE,CV,,,,,,,q,1209,1069306,,,
CVOE updated,77,1,4,51,D 74,Number,Y,FALSE,OE,,,,,,,p,1452,1071282,,,
CVOE updated,77,1,4,52,A 03,Letter,Y,FALSE,CV,,,,,,,p,1365,1073162,,,
CVOE updated,77,1,4,53,E 24,Number,Y,TRUE,OE,,,,,,,p,1618,1075298,,,
CVOE updated,77,1,4,54,I 58,Letter,Y,TRUE,CV,,,,,,,p,2180,1077994,,,
CVOE updated,77,1,4,55,D 77,Number,Y,TRUE,OE,,,,,,,q,1544,1080058,,,
CVOE updated,77,1,4,56,S 75,Number,N,TRUE,OE,,,,,,,q,1165,1081746,,,
CVOE updated,77,1,4,57,I 20,Letter,Y,TRUE,CV,,,,,,,p,898,1083162,,,
CVOE updated,77,1,4,58,J 52,Letter,N,FALSE,CV,,,,,,,q,1081,1084762,,,
CVOE updated,77,1,4,59,A 38,Number,Y,TRUE,OE,,,,,,,p,1169,1086450,,,
CVOE updated,77,1,4,60,I 60,Letter,Y,TRUE,CV,,,,,,,p,3333,1090298,,,
CVOE updated,77,1,4,61,S 51,Number,Y,TRUE,OE,,,,,,,q,1763,1092578,,,
CVOE updated,77,1,4,62,D 63,Letter,Y,TRUE,CV,,,,,,,q,1208,1094306,,,
CVOE updated,77,1,4,63,U 27,Letter,N,FALSE,CV,,,,,,,p,995,1095810,,,
CVOE updated,77,1,4,64,J 77,Letter,N,TRUE,CV,,,,,,,q,1406,1097738,,,
CVOE updated,77,1,4,65,O 15,Number,Y,FALSE,OE,,,,,,,q,2161,1100410,,,
CVOE updated,77,1,4,66,J 20,Letter,Y,FALSE,CV,,,,,,,q,2598,1103530,,,
CVOE updated,77,1,4,67,U 97,Number,Y,FALSE,OE,,,,,,,q,1657,1105706,,,
CVOE updated,77,1,4,68,H 03,Number,N,TRUE,OE,,,,,,,q,1250,1107466,,,
CVOE updated,77,1,4,69,O 04,Letter,Y,TRUE,CV,,,,,,,p,2523,1110506,,,
CVOE updated,77,1,4,70,E 10,Letter,N,TRUE,CV,,,,,,,p,4018,1115034,,,
CVOE updated,77,1,4,71,I 52,Letter,N,TRUE,CV,,,,,,,p,2004,1117554,,,
CVOE updated,77,1,4,72,H 81,Number,Y,TRUE,OE,,,,,,,q,799,1118866,,,
CVOE updated,77,1,4,73,I 41,Number,N,FALSE,OE,,,,,,,q,2283,1121666,,,
CVOE updated,77,1,4,74,U 19,Letter,Y,FALSE,CV,,,,,,,p,1434,1123618,,,
CVOE updated,77,1,4,75,O 17,Number,Y,FALSE,OE,,,,,,,q,1268,1125402,,,
CVOE updated,77,1,4,76,A 10,Number,N,TRUE,OE,,,,,,,p,917,1126834,,,
CVOE updated,77,1,4,77,P 93,Letter,Y,TRUE,CV,,,,,,,q,1571,1128922,,,
CVOE updated,77,1,4,78,E 59,Letter,N,FALSE,CV,,,,,,,p,944,1130378,,,
CVOE updated,77,1,4,79,O 53,Letter,N,FALSE,CV,,,,,,,p,1445,1132346,,,
CVOE updated,77,1,4,80,A 96,Letter,N,TRUE,CV,,,,,,,p,1006,1133874,,,
CVOE updated,77,1,4,81,H 36,Letter,Y,FALSE,CV,,,,,,,q,1090,1135474,,,
CVOE updated,77,1,4,82,A 63,Letter,N,FALSE,CV,,,,,,,p,1073,1137058,,,
CVOE updated,77,1,4,83,I 38,Letter,N,TRUE,CV,,,,,,,p,914,1138482,,,
CVOE updated,77,1,4,84,O 51,Number,Y,FALSE,OE,,,,,,,q,1473,1140474,,,
CVOE updated,77,1,4,85,J 26,Number,N,FALSE,OE,,,,,,,p,1569,1142554,,,
CVOE updated,77,1,4,86,S 34,Letter,Y,FALSE,CV,,,,,,,q,1910,1144978,,,
CVOE updated,77,1,4,87,U 85,Number,Y,FALSE,OE,,,,,,,q,1628,1147130,,,
CVOE updated,77,1,4,88,J 77,Number,N,TRUE,OE,,,,,,,q,1590,1149242,,,
CVOE updated,77,1,4,89,I 73,Letter,Y,FALSE,CV,,,,,,,p,1946,1151698,,,
CVOE updated,77,1,4,90,H 46,Number,Y,FALSE,OE,,,,,,,p,1535,1153754,,,
CVOE updated,77,1,4,91,D 04,Number,N,FALSE,OE,,,,,,,p,1277,1155546,,,
CVOE updated,77,1,4,92,P 72,Letter,Y,FALSE,CV,,,,,,,q,3469,1159538,,,
CVOE updated,77,1,4,93,D 99,Number,Y,TRUE,OE,,,,,,,q,1141,1161194,,,
CVOE updated,77,1,4,94,U 25,Letter,Y,FALSE,CV,,,,,,,p,3163,1164866,,,
CVOE updated,77,1,4,95,O 32,Letter,N,TRUE,CV,,,,,,,p,2215,1167602,,,
CVOE updated,77,1,4,96,E 80,Letter,N,TRUE,CV,,,,,,,p,1194,1169314,,,
CVOE updated,77,1,4,97,O 84,Number,Y,TRUE,OE,,,,,,,p,1493,1171330,,,
CVOE updated,77,1,4,98,A 78,Number,N,TRUE,OE,,,,,,,p,1748,1173602,,,
CVOE updated,77,1,4,99,S 05,Number,N,TRUE,OE,,,,,,,q,1473,1175594,,,
CVOE updated,77,1,4,100,U 35,Letter,Y,FALSE,CV,,,,,,,p,1314,1177418,,,
CVOE updated,77,1,4,101,H 14,Letter,N,FALSE,CV,,,,,,,q,1289,1179226,,,
CVOE updated,77,1,4,102,U 15,Number,Y,FALSE,OE,,,,,,,p,2016,1181754,,,
CVOE updated,77,1,4,103,E 36,Letter,Y,TRUE,CV,,,,,,,p,1075,1183346,,,
CVOE updated,77,1,4,104,P 70,Letter,N,FALSE,CV,,,,,,,q,923,1184778,,,
CVOE updated,77,1,4,105,O 44,Number,Y,TRUE,OE,,,,,,,p,1050,1186338,,,
CVOE updated,77,1,4,106,S 41,Letter,Y,TRUE,CV,,,,,,,q,1979,1188834,,,
CVOE updated,77,1,4,107,D 83,Letter,N,TRUE,CV,,,,,,,q,1103,1190458,,,
CVOE updated,77,1,4,108,J 39,Letter,N,TRUE,CV,,,,,,,q,934,1191906,,,
CVOE updated,77,1,4,109,S 22,Number,Y,FALSE,OE,,,,,,,p,884,1193306,,,
CVOE updated,77,1,4,110,D 89,Letter,Y,TRUE,CV,,,,,,,q,1164,1194986,,,
CVOE updated,77,1,4,111,P 87,Letter,N,TRUE,CV,,,,,,,q,1321,1196826,,,
CVOE updated,77,1,4,112,H 42,Letter,N,FALSE,CV,,,,,,,q,727,1198066,,,
CVOE updated,77,1,4,113,S 49,Letter,N,TRUE,CV,,,,,,,q,717,1199306,,,
CVOE updated,77,1,4,114,J 20,Number,Y,FALSE,OE,,,,,,,p,932,1200754,,,
CVOE updated,77,1,4,115,O 19,Letter,Y,FALSE,CV,,,,,,,q,778,1202050,,,
CVOE updated,77,1,4,116,H 50,Letter,N,FALSE,CV,,,,,,,q,3901,1206474,,,
CVOE updated,77,1,4,117,I 68,Number,Y,TRUE,OE,,,,,,,p,1301,1208290,,,
CVOE updated,77,1,4,118,J 72,Number,N,FALSE,OE,,,,,,,p,1020,1209826,,,
CVOE updated,77,1,4,119,O 21,Number,N,FALSE,OE,,,,,,,q,902,1211242,,,
CVOE updated,77,1,4,120,H 22,Number,N,FALSE,OE,,,,,,,p,838,1212594,,,
CVOE updated,81,1,1,1,A 10,,,TRUE,CV,,,,,,,,,,,,
CVOE updated,81,1,1,2,D 11,,,TRUE,CV,,,,,,,,,,,,
CVOE updated,81,1,1,3,E 21,,,FALSE,CV,,,,,,,,,,,,
CVOE updated,81,1,1,4,H 26,,,FALSE,CV,,,,,,,,,,,,
CVOE updated,81,1,1,5,I 32,,,TRUE,CV,,,,,,,,,,,,
CVOE updated,81,1,1,6,J 44,,,FALSE,CV,,,,,,,,,,,,
CVOE updated,81,1,1,7,P 59,,,TRUE,CV,,,,,,,,,,,,
CVOE updated,81,1,1,8,O 61,,,FALSE,CV,,,,,,,,,,,,
CVOE updated,81,1,1,9,S 70,,,FALSE,CV,,,,,,,,,,,,
CVOE updated,81,1,1,10,U 82,,,TRUE,CV,,,,,,,,,,,,
CVOE updated,81,1,1,11,A 71,,,FALSE,CV,p,1476,173708,,,,,,,,,
CVOE updated,81,1,1,12,I 66,,,TRUE,CV,p,884,175116,,,,,,,,,
CVOE updated,81,1,1,13,S 30,,,FALSE,CV,q,508,176140,,,,,,,,,
CVOE updated,81,1,1,14,D 20,,,FALSE,CV,q,603,177252,,,,,,,,,
CVOE updated,81,1,1,15,I 31,,,FALSE,CV,p,703,178468,,,,,,,,,
CVOE updated,81,1,1,16,P 16,,,FALSE,CV,q,702,179684,,,,,,,,,
CVOE updated,81,1,1,17,A 49,,,FALSE,CV,p,1021,181220,,,,,,,,,
CVOE updated,81,1,1,18,O 64,,,TRUE,CV,p,1048,182780,,,,,,,,,
CVOE updated,81,1,1,19,D 02,,,FALSE,CV,q,1025,184324,,,,,,,,,
CVOE updated,81,1,1,20,P 81,,,TRUE,CV,q,1731,186564,,,,,,,,,
CVOE updated,81,1,1,21,J 58,,,FALSE,CV,q,857,187940,,,,,,,,,
CVOE updated,81,1,1,22,A 22,,,TRUE,CV,p,794,189244,,,,,,,,,
CVOE updated,81,1,1,23,J 72,,,FALSE,CV,q,918,190684,,,,,,,,,
CVOE updated,81,1,1,24,P 91,,,TRUE,CV,q,788,191988,,,,,,,,,
CVOE updated,81,1,1,25,E 19,,,FALSE,CV,p,848,193348,,,,,,,,,
CVOE updated,81,1,1,26,I 30,,,TRUE,CV,p,625,194492,,,,,,,,,
CVOE updated,81,1,1,27,D 91,,,TRUE,CV,q,500,195500,,,,,,,,,
CVOE updated,81,1,1,28,O 48,,,TRUE,CV,p,523,196540,,,,,,,,,
CVOE updated,81,1,1,29,A 89,,,FALSE,CV,p,650,197700,,,,,,,,,
CVOE updated,81,1,1,30,U 11,,,FALSE,CV,p,691,198908,,,,,,,,,
CVOE updated,81,1,1,31,I 76,,,TRUE,CV,p,899,200316,,,,,,,,,
CVOE updated,81,1,1,32,U 89,,,FALSE,CV,p,714,201548,,,,,,,,,
CVOE updated,81,1,1,33,D 63,,,TRUE,CV,q,505,202572,,,,,,,,,
CVOE updated,81,1,1,34,H 70,,,FALSE,CV,q,752,203836,,,,,,,,,
CVOE updated,81,1,1,35,D 48,,,FALSE,CV,q,765,205116,,,,,,,,,
CVOE updated,81,1,1,36,P 56,,,FALSE,CV,q,898,206532,,,,,,,,,
CVOE updated,81,1,1,37,O 77,,,FALSE,CV,p,849,207900,,,,,,,,,
CVOE updated,81,1,1,38,P 42,,,FALSE,CV,q,714,209132,,,,,,,,,
CVOE updated,81,1,1,39,H 22,,,FALSE,CV,q,1297,210948,,,,,,,,,
CVOE updated,81,1,1,40,E 42,,,TRUE,CV,p,840,212308,,,,,,,,,
CVOE updated,81,1,1,41,J 28,,,FALSE,CV,q,706,213524,,,,,,,,,
CVOE updated,81,1,1,42,E 95,,,FALSE,CV,p,769,214804,,,,,,,,,
CVOE updated,81,1,1,43,S 63,,,TRUE,CV,q,774,216092,,,,,,,,,
CVOE updated,81,1,1,44,H 50,,,FALSE,CV,q,715,217316,,,,,,,,,
CVOE updated,81,1,1,45,S 33,,,TRUE,CV,q,737,218572,,,,,,,,,
CVOE updated,81,1,1,46,P 57,,,TRUE,CV,q,663,219748,,,,,,,,,
CVOE updated,81,1,1,47,E 23,,,FALSE,CV,p,704,220972,,,,,,,,,
CVOE updated,81,1,1,48,S 61,,,TRUE,CV,q,623,222108,,,,,,,,,
CVOE updated,81,1,1,49,U 67,,,FALSE,CV,p,721,223340,,,,,,,,,
CVOE updated,81,1,1,50,H 32,,,FALSE,CV,q,752,224604,,,,,,,,,
CVOE updated,81,1,1,51,U 50,,,TRUE,CV,p,757,225876,,,,,,,,,
CVOE updated,81,1,1,52,O 49,,,FALSE,CV,p,643,227028,,,,,,,,,
CVOE updated,81,1,1,53,U 32,,,TRUE,CV,p,580,228132,,,,,,,,,
CVOE updated,81,1,1,54,J 78,,,FALSE,CV,q,1016,229668,,,,,,,,,
CVOE updated,81,1,1,55,S 54,,,FALSE,CV,q,826,231012,,,,,,,,,
CVOE updated,81,1,1,56,J 27,,,TRUE,CV,q,884,232420,,,,,,,,,
CVOE updated,81,1,1,57,S 06,,,FALSE,CV,q,868,233804,,,,,,,,,
CVOE updated,81,1,1,58,D 67,,,TRUE,CV,q,981,235300,,,,,,,,,
CVOE updated,81,1,1,59,A 79,,,FALSE,CV,p,945,236764,,,,,,,,,
CVOE updated,81,1,1,60,S 52,,,FALSE,CV,q,934,238220,,,,,,,,,
CVOE updated,81,1,1,61,U 16,,,TRUE,CV,p,964,239700,,,,,,,,,
CVOE updated,81,1,1,62,O 82,,,TRUE,CV,p,680,240900,,,,,,,,,
CVOE updated,81,1,1,63,H 87,,,TRUE,CV,q,600,242020,,,,,,,,,
CVOE updated,81,1,1,64,I 32,,,TRUE,CV,p,675,243212,,,,,,,,,
CVOE updated,81,1,1,65,U 37,,,FALSE,CV,p,724,244444,,,,,,,,,
CVOE updated,81,1,1,66,I 42,,,TRUE,CV,p,747,245700,,,,,,,,,
CVOE updated,81,1,1,67,D 65,,,TRUE,CV,q,736,246956,,,,,,,,,
CVOE updated,81,1,1,68,U 77,,,FALSE,CV,p,670,248140,,,,,,,,,
CVOE updated,81,1,1,69,E 12,,,TRUE,CV,p,838,249492,,,,,,,,,
CVOE updated,81,1,1,70,I 60,,,TRUE,CV,p,768,250772,,,,,,,,,
CVOE updated,81,1,1,71,J 36,,,FALSE,CV,q,797,252084,,,,,,,,,
CVOE updated,81,1,1,72,H 75,,,TRUE,CV,q,1144,253748,,,,,,,,,
CVOE updated,81,1,1,73,I 50,,,TRUE,CV,p,797,255068,,,,,,,,,
CVOE updated,81,1,1,74,E 99,,,FALSE,CV,p,841,256428,,,,,,,,,
CVOE updated,81,1,1,75,A 86,,,TRUE,CV,p,682,257620,,,,,,,,,
CVOE updated,81,1,1,76,U 48,,,TRUE,CV,p,634,258772,,,,,,,,,
CVOE updated,81,1,1,77,E 01,,,FALSE,CV,p,692,259980,,,,,,,,,
CVOE updated,81,1,1,78,A 78,,,TRUE,CV,p,700,261204,,,,,,,,,
CVOE updated,81,1,1,79,P 60,,,FALSE,CV,q,643,262364,,,,,,,,,
CVOE updated,81,1,1,80,E 43,,,FALSE,CV,p,604,263492,,,,,,,,,
CVOE updated,81,1,1,81,D 69,,,TRUE,CV,q,871,264876,,,,,,,,,
CVOE updated,81,1,1,82,H 11,,,TRUE,CV,q,648,266036,,,,,,,,,
CVOE updated,81,1,1,83,P 43,,,TRUE,CV,q,537,267092,,,,,,,,,
CVOE updated,81,1,1,84,O 67,,,FALSE,CV,p,647,268252,,,,,,,,,
CVOE updated,81,1,1,85,S 91,,,FALSE,CV,q,688,269460,,,,,,,,,
CVOE updated,81,1,1,86,J 68,,,TRUE,CV,q,560,270532,,,,,,,,,
CVOE updated,81,1,1,87,S 47,,,FALSE,CV,q,533,271588,,,,,,,,,
CVOE updated,81,1,1,88,I 81,,,TRUE,CV,p,507,272612,,,,,,,,,
CVOE updated,81,1,1,89,J 39,,,FALSE,CV,q,626,273748,,,,,,,,,
CVOE updated,81,1,1,90,A 11,,,TRUE,CV,p,716,274988,,,,,,,,,
CVOE updated,81,1,1,91,O 76,,,FALSE,CV,p,618,276124,,,,,,,,,
CVOE updated,81,1,1,92,A 62,,,FALSE,CV,p,549,277188,,,,,,,,,
CVOE updated,81,1,1,93,O 27,,,TRUE,CV,p,482,278188,,,,,,,,,
CVOE updated,81,1,1,94,E 66,,,FALSE,CV,p,482,279188,,,,,,,,,
CVOE updated,81,1,1,95,J 62,,,TRUE,CV,q,570,280276,,,,,,,,,
CVOE updated,81,1,1,96,H 72,,,TRUE,CV,q,575,281364,,,,,,,,,
CVOE updated,81,1,1,97,E 49,,,TRUE,CV,p,547,282420,,,,,,,,,
CVOE updated,81,1,1,98,D 52,,,TRUE,CV,q,577,283516,,,,,,,,,
CVOE updated,81,1,1,99,H 62,,,TRUE,CV,q,485,284524,,,,,,,,,
CVOE updated,81,1,1,100,I 11,,,TRUE,CV,p,476,285516,,,,,,,,,
CVOE updated,81,1,1,101,A 98,,,FALSE,CV,p,588,286628,,,,,,,,,
CVOE updated,81,1,1,102,H 29,,,FALSE,CV,q,536,287676,,,,,,,,,
CVOE updated,81,1,1,103,E 83,,,TRUE,CV,p,574,288764,,,,,,,,,
CVOE updated,81,1,1,104,D 43,,,FALSE,CV,q,643,289916,,,,,,,,,
CVOE updated,81,1,1,105,P 45,,,TRUE,CV,q,508,290948,,,,,,,,,
CVOE updated,81,1,1,106,J 17,,,TRUE,CV,q,483,291940,,,,,,,,,
CVOE updated,81,1,2,1,U 08,,,TRUE,OE,,,,,,,,,,,,
CVOE updated,81,1,2,2,S 13,,,FALSE,OE,,,,,,,,,,,,
CVOE updated,81,1,2,3,O 25,,,FALSE,OE,,,,,,,,,,,,
CVOE updated,81,1,2,4,P 26,,,FALSE,OE,,,,,,,,,,,,
CVOE updated,81,1,2,5,J 49,,,TRUE,OE,,,,,,,,,,,,
CVOE updated,81,1,2,6,I 43,,,FALSE,OE,,,,,,,,,,,,
CVOE updated,81,1,2,7,H 26,,,FALSE,OE,,,,,,,,,,,,
CVOE updated,81,1,2,8,E 21,,,FALSE,OE,,,,,,,,,,,,
CVOE updated,81,1,2,9,D 19,,,TRUE,OE,,,,,,,,,,,,
CVOE updated,81,1,2,10,A 82,,,TRUE,OE,,,,,,,,,,,,
CVOE updated,81,1,2,11,A 24,,,TRUE,OE,,,,p,1721,336764,,,,,,
CVOE updated,81,1,2,12,O 83,,,FALSE,OE,,,,q,672,337948,,,,,,
CVOE updated,81,1,2,13,H 55,,,TRUE,OE,,,,q,664,339124,,,,,,
CVOE updated,81,1,2,14,P 10,,,FALSE,OE,,,,p,561,340204,,,,,,
CVOE updated,81,1,2,15,D 30,,,FALSE,OE,,,,p,693,341420,,,,,,
CVOE updated,81,1,2,16,U 62,,,TRUE,OE,,,,p,749,342692,,,,,,
CVOE updated,81,1,2,17,P 95,,,TRUE,OE,,,,q,610,343820,,,,,,
CVOE updated,81,1,2,18,U 06,,,TRUE,OE,,,,p,756,345100,,,,,,
CVOE updated,81,1,2,19,E 75,,,FALSE,OE,,,,q,762,346372,,,,,,
CVOE updated,81,1,2,20,I 67,,,FALSE,OE,,,,q,606,347500,,,,,,
CVOE updated,81,1,2,21,S 13,,,TRUE,OE,,,,q,666,348677,,,,,,
CVOE updated,81,1,2,22,P 78,,,FALSE,OE,,,,p,1090,350284,,,,,,
CVOE updated,81,1,2,23,I 15,,,FALSE,OE,,,,q,626,351420,,,,,,
CVOE updated,81,1,2,24,D 27,,,TRUE,OE,,,,q,644,352588,,,,,,
CVOE updated,81,1,2,25,O 94,,,TRUE,OE,,,,p,653,353764,,,,,,
CVOE updated,81,1,2,26,A 65,,,FALSE,OE,,,,q,702,354980,,,,,,
CVOE updated,81,1,2,27,I 42,,,TRUE,OE,,,,p,478,355972,,,,,,
CVOE updated,81,1,2,28,E 25,,,FALSE,OE,,,,q,502,356996,,,,,,
CVOE updated,81,1,2,29,H 49,,,TRUE,OE,,,,q,797,358308,,,,,,
CVOE updated,81,1,2,30,S 18,,,FALSE,OE,,,,p,568,359396,,,,,,
CVOE updated,81,1,2,31,H 51,,,TRUE,OE,,,,q,565,360476,,,,,,
CVOE updated,81,1,2,32,U 14,,,TRUE,OE,,,,p,641,361636,,,,,,
CVOE updated,81,1,2,33,E 02,,,TRUE,OE,,,,p,611,362756,,,,,,
CVOE updated,81,1,2,34,J 26,,,FALSE,OE,,,,p,686,363964,,,,,,
CVOE updated,81,1,2,35,D 24,,,FALSE,OE,,,,p,566,365044,,,,,,
CVOE updated,81,1,2,36,O 50,,,TRUE,OE,,,,p,658,366220,,,,,,
CVOE updated,81,1,2,37,U 16,,,TRUE,OE,,,,p,548,367277,,,,,,
CVOE updated,81,1,2,38,O 15,,,FALSE,OE,,,,q,769,368564,,,,,,
CVOE updated,81,1,2,39,D 32,,,FALSE,OE,,,,p,830,369909,,,,,,
CVOE updated,81,1,2,40,S 67,,,TRUE,OE,,,,q,1015,371444,,,,,,
CVOE updated,81,1,2,41,J 74,,,FALSE,OE,,,,p,778,372740,,,,,,
CVOE updated,81,1,2,42,D 92,,,FALSE,OE,,,,p,726,373988,,,,,,
CVOE updated,81,1,2,43,A 65,,,FALSE,OE,,,,q,732,375244,,,,,,
CVOE updated,81,1,2,44,I 87,,,FALSE,OE,,,,q,905,376668,,,,,,
CVOE updated,81,1,2,45,H 61,,,TRUE,OE,,,,q,1217,378396,,,,,,
CVOE updated,81,1,2,46,E 59,,,FALSE,OE,,,,q,884,379797,,,,,,
CVOE updated,81,1,2,47,I 33,,,FALSE,OE,,,,q,947,381260,,,,,,
CVOE updated,81,1,2,48,O 90,,,TRUE,OE,,,,p,944,382724,,,,,,
CVOE updated,81,1,2,49,U 51,,,FALSE,OE,,,,q,735,383981,,,,,,
CVOE updated,81,1,2,50,A 10,,,TRUE,OE,,,,p,628,385124,,,,,,
CVOE updated,81,1,2,51,E 50,,,TRUE,OE,,,,p,662,386308,,,,,,
CVOE updated,81,1,2,52,D 92,,,FALSE,OE,,,,p,695,387525,,,,,,
CVOE updated,81,1,2,53,E 60,,,TRUE,OE,,,,p,518,388565,,,,,,
CVOE updated,81,1,2,54,A 95,,,FALSE,OE,,,,q,620,389700,,,,,,
CVOE updated,81,1,2,55,E 64,,,TRUE,OE,,,,p,744,390957,,,,,,
CVOE updated,81,1,2,56,P 20,,,FALSE,OE,,,,p,557,392037,,,,,,
CVOE updated,81,1,2,57,S 06,,,FALSE,OE,,,,p,634,393181,,,,,,
CVOE updated,81,1,2,58,P 64,,,FALSE,OE,,,,p,596,394293,,,,,,
CVOE updated,81,1,2,59,U 70,,,TRUE,OE,,,,p,855,395669,,,,,,
CVOE updated,81,1,2,60,S 16,,,FALSE,OE,,,,p,736,396917,,,,,,
CVOE updated,81,1,2,61,E 35,,,FALSE,OE,,,,q,550,397981,,,,,,
CVOE updated,81,1,2,62,I 93,,,FALSE,OE,,,,q,1652,400149,,,,,,
CVOE updated,81,1,2,63,D 63,,,TRUE,OE,,,,q,1045,401709,,,,,,
