ExperimentName,Subject,Group,Block,Trial,STIM,TASK,Switch,Congruent,CVOE,Response,Key,PCVstim.RT
CVOE updated,1,1,1,11,A 71,,,FALSE,CV,p,p,2421
CVOE updated,1,1,1,12,I 66,,,TRUE,CV,p,p,717
CVOE updated,1,1,1,13,S 30,,,FALSE,CV,q,q,566
CVOE updated,1,1,1,14,D 20,,,FALSE,CV,q,q,868
CVOE updated,1,1,1,15,I 31,,,FALSE,CV,p,p,550
CVOE updated,1,1,1,16,P 16,,,FALSE,CV,q,q,731
CVOE updated,1,1,1,17,A 49,,,FALSE,CV,p,p,784
CVOE updated,1,1,1,18,O 64,,,TRUE,CV,p,p,1165
CVOE updated,1,1,1,19,D 02,,,FALSE,CV,q,q,1267
CVOE updated,1,1,1,20,P 81,,,TRUE,CV,q,q,1141
CVOE updated,1,1,1,21,J 58,,,FALSE,CV,q,q,3512
CVOE updated,1,1,1,22,A 22,,,TRUE,CV,p,p,492
CVOE updated,1,1,1,23,J 72,,,FALSE,CV,q,q,599
CVOE updated,1,1,1,24,P 91,,,TRUE,CV,q,q,590
CVOE updated,1,1,1,25,E 19,,,FALSE,CV,p,p,666
CVOE updated,1,1,1,26,I 30,,,TRUE,CV,p,p,710
CVOE updated,1,1,1,27,D 91,,,TRUE,CV,q,q,515
CVOE updated,1,1,1,28,O 48,,,TRUE,CV,p,p,823
CVOE updated,1,1,1,29,A 89,,,FALSE,CV,p,p,545
CVOE updated,1,1,1,30,U 11,,,FALSE,CV,p,p,736
CVOE updated,1,1,1,31,I 76,,,TRUE,CV,p,p,608
CVOE updated,1,1,1,32,U 89,,,FALSE,CV,p,p,978
CVOE updated,1,1,1,33,D 63,,,TRUE,CV,q,q,482
CVOE updated,1,1,1,34,H 70,,,FALSE,CV,q,q,795
CVOE updated,1,1,1,35,D 48,,,FALSE,CV,q,q,585
CVOE updated,1,1,1,36,P 56,,,FALSE,CV,p,q,520
CVOE updated,1,1,1,37,O 77,,,FALSE,CV,p,p,1241
CVOE updated,1,1,1,38,P 42,,,FALSE,CV,q,q,601
CVOE updated,1,1,1,39,H 22,,,FALSE,CV,q,q,808
CVOE updated,1,1,1,40,E 42,,,TRUE,CV,p,p,579
CVOE updated,1,1,1,41,J 28,,,FALSE,CV,q,q,537
CVOE updated,1,1,1,42,E 95,,,FALSE,CV,p,p,698
CVOE updated,1,1,1,43,S 63,,,TRUE,CV,q,q,1279
CVOE updated,1,1,1,44,H 50,,,FALSE,CV,q,q,1077
CVOE updated,1,1,1,45,S 33,,,TRUE,CV,q,q,619
CVOE updated,1,1,1,46,P 57,,,TRUE,CV,q,q,705
CVOE updated,1,1,1,47,E 23,,,FALSE,CV,p,p,568
CVOE updated,1,1,1,48,S 61,,,TRUE,CV,q,q,465
CVOE updated,1,1,1,49,U 67,,,FALSE,CV,p,p,564
CVOE updated,1,1,1,50,H 32,,,FALSE,CV,q,q,507
CVOE updated,1,1,1,51,U 50,,,TRUE,CV,p,p,635
CVOE updated,1,1,1,52,O 49,,,FALSE,CV,p,p,2704
CVOE updated,1,1,1,53,U 32,,,TRUE,CV,p,p,865
CVOE updated,1,1,1,54,J 78,,,FALSE,CV,q,q,523
CVOE updated,1,1,1,55,S 54,,,FALSE,CV,q,q,577
CVOE updated,1,1,1,56,J 27,,,TRUE,CV,q,q,680
CVOE updated,1,1,1,57,S 06,,,FALSE,CV,q,q,387
CVOE updated,1,1,1,58,D 67,,,TRUE,CV,q,q,411
CVOE updated,1,1,1,59,A 79,,,FALSE,CV,p,p,500
CVOE updated,1,1,1,60,S 52,,,FALSE,CV,q,q,490
CVOE updated,1,1,1,61,U 16,,,TRUE,CV,p,p,1018
CVOE updated,1,1,1,62,O 82,,,TRUE,CV,p,p,609
CVOE updated,1,1,1,63,H 87,,,TRUE,CV,q,q,586
CVOE updated,1,1,1,64,I 32,,,TRUE,CV,p,p,397
CVOE updated,1,1,1,65,U 37,,,FALSE,CV,p,p,543
CVOE updated,1,1,1,66,I 42,,,TRUE,CV,p,p,455
CVOE updated,1,1,1,67,D 65,,,TRUE,CV,q,q,432
CVOE updated,1,1,1,68,U 77,,,FALSE,CV,p,p,619
CVOE updated,1,1,1,69,E 12,,,TRUE,CV,p,p,464
CVOE updated,1,1,1,70,I 60,,,TRUE,CV,p,p,490
CVOE updated,1,1,1,71,J 36,,,FALSE,CV,q,q,545
CVOE updated,1,1,1,72,H 75,,,TRUE,CV,q,q,2057
CVOE updated,1,1,1,73,I 50,,,TRUE,CV,p,p,504
CVOE updated,1,1,1,74,E 99,,,FALSE,CV,p,p,771
CVOE updated,1,1,1,75,A 86,,,TRUE,CV,p,p,596
CVOE updated,1,1,1,76,U 48,,,TRUE,CV,p,p,514
CVOE updated,1,1,1,77,E 01,,,FALSE,CV,p,p,468
CVOE updated,1,1,1,78,A 78,,,TRUE,CV,p,p,356
CVOE updated,1,1,1,79,P 60,,,FALSE,CV,q,q,500
CVOE updated,1,1,1,80,E 43,,,FALSE,CV,p,p,662
CVOE updated,1,1,1,81,D 69,,,TRUE,CV,q,q,627
CVOE updated,1,1,1,82,H 11,,,TRUE,CV,q,q,634
CVOE updated,1,1,1,83,P 43,,,TRUE,CV,q,q,568
CVOE updated,1,1,1,84,O 67,,,FALSE,CV,p,p,433
CVOE updated,1,1,1,85,S 91,,,FALSE,CV,q,q,533
CVOE updated,1,1,1,86,J 68,,,TRUE,CV,q,q,674
CVOE updated,1,1,1,87,S 47,,,FALSE,CV,q,q,443
CVOE updated,1,1,1,88,I 81,,,TRUE,CV,p,p,478
CVOE updated,1,1,1,89,J 39,,,FALSE,CV,q,q,483
CVOE updated,1,1,1,90,A 11,,,TRUE,CV,p,p,454
CVOE updated,1,1,1,91,O 76,,,FALSE,CV,p,p,726
CVOE updated,1,1,1,92,A 62,,,FALSE,CV,p,p,563
CVOE updated,1,1,1,93,O 27,,,TRUE,CV,p,p,554
CVOE updated,1,1,1,94,E 66,,,FALSE,CV,p,p,653
CVOE updated,1,1,1,95,J 62,,,TRUE,CV,q,q,924
CVOE updated,1,1,1,96,H 72,,,TRUE,CV,q,q,541
CVOE updated,1,1,1,97,E 49,,,TRUE,CV,p,p,575
CVOE updated,1,1,1,98,D 52,,,TRUE,CV,q,q,754
CVOE updated,1,1,1,99,H 62,,,TRUE,CV,q,q,633
CVOE updated,1,1,1,100,I 11,,,TRUE,CV,p,p,544
CVOE updated,1,1,1,101,A 98,,,FALSE,CV,p,p,588
CVOE updated,1,1,1,102,H 29,,,FALSE,CV,q,q,516
CVOE updated,1,1,1,103,E 83,,,TRUE,CV,p,p,544
CVOE updated,1,1,1,104,D 43,,,FALSE,CV,q,q,919
CVOE updated,1,1,1,105,P 45,,,TRUE,CV,q,q,658
CVOE updated,1,1,1,106,J 17,,,TRUE,CV,q,q,504
CVOE updated,1,1,2,11,A 24,,,TRUE,OE,p,p,2299
CVOE updated,1,1,2,12,O 83,,,FALSE,OE,q,q,547
CVOE updated,1,1,2,13,H 55,,,TRUE,OE,q,q,1340
CVOE updated,1,1,2,14,P 10,,,FALSE,OE,p,p,1936
CVOE updated,1,1,2,15,D 30,,,FALSE,OE,p,p,667
CVOE updated,1,1,2,16,U 62,,,TRUE,OE,p,p,5075
CVOE updated,1,1,2,17,P 95,,,TRUE,OE,q,q,797
CVOE updated,1,1,2,18,U 06,,,TRUE,OE,p,p,910
CVOE updated,1,1,2,19,E 75,,,FALSE,OE,q,q,710
CVOE updated,1,1,2,20,I 67,,,FALSE,OE,q,q,1126
CVOE updated,1,1,2,21,S 13,,,TRUE,OE,q,q,638
CVOE updated,1,1,2,22,P 78,,,FALSE,OE,p,p,775
CVOE updated,1,1,2,23,I 15,,,FALSE,OE,q,q,1924
CVOE updated,1,1,2,24,D 27,,,TRUE,OE,q,q,968
CVOE updated,1,1,2,25,O 94,,,TRUE,OE,p,p,583
CVOE updated,1,1,2,26,A 65,,,FALSE,OE,q,q,622
CVOE updated,1,1,2,27,I 42,,,TRUE,OE,p,p,493
CVOE updated,1,1,2,28,E 25,,,FALSE,OE,q,q,683
CVOE updated,1,1,2,29,H 49,,,TRUE,OE,q,q,672
CVOE updated,1,1,2,30,S 18,,,FALSE,OE,p,p,772
CVOE updated,1,1,2,31,H 51,,,TRUE,OE,q,q,1035
CVOE updated,1,1,2,32,U 14,,,TRUE,OE,p,p,648
CVOE updated,1,1,2,33,E 02,,,TRUE,OE,q,p,462
CVOE updated,1,1,2,34,J 26,,,FALSE,OE,p,p,996
CVOE updated,1,1,2,35,D 24,,,FALSE,OE,p,p,704
CVOE updated,1,1,2,36,O 50,,,TRUE,OE,p,p,753
CVOE updated,1,1,2,37,U 16,,,TRUE,OE,p,p,615
CVOE updated,1,1,2,38,O 15,,,FALSE,OE,q,q,629
CVOE updated,1,1,2,39,D 32,,,FALSE,OE,p,p,593
CVOE updated,1,1,2,40,S 67,,,TRUE,OE,q,q,667
CVOE updated,1,1,2,41,J 74,,,FALSE,OE,p,p,584
CVOE updated,1,1,2,42,D 92,,,FALSE,OE,p,p,806
CVOE updated,1,1,2,43,A 65,,,FALSE,OE,q,q,910
CVOE updated,1,1,2,44,I 87,,,FALSE,OE,q,q,1626
CVOE updated,1,1,2,45,H 61,,,TRUE,OE,q,q,751
CVOE updated,1,1,2,46,E 59,,,FALSE,OE,q,q,1246
CVOE updated,1,1,2,47,I 33,,,FALSE,OE,q,q,1790
CVOE updated,1,1,2,48,O 90,,,TRUE,OE,p,p,1999
CVOE updated,1,1,2,49,U 51,,,FALSE,OE,q,q,1705
CVOE updated,1,1,2,50,A 10,,,TRUE,OE,p,p,809
CVOE updated,1,1,2,51,E 50,,,TRUE,OE,p,p,827
CVOE updated,1,1,2,52,D 92,,,FALSE,OE,p,p,645
CVOE updated,1,1,2,53,E 60,,,TRUE,OE,p,p,530
CVOE updated,1,1,2,54,A 95,,,FALSE,OE,q,q,670
CVOE updated,1,1,2,55,E 64,,,TRUE,OE,p,p,1069
CVOE updated,1,1,2,56,P 20,,,FALSE,OE,q,p,693
CVOE updated,1,1,2,57,S 06,,,FALSE,OE,p,p,992
CVOE updated,1,1,2,58,P 64,,,FALSE,OE,p,p,676
CVOE updated,1,1,2,59,U 70,,,TRUE,OE,p,p,931
CVOE updated,1,1,2,60,S 16,,,FALSE,OE,p,p,1158
CVOE updated,1,1,2,61,E 35,,,FALSE,OE,q,q,592
CVOE updated,1,1,2,62,I 93,,,FALSE,OE,q,q,1307
CVOE updated,1,1,2,63,D 63,,,TRUE,OE,q,q,809
CVOE updated,1,1,2,64,U 89,,,FALSE,OE,p,q,617
CVOE updated,1,1,2,65,E 91,,,FALSE,OE,q,q,550
CVOE updated,1,1,2,66,A 12,,,TRUE,OE,p,p,576
CVOE updated,1,1,2,67,P 56,,,FALSE,OE,q,p,580
CVOE updated,1,1,2,68,S 65,,,TRUE,OE,q,q,2551
CVOE updated,1,1,2,69,P 07,,,TRUE,OE,q,q,692
CVOE updated,1,1,2,70,I 77,,,FALSE,OE,q,q,514
CVOE updated,1,1,2,71,J 19,,,TRUE,OE,q,q,656
CVOE updated,1,1,2,72,O 59,,,FALSE,OE,q,q,577
CVOE updated,1,1,2,73,J 15,,,TRUE,OE,q,q,581
CVOE updated,1,1,2,74,I 89,,,FALSE,OE,q,q,530
CVOE updated,1,1,2,75,O 97,,,FALSE,OE,q,q,508
CVOE updated,1,1,2,76,A 92,,,TRUE,OE,p,p,601
CVOE updated,1,1,2,77,J 90,,,FALSE,OE,p,p,803
CVOE updated,1,1,2,78,H 65,,,TRUE,OE,q,q,548
CVOE updated,1,1,2,79,H 17,,,TRUE,OE,q,q,747
CVOE updated,1,1,2,80,S 26,,,FALSE,OE,p,p,856
CVOE updated,1,1,2,81,D 56,,,FALSE,OE,p,p,727
CVOE updated,1,1,2,82,I 91,,,FALSE,OE,q,q,604
CVOE updated,1,1,2,83,J 11,,,TRUE,OE,q,q,3823
CVOE updated,1,1,2,84,O 28,,,TRUE,OE,p,p,1164
CVOE updated,1,1,2,85,H 29,,,TRUE,OE,q,q,778
CVOE updated,1,1,2,86,J 25,,,TRUE,OE,q,q,676
CVOE updated,1,1,2,87,A 73,,,FALSE,OE,q,q,1936
CVOE updated,1,1,2,88,J 63,,,TRUE,OE,q,q,568
CVOE updated,1,1,2,89,U 84,,,TRUE,OE,p,p,657
CVOE updated,1,1,2,90,A 58,,,TRUE,OE,p,p,1580
CVOE updated,1,1,2,91,S 43,,,TRUE,OE,q,q,706
CVOE updated,1,1,2,92,H 54,,,FALSE,OE,p,p,479
CVOE updated,1,1,2,93,D 4,,,FALSE,OE,p,p,487
CVOE updated,1,1,2,94,J 75,,,TRUE,OE,q,q,561
CVOE updated,1,1,2,95,D 19,,,TRUE,OE,q,q,711
CVOE updated,1,1,2,96,J 38,,,FALSE,OE,p,p,2268
CVOE updated,1,1,2,97,I 56,,,TRUE,OE,p,p,858
CVOE updated,1,1,2,98,P 87,,,TRUE,OE,q,q,594
CVOE updated,1,1,2,99,O 80,,,TRUE,OE,p,p,633
CVOE updated,1,1,2,100,U 60,,,TRUE,OE,p,p,654
CVOE updated,1,1,2,101,P 48,,,FALSE,OE,p,p,783
CVOE updated,1,1,2,102,H 64,,,FALSE,OE,p,p,518
CVOE updated,1,1,2,103,A 13,,,FALSE,OE,q,q,895
CVOE updated,1,1,2,104,H 68,,,FALSE,OE,p,p,707
CVOE updated,1,1,2,105,E 16,,,TRUE,OE,p,p,394
CVOE updated,1,1,2,106,S 71,,,TRUE,OE,q,q,782
CVOE updated,1,1,3,11,A 44,Letter,N,TRUE,CV,q,p,6278
CVOE updated,1,1,3,12,D 94,Letter,N,FALSE,CV,q,q,774
CVOE updated,1,1,3,13,E 75,Number,Y,FALSE,OE,q,p,984
CVOE updated,1,1,3,14,H 81,Number,N,TRUE,OE,q,p,1156
CVOE updated,1,1,3,15,I 64,Letter,Y,TRUE,CV,p,p,1870
CVOE updated,1,1,3,16,J 54,Letter,N,FALSE,CV,q,q,1302
CVOE updated,1,1,3,17,O 23,Number,Y,FALSE,OE,q,q,1080
CVOE updated,1,1,3,18,P 05,Number,N,TRUE,OE,q,q,1037
CVOE updated,1,1,3,19,S 34,Letter,Y,FALSE,CV,q,q,2284
CVOE updated,1,1,3,20,U 88,Letter,N,TRUE,CV,p,p,2358
CVOE updated,1,1,3,21,A 70,Number,Y,TRUE,OE,p,p,5140
CVOE updated,1,1,3,22,D 12,Number,N,FALSE,OE,p,p,2017
CVOE updated,1,1,3,23,E 79,Letter,Y,FALSE,CV,p,p,1120
CVOE updated,1,1,3,24,H 72,Letter,N,FALSE,CV,q,q,1383
CVOE updated,1,1,3,25,I 41,Number,Y,FALSE,OE,q,q,1162
CVOE updated,1,1,3,26,J 63,Number,N,TRUE,OE,q,q,754
CVOE updated,1,1,3,27,O 03,Letter,Y,FALSE,CV,p,p,1394
CVOE updated,1,1,3,28,P 75,Letter,N,TRUE,CV,q,q,920
CVOE updated,1,1,3,29,S 61,Number,Y,TRUE,OE,q,q,1259
CVOE updated,1,1,3,30,U 28,Number,N,TRUE,OE,p,p,1628
CVOE updated,1,1,3,31,A 21,Letter,Y,FALSE,CV,p,p,1202
CVOE updated,1,1,3,32,D 18,Letter,N,FALSE,CV,q,q,696
CVOE updated,1,1,3,33,E 35,Number,Y,FALSE,OE,q,q,3027
CVOE updated,1,1,3,34,H 62,Number,N,FALSE,OE,p,p,5937
CVOE updated,1,1,3,35,I 82,Letter,Y,TRUE,CV,p,p,4390
CVOE updated,1,1,3,36,J 78,Letter,N,FALSE,CV,q,q,1014
CVOE updated,1,1,3,37,O 12,Number,Y,TRUE,OE,p,p,900
CVOE updated,1,1,3,38,P 13,Number,N,TRUE,OE,q,q,1314
CVOE updated,1,1,3,39,S 07,Letter,Y,TRUE,CV,q,q,1870
CVOE updated,1,1,3,40,U 36,Letter,N,TRUE,CV,p,p,1065
CVOE updated,1,1,3,41,A 96,Number,Y,TRUE,OE,p,p,1780
CVOE updated,1,1,3,42,D 04,Number,N,FALSE,OE,p,p,1409
CVOE updated,1,1,3,43,E 60,Letter,Y,TRUE,CV,p,p,3064
CVOE updated,1,1,3,44,H 83,Letter,N,TRUE,CV,q,q,3153
CVOE updated,1,1,3,45,I 64,Number,Y,TRUE,OE,p,p,876
CVOE updated,1,1,3,46,J 76,Number,N,FALSE,OE,p,p,2779
CVOE updated,1,1,3,47,O 78,Letter,Y,TRUE,CV,p,p,1225
CVOE updated,1,1,3,48,P 09,Letter,N,TRUE,CV,q,q,1086
CVOE updated,1,1,3,49,S 72,Number,Y,FALSE,OE,p,p,1121
CVOE updated,1,1,3,50,U 47,Number,N,FALSE,OE,q,q,1416
CVOE updated,1,1,3,51,A 31,Letter,Y,FALSE,CV,p,p,10266
CVOE updated,1,1,3,52,D 96,Letter,N,FALSE,CV,q,q,815
CVOE updated,1,1,3,53,E 40,Number,Y,TRUE,OE,p,p,1455
CVOE updated,1,1,3,54,H 79,Number,N,TRUE,OE,q,q,1198
CVOE updated,1,1,3,55,I 15,Letter,Y,FALSE,CV,p,p,1813
CVOE updated,1,1,3,56,J 07,Letter,N,TRUE,CV,q,q,659
CVOE updated,1,1,3,57,O 61,Number,Y,FALSE,OE,q,q,1764
CVOE updated,1,1,3,58,P 58,Number,N,FALSE,OE,p,p,3112
CVOE updated,1,1,3,59,S 37,Letter,Y,TRUE,CV,q,q,1908
CVOE updated,1,1,3,60,U 61,Letter,N,FALSE,CV,p,p,2186
CVOE updated,1,1,3,61,A 17,Number,Y,FALSE,OE,q,q,2114
CVOE updated,1,1,3,62,D 85,Number,N,TRUE,OE,q,q,2260
CVOE updated,1,1,3,63,E 20,Letter,Y,TRUE,CV,p,p,1388
CVOE updated,1,1,3,64,H 86,Letter,N,FALSE,CV,q,q,1471
CVOE updated,1,1,3,65,I 21,Number,Y,FALSE,OE,q,q,1775
CVOE updated,1,1,3,66,J 29,Number,N,TRUE,OE,q,q,1514
CVOE updated,1,1,3,67,O 13,Letter,Y,FALSE,CV,p,p,1135
CVOE updated,1,1,3,68,P 82,Letter,N,FALSE,CV,q,q,1062
CVOE updated,1,1,3,69,S 72,Number,Y,FALSE,OE,p,p,1697
CVOE updated,1,1,3,70,U 84,Number,N,TRUE,OE,p,p,1048
CVOE updated,1,1,3,71,A 49,Letter,Y,FALSE,CV,p,p,1002
CVOE updated,1,1,3,72,D 91,Letter,N,TRUE,CV,q,q,1549
CVOE updated,1,1,3,73,E 99,Number,Y,FALSE,OE,q,q,4038
CVOE updated,1,1,3,74,H 16,Number,N,FALSE,OE,p,p,7549
CVOE updated,1,1,3,75,I 45,Letter,Y,FALSE,CV,p,p,943
CVOE updated,1,1,3,76,J 70,Letter,N,FALSE,CV,q,q,846
CVOE updated,1,1,3,77,O 22,Number,Y,TRUE,OE,p,p,839
CVOE updated,1,1,3,78,P 41,Number,N,TRUE,OE,q,q,1393
CVOE updated,1,1,3,79,S 93,Letter,Y,TRUE,CV,q,q,1807
CVOE updated,1,1,3,80,U 70,Letter,N,TRUE,CV,p,p,1438
CVOE updated,1,1,3,81,A 42,Number,Y,TRUE,OE,p,p,1096
CVOE updated,1,1,3,82,D 85,Number,N,TRUE,OE,q,q,1199
CVOE updated,1,1,3,83,E 68,Letter,Y,TRUE,CV,p,p,1284
CVOE updated,1,1,3,84,H 17,Letter,N,TRUE,CV,q,q,2257
CVOE updated,1,1,3,85,I 70,Number,Y,TRUE,OE,p,p,1831
CVOE updated,1,1,3,86,J 88,Number,N,FALSE,OE,p,p,1482
CVOE updated,1,1,3,87,O 32,Letter,Y,TRUE,CV,p,p,2011
CVOE updated,1,1,3,88,P 95,Letter,N,TRUE,CV,q,q,1299
CVOE updated,1,1,3,89,S 98,Number,Y,FALSE,OE,p,p,1619
CVOE updated,1,1,3,90,U 37,Number,N,FALSE,OE,q,q,3488
CVOE updated,1,1,3,91,A 56,Letter,Y,TRUE,CV,p,p,1727
CVOE updated,1,1,3,92,D 57,Letter,N,TRUE,CV,q,q,1528
CVOE updated,1,1,3,93,E 93,Number,Y,FALSE,OE,q,q,5791
CVOE updated,1,1,3,94,H 27,Number,N,TRUE,OE,q,q,3451
CVOE updated,1,1,3,95,I 35,Letter,Y,FALSE,CV,p,p,1576
CVOE updated,1,1,3,96,J 03,Letter,N,TRUE,CV,q,q,1591
CVOE updated,1,1,3,97,O 28,Number,Y,TRUE,OE,p,p,1625
CVOE updated,1,1,3,98,P 59,Number,N,TRUE,OE,q,q,1582
CVOE updated,1,1,3,99,S 77,Letter,Y,TRUE,CV,q,q,1615
CVOE updated,1,1,3,100,U 05,Letter,N,FALSE,CV,p,p,1443
CVOE updated,1,1,3,101,A 56,Number,Y,TRUE,OE,p,p,762
CVOE updated,1,1,3,102,D 01,Number,N,TRUE,OE,q,q,6122
CVOE updated,1,1,3,103,E 02,Letter,Y,TRUE,CV,p,p,1375
CVOE updated,1,1,3,104,H 68,Letter,N,FALSE,CV,q,q,629
CVOE updated,1,1,3,105,I 05,Number,Y,FALSE,OE,q,q,2611
CVOE updated,1,1,3,106,J 55,Number,N,TRUE,OE,q,q,3697
CVOE updated,1,1,3,107,O 73,Letter,Y,FALSE,CV,p,p,1232
CVOE updated,1,1,3,108,P 41,Letter,N,TRUE,CV,q,q,853
CVOE updated,1,1,3,109,S 92,Number,Y,FALSE,OE,p,p,750
CVOE updated,1,1,3,110,U 34,Number,N,TRUE,OE,p,p,1159
CVOE updated,1,1,3,111,A 09,Letter,Y,FALSE,CV,p,p,762
CVOE updated,1,1,3,112,D 92,Letter,N,FALSE,CV,q,q,895
CVOE updated,1,1,3,113,E 48,Number,Y,TRUE,OE,p,p,1284
CVOE updated,1,1,3,114,H 76,Number,N,FALSE,OE,p,p,1240
CVOE updated,1,1,3,115,I 44,Letter,Y,TRUE,CV,p,p,1313
CVOE updated,1,1,3,116,J 67,Letter,N,TRUE,CV,q,q,1384
CVOE updated,1,1,3,117,O 48,Number,Y,TRUE,OE,p,p,1539
CVOE updated,1,1,3,118,P 22,Number,N,FALSE,OE,p,p,733
CVOE updated,1,1,3,119,S 86,Letter,Y,FALSE,CV,q,q,772
CVOE updated,1,1,3,120,U 35,Letter,N,FALSE,CV,p,p,5854
CVOE updated,1,1,3,121,A 91,Number,Y,FALSE,OE,q,q,1633
CVOE updated,1,1,3,122,D 78,Number,N,FALSE,OE,p,p,2228
CVOE updated,1,1,3,123,E 91,Letter,Y,FALSE,CV,p,p,2778
CVOE updated,1,1,3,124,H 54,Letter,N,FALSE,CV,q,q,2236
CVOE updated,1,1,3,125,I 65,Number,Y,FALSE,OE,q,q,1487
CVOE updated,1,1,3,126,J 52,Number,N,FALSE,OE,p,p,1996
CVOE updated,1,1,3,127,O 19,Letter,Y,FALSE,CV,q,p,3051
CVOE updated,1,1,3,128,P 48,Letter,N,FALSE,CV,q,q,4402
CVOE updated,1,1,3,129,S 45,Number,Y,TRUE,OE,q,q,1531
CVOE updated,1,1,3,130,U 26,Number,N,TRUE,OE,p,p,1440
CVOE updated,1,1,4,1,U 38,Number,N,TRUE,OE,p,p,5292
CVOE updated,1,1,4,2,P 73,Number,N,TRUE,OE,q,q,1932
CVOE updated,1,1,4,3,U 95,Letter,Y,FALSE,CV,p,p,1226
CVOE updated,1,1,4,4,J 61,Number,Y,TRUE,OE,q,q,2957
CVOE updated,1,1,4,5,D 51,Number,N,TRUE,OE,q,q,987
CVOE updated,1,1,4,6,S 28,Number,N,FALSE,OE,p,p,1200
CVOE updated,1,1,4,7,A 56,Letter,Y,TRUE,CV,p,p,3599
CVOE updated,1,1,4,8,H 78,Letter,N,FALSE,CV,q,q,808
CVOE updated,1,1,4,9,P 92,Letter,N,FALSE,CV,q,q,1335
CVOE updated,1,1,4,10,E 05,Number,Y,FALSE,OE,q,q,1172
CVOE updated,1,1,4,11,P 57,Letter,Y,TRUE,CV,q,q,2877
CVOE updated,1,1,4,12,D 88,Number,Y,FALSE,OE,p,p,1027
CVOE updated,1,1,4,13,O 89,Letter,Y,FALSE,CV,p,p,5851
CVOE updated,1,1,4,14,U 43,Number,Y,FALSE,OE,q,q,1175
CVOE updated,1,1,4,15,H 10,Number,N,FALSE,OE,q,p,1280
CVOE updated,1,1,4,16,S 07,Letter,Y,TRUE,CV,q,q,5824
CVOE updated,1,1,4,17,J 10,Letter,N,FALSE,CV,q,q,3833
CVOE updated,1,1,4,18,H 54,Number,Y,FALSE,OE,p,p,2301
CVOE updated,1,1,4,19,E 99,Number,N,FALSE,OE,q,q,1059
CVOE updated,1,1,4,20,J 36,Letter,Y,FALSE,CV,q,q,783
CVOE updated,1,1,4,21,I 94,Letter,N,TRUE,CV,p,p,817
CVOE updated,1,1,4,22,A 82,Letter,N,TRUE,CV,q,p,726
CVOE updated,1,1,4,23,H 79,Number,Y,TRUE,OE,q,q,1530
CVOE updated,1,1,4,24,J 60,Number,N,FALSE,OE,p,p,1129
CVOE updated,1,1,4,25,S 28,Letter,Y,FALSE,CV,q,q,1179
CVOE updated,1,1,4,26,P 11,Number,Y,TRUE,OE,q,q,1071
CVOE updated,1,1,4,27,D 39,Number,N,TRUE,OE,q,q,1155
CVOE updated,1,1,4,28,E 90,Number,N,TRUE,OE,p,p,981
CVOE updated,1,1,4,29,I 38,Number,N,TRUE,OE,p,p,963
CVOE updated,1,1,4,30,S 35,Letter,Y,TRUE,CV,q,q,1658
CVOE updated,1,1,4,31,D 41,Number,Y,TRUE,OE,q,q,973
CVOE updated,1,1,4,32,E 06,Number,N,TRUE,OE,p,p,1234
CVOE updated,1,1,4,33,A 27,Number,N,FALSE,OE,q,q,1374
CVOE updated,1,1,4,34,U 95,Letter,Y,FALSE,CV,p,p,938
CVOE updated,1,1,4,35,A 53,Letter,N,FALSE,CV,p,p,4786
CVOE updated,1,1,4,36,E 43,Letter,N,FALSE,CV,p,p,1022
CVOE updated,1,1,4,37,P 05,Number,Y,TRUE,OE,q,q,979
CVOE updated,1,1,4,38,O 19,Letter,Y,FALSE,CV,p,p,1300
CVOE updated,1,1,4,39,I 96,Number,Y,TRUE,OE,p,p,1439
CVOE updated,1,1,4,40,A 88,Number,N,TRUE,OE,p,p,864
CVOE updated,1,1,4,41,I 67,Number,N,FALSE,OE,q,q,905
CVOE updated,1,1,4,42,D 40,Number,N,FALSE,OE,p,p,1213
CVOE updated,1,1,4,43,P 79,Letter,Y,TRUE,CV,q,q,1144
CVOE updated,1,1,4,44,U 24,Number,Y,TRUE,OE,p,p,858
CVOE updated,1,1,4,45,P 74,Number,N,FALSE,OE,p,p,926
CVOE updated,1,1,4,46,E 70,Number,N,TRUE,OE,p,p,1649
CVOE updated,1,1,4,47,S 27,Number,N,TRUE,OE,q,q,2335
CVOE updated,1,1,4,48,E 54,Letter,Y,TRUE,CV,p,p,1254
CVOE updated,1,1,4,49,A 53,Letter,N,FALSE,CV,p,p,1707
CVOE updated,1,1,4,50,P 34,Letter,N,FALSE,CV,q,q,1039
CVOE updated,1,1,4,51,D 74,Number,Y,FALSE,OE,p,p,985
CVOE updated,1,1,4,52,A 03,Letter,Y,FALSE,CV,p,p,1161
CVOE updated,1,1,4,53,E 24,Number,Y,TRUE,OE,p,p,2948
CVOE updated,1,1,4,54,I 58,Letter,Y,TRUE,CV,p,p,1091
CVOE updated,1,1,4,55,D 77,Number,Y,TRUE,OE,q,q,2110
CVOE updated,1,1,4,56,S 75,Number,N,TRUE,OE,q,q,918
CVOE updated,1,1,4,57,I 20,Letter,Y,TRUE,CV,p,p,710
CVOE updated,1,1,4,58,J 52,Letter,N,FALSE,CV,q,q,975
CVOE updated,1,1,4,59,A 38,Number,Y,TRUE,OE,p,p,1220
CVOE updated,1,1,4,60,I 60,Letter,Y,TRUE,CV,p,p,2420
CVOE updated,1,1,4,61,S 51,Number,Y,TRUE,OE,q,q,1665
CVOE updated,1,1,4,62,D 63,Letter,Y,TRUE,CV,q,q,2185
CVOE updated,1,1,4,63,U 27,Letter,N,FALSE,CV,p,p,6219
CVOE updated,1,1,4,64,J 77,Letter,N,TRUE,CV,q,q,1186
CVOE updated,1,1,4,65,O 15,Number,Y,FALSE,OE,q,q,1133
CVOE updated,1,1,4,66,J 20,Letter,Y,FALSE,CV,q,q,1726
CVOE updated,1,1,4,67,U 97,Number,Y,FALSE,OE,q,q,6335
CVOE updated,1,1,4,68,H 03,Number,N,TRUE,OE,q,q,1239
CVOE updated,1,1,4,69,O 04,Letter,Y,TRUE,CV,p,p,1319
CVOE updated,1,1,4,70,E 10,Letter,N,TRUE,CV,q,p,3155
CVOE updated,1,1,4,71,I 52,Letter,N,TRUE,CV,p,p,1806
CVOE updated,1,1,4,72,H 81,Number,Y,TRUE,OE,q,q,6920
CVOE updated,1,1,4,73,I 41,Number,N,FALSE,OE,q,q,1291
CVOE updated,1,1,4,74,U 19,Letter,Y,FALSE,CV,p,p,647
CVOE updated,1,1,4,75,O 17,Number,Y,FALSE,OE,q,q,824
CVOE updated,1,1,4,76,A 10,Number,N,TRUE,OE,q,p,4511
CVOE updated,1,1,4,77,P 93,Letter,Y,TRUE,CV,q,q,869
CVOE updated,1,1,4,78,E 59,Letter,N,FALSE,CV,p,p,798
CVOE updated,1,1,4,79,O 53,Letter,N,FALSE,CV,p,p,879
CVOE updated,1,1,4,80,A 96,Letter,N,TRUE,CV,p,p,485
CVOE updated,1,1,4,81,H 36,Letter,Y,FALSE,CV,q,q,579
CVOE updated,1,1,4,82,A 63,Letter,N,FALSE,CV,p,p,678
CVOE updated,1,1,4,83,I 38,Letter,N,TRUE,CV,p,p,718
CVOE updated,1,1,4,84,O 51,Number,Y,FALSE,OE,p,q,1197
CVOE updated,1,1,4,85,J 26,Number,N,FALSE,OE,p,p,2397
CVOE updated,1,1,4,86,S 34,Letter,Y,FALSE,CV,q,q,1180
CVOE updated,1,1,4,87,U 85,Number,Y,FALSE,OE,q,q,1321
CVOE updated,1,1,4,88,J 77,Number,N,TRUE,OE,p,q,838
CVOE updated,1,1,4,89,I 73,Letter,Y,FALSE,CV,q,p,878
CVOE updated,1,1,4,90,H 46,Number,Y,FALSE,OE,p,p,1878
CVOE updated,1,1,4,91,D 04,Number,N,FALSE,OE,p,p,708
CVOE updated,1,1,4,92,P 72,Letter,Y,FALSE,CV,q,q,1689
CVOE updated,1,1,4,93,D 99,Number,Y,TRUE,OE,q,q,1797
CVOE updated,1,1,4,94,U 25,Letter,Y,FALSE,CV,p,p,3180
CVOE updated,1,1,4,95,O 32,Letter,N,TRUE,CV,p,p,1867
CVOE updated,1,1,4,96,E 80,Letter,N,TRUE,CV,p,p,2146
CVOE updated,1,1,4,97,O 84,Number,Y,TRUE,OE,p,p,1198
CVOE updated,1,1,4,98,A 78,Number,N,TRUE,OE,p,p,832
CVOE updated,1,1,4,99,S 05,Number,N,TRUE,OE,q,q,743
CVOE updated,1,1,4,100,U 35,Letter,Y,FALSE,CV,p,p,1013
CVOE updated,1,1,4,101,H 14,Letter,N,FALSE,CV,q,q,935
CVOE updated,1,1,4,102,U 15,Number,Y,FALSE,OE,q,q,1025
CVOE updated,1,1,4,103,E 36,Letter,Y,TRUE,CV,p,p,836
CVOE updated,1,1,4,104,P 70,Letter,N,FALSE,CV,q,q,657
CVOE updated,1,1,4,105,O 44,Number,Y,TRUE,OE,p,p,843
CVOE updated,1,1,4,106,S 41,Letter,Y,TRUE,CV,q,q,761
CVOE updated,1,1,4,107,D 83,Letter,N,TRUE,CV,q,q,883
CVOE updated,1,1,4,108,J 39,Letter,N,TRUE,CV,q,q,579
CVOE updated,1,1,4,109,S 22,Number,Y,FALSE,OE,q,p,604
CVOE updated,1,1,4,110,D 89,Letter,Y,TRUE,CV,q,q,1851
CVOE updated,1,1,4,111,P 87,Letter,N,TRUE,CV,q,q,915
CVOE updated,1,1,4,112,H 42,Letter,N,FALSE,CV,q,q,630
CVOE updated,1,1,4,113,S 49,Letter,N,TRUE,CV,q,q,1074
CVOE updated,1,1,4,114,J 20,Number,Y,FALSE,OE,p,p,1095
CVOE updated,1,1,4,115,O 19,Letter,Y,FALSE,CV,q,p,3728
CVOE updated,1,1,4,116,H 50,Letter,N,FALSE,CV,q,q,4138
CVOE updated,1,1,4,117,I 68,Number,Y,TRUE,OE,p,p,2103
CVOE updated,1,1,4,118,J 72,Number,N,FALSE,OE,p,p,4069
CVOE updated,1,1,4,119,O 21,Number,N,FALSE,OE,q,q,831
CVOE updated,1,1,4,120,H 22,Number,N,FALSE,OE,p,p,987
CVOE updated,9,1,1,11,A 71,,,FALSE,CV,p,p,1803
CVOE updated,9,1,1,12,I 66,,,TRUE,CV,p,p,612
CVOE updated,9,1,1,13,S 30,,,FALSE,CV,q,q,487
CVOE updated,9,1,1,14,D 20,,,FALSE,CV,q,q,571
CVOE updated,9,1,1,15,I 31,,,FALSE,CV,p,p,526
CVOE updated,9,1,1,16,P 16,,,FALSE,CV,q,q,590
CVOE updated,9,1,1,17,A 49,,,FALSE,CV,p,p,524
CVOE updated,9,1,1,18,O 64,,,TRUE,CV,p,p,612
CVOE updated,9,1,1,19,D 02,,,FALSE,CV,q,q,471
CVOE updated,9,1,1,20,P 81,,,TRUE,CV,q,q,765
CVOE updated,9,1,1,21,J 58,,,FALSE,CV,q,q,749
CVOE updated,9,1,1,22,A 22,,,TRUE,CV,p,p,475
CVOE updated,9,1,1,23,J 72,,,FALSE,CV,q,q,532
CVOE updated,9,1,1,24,P 91,,,TRUE,CV,q,q,535
CVOE updated,9,1,1,25,E 19,,,FALSE,CV,p,p,450
CVOE updated,9,1,1,26,I 30,,,TRUE,CV,p,p,453
CVOE updated,9,1,1,27,D 91,,,TRUE,CV,q,q,488
CVOE updated,9,1,1,28,O 48,,,TRUE,CV,p,p,531
CVOE updated,9,1,1,29,A 89,,,FALSE,CV,p,p,566
CVOE updated,9,1,1,30,U 11,,,FALSE,CV,p,p,542
CVOE updated,9,1,1,31,I 76,,,TRUE,CV,p,p,420
CVOE updated,9,1,1,32,U 89,,,FALSE,CV,p,p,450
CVOE updated,9,1,1,33,D 63,,,TRUE,CV,q,q,461
CVOE updated,9,1,1,34,H 70,,,FALSE,CV,q,q,475
CVOE updated,9,1,1,35,D 48,,,FALSE,CV,q,q,451
CVOE updated,9,1,1,36,P 56,,,FALSE,CV,q,q,502
CVOE updated,9,1,1,37,O 77,,,FALSE,CV,p,p,444
CVOE updated,9,1,1,38,P 42,,,FALSE,CV,q,q,756
CVOE updated,9,1,1,39,H 22,,,FALSE,CV,q,q,693
CVOE updated,9,1,1,40,E 42,,,TRUE,CV,p,p,344
CVOE updated,9,1,1,41,J 28,,,FALSE,CV,q,q,1029
CVOE updated,9,1,1,42,E 95,,,FALSE,CV,p,p,595
CVOE updated,9,1,1,43,S 63,,,TRUE,CV,q,q,508
CVOE updated,9,1,1,44,H 50,,,FALSE,CV,q,q,449
CVOE updated,9,1,1,45,S 33,,,TRUE,CV,q,q,476
CVOE updated,9,1,1,46,P 57,,,TRUE,CV,q,q,541
CVOE updated,9,1,1,47,E 23,,,FALSE,CV,p,p,459
CVOE updated,9,1,1,48,S 61,,,TRUE,CV,q,q,422
CVOE updated,9,1,1,49,U 67,,,FALSE,CV,p,p,515
CVOE updated,9,1,1,50,H 32,,,FALSE,CV,q,q,540
CVOE updated,9,1,1,51,U 50,,,TRUE,CV,p,p,575
CVOE updated,9,1,1,52,O 49,,,FALSE,CV,p,p,554
CVOE updated,9,1,1,53,U 32,,,TRUE,CV,p,p,530
CVOE updated,9,1,1,54,J 78,,,FALSE,CV,q,q,509
CVOE updated,9,1,1,55,S 54,,,FALSE,CV,q,q,571
CVOE updated,9,1,1,56,J 27,,,TRUE,CV,q,q,550
CVOE updated,9,1,1,57,S 06,,,FALSE,CV,q,q,612
CVOE updated,9,1,1,58,D 67,,,TRUE,CV,q,q,487
CVOE updated,9,1,1,59,A 79,,,FALSE,CV,p,p,482
CVOE updated,9,1,1,60,S 52,,,FALSE,CV,q,q,498
CVOE updated,9,1,1,61,U 16,,,TRUE,CV,p,p,526
CVOE updated,9,1,1,62,O 82,,,TRUE,CV,p,p,430
CVOE updated,9,1,1,63,H 87,,,TRUE,CV,q,q,516
CVOE updated,9,1,1,64,I 32,,,TRUE,CV,p,p,372
CVOE updated,9,1,1,65,U 37,,,FALSE,CV,p,p,455
CVOE updated,9,1,1,66,I 42,,,TRUE,CV,p,p,466
CVOE updated,9,1,1,67,D 65,,,TRUE,CV,q,q,400
CVOE updated,9,1,1,68,U 77,,,FALSE,CV,p,p,472
CVOE updated,9,1,1,69,E 12,,,TRUE,CV,p,p,462
CVOE updated,9,1,1,70,I 60,,,TRUE,CV,p,p,452
CVOE updated,9,1,1,71,J 36,,,FALSE,CV,q,q,423
CVOE updated,9,1,1,72,H 75,,,TRUE,CV,q,q,492
CVOE updated,9,1,1,73,I 50,,,TRUE,CV,p,p,535
CVOE updated,9,1,1,74,E 99,,,FALSE,CV,p,p,450
CVOE updated,9,1,1,75,A 86,,,TRUE,CV,p,p,437
CVOE updated,9,1,1,76,U 48,,,TRUE,CV,p,p,510
CVOE updated,9,1,1,77,E 01,,,FALSE,CV,p,p,484
CVOE updated,9,1,1,78,A 78,,,TRUE,CV,p,p,444
CVOE updated,9,1,1,79,P 60,,,FALSE,CV,q,q,468
CVOE updated,9,1,1,80,E 43,,,FALSE,CV,p,p,458
CVOE updated,9,1,1,81,D 69,,,TRUE,CV,q,q,413
CVOE updated,9,1,1,82,H 11,,,TRUE,CV,q,q,520
CVOE updated,9,1,1,83,P 43,,,TRUE,CV,q,q,1016
CVOE updated,9,1,1,84,O 67,,,FALSE,CV,p,p,484
CVOE updated,9,1,1,85,S 91,,,FALSE,CV,q,q,476
CVOE updated,9,1,1,86,J 68,,,TRUE,CV,q,q,444
CVOE updated,9,1,1,87,S 47,,,FALSE,CV,q,q,501
CVOE updated,9,1,1,88,I 81,,,TRUE,CV,p,p,499
CVOE updated,9,1,1,89,J 39,,,FALSE,CV,q,q,438
CVOE updated,9,1,1,90,A 11,,,TRUE,CV,p,p,526
CVOE updated,9,1,1,91,O 76,,,FALSE,CV,p,p,398
CVOE updated,9,1,1,92,A 62,,,FALSE,CV,p,p,415
CVOE updated,9,1,1,93,O 27,,,TRUE,CV,p,p,394
CVOE updated,9,1,1,94,E 66,,,FALSE,CV,p,p,466
CVOE updated,9,1,1,95,J 62,,,TRUE,CV,q,q,448
CVOE updated,9,1,1,96,H 72,,,TRUE,CV,q,q,507
CVOE updated,9,1,1,97,E 49,,,TRUE,CV,p,p,417
CVOE updated,9,1,1,98,D 52,,,TRUE,CV,q,q,460
CVOE updated,9,1,1,99,H 62,,,TRUE,CV,q,q,383
CVOE updated,9,1,1,100,I 11,,,TRUE,CV,p,p,372
CVOE updated,9,1,1,101,A 98,,,FALSE,CV,p,p,367
CVOE updated,9,1,1,102,H 29,,,FALSE,CV,q,q,426
CVOE updated,9,1,1,103,E 83,,,TRUE,CV,p,p,488
CVOE updated,9,1,1,104,D 43,,,FALSE,CV,q,q,459
CVOE updated,9,1,1,105,P 45,,,TRUE,CV,q,q,502
CVOE updated,9,1,1,106,J 17,,,TRUE,CV,q,q,420
CVOE updated,9,1,2,11,A 24,,,TRUE,OE,p,p,1538
CVOE updated,9,1,2,12,O 83,,,FALSE,OE,q,q,509
CVOE updated,9,1,2,13,H 55,,,TRUE,OE,q,q,502
CVOE updated,9,1,2,14,P 10,,,FALSE,OE,p,p,708
CVOE updated,9,1,2,15,D 30,,,FALSE,OE,p,p,409
CVOE updated,9,1,2,16,U 62,,,TRUE,OE,p,p,516
CVOE updated,9,1,2,17,P 95,,,TRUE,OE,q,q,421
CVOE updated,9,1,2,18,U 06,,,TRUE,OE,p,p,459
CVOE updated,9,1,2,19,E 75,,,FALSE,OE,q,q,446
CVOE updated,9,1,2,20,I 67,,,FALSE,OE,q,q,710
CVOE updated,9,1,2,21,S 13,,,TRUE,OE,q,q,524
CVOE updated,9,1,2,22,P 78,,,FALSE,OE,p,p,612
CVOE updated,9,1,2,23,I 15,,,FALSE,OE,q,q,503
CVOE updated,9,1,2,24,D 27,,,TRUE,OE,p,q,485
CVOE updated,9,1,2,25,O 94,,,TRUE,OE,p,p,701
CVOE updated,9,1,2,26,A 65,,,FALSE,OE,q,q,555
CVOE updated,9,1,2,27,I 42,,,TRUE,OE,p,p,628
CVOE updated,9,1,2,28,E 25,,,FALSE,OE,q,q,505
CVOE updated,9,1,2,29,H 49,,,TRUE,OE,q,q,687
CVOE updated,9,1,2,30,S 18,,,FALSE,OE,p,p,514
CVOE updated,9,1,2,31,H 51,,,TRUE,OE,q,q,563
CVOE updated,9,1,2,32,U 14,,,TRUE,OE,p,p,555
CVOE updated,9,1,2,33,E 02,,,TRUE,OE,p,p,707
CVOE updated,9,1,2,34,J 26,,,FALSE,OE,p,p,409
CVOE updated,9,1,2,35,D 24,,,FALSE,OE,p,p,380
CVOE updated,9,1,2,36,O 50,,,TRUE,OE,p,p,538
CVOE updated,9,1,2,37,U 16,,,TRUE,OE,p,p,565
CVOE updated,9,1,2,38,O 15,,,FALSE,OE,q,q,485
CVOE updated,9,1,2,39,D 32,,,FALSE,OE,p,p,726
CVOE updated,9,1,2,40,S 67,,,TRUE,OE,q,q,470
CVOE updated,9,1,2,41,J 74,,,FALSE,OE,p,p,524
CVOE updated,9,1,2,42,D 92,,,FALSE,OE,p,p,500
CVOE updated,9,1,2,43,A 65,,,FALSE,OE,q,q,546
CVOE updated,9,1,2,44,I 87,,,FALSE,OE,q,q,416
CVOE updated,9,1,2,45,H 61,,,TRUE,OE,q,q,523
CVOE updated,9,1,2,46,E 59,,,FALSE,OE,q,q,483
CVOE updated,9,1,2,47,I 33,,,FALSE,OE,q,q,548
CVOE updated,9,1,2,48,O 90,,,TRUE,OE,p,p,473
CVOE updated,9,1,2,49,U 51,,,FALSE,OE,q,q,535
CVOE updated,9,1,2,50,A 10,,,TRUE,OE,p,p,578
CVOE updated,9,1,2,51,E 50,,,TRUE,OE,p,p,493
CVOE updated,9,1,2,52,D 92,,,FALSE,OE,p,p,416
CVOE updated,9,1,2,53,E 60,,,TRUE,OE,p,p,403
CVOE updated,9,1,2,54,A 95,,,FALSE,OE,q,q,436
CVOE updated,9,1,2,55,E 64,,,TRUE,OE,p,p,828
CVOE updated,9,1,2,56,P 20,,,FALSE,OE,p,p,490
CVOE updated,9,1,2,57,S 06,,,FALSE,OE,p,p,397
CVOE updated,9,1,2,58,P 64,,,FALSE,OE,p,p,581
CVOE updated,9,1,2,59,U 70,,,TRUE,OE,p,p,611
CVOE updated,9,1,2,60,S 16,,,FALSE,OE,p,p,518
CVOE updated,9,1,2,61,E 35,,,FALSE,OE,q,q,599
CVOE updated,9,1,2,62,I 93,,,FALSE,OE,q,q,503
CVOE updated,9,1,2,63,D 63,,,TRUE,OE,q,q,429
CVOE updated,9,1,2,64,U 89,,,FALSE,OE,q,q,562
CVOE updated,9,1,2,65,E 91,,,FALSE,OE,q,q,555
CVOE updated,9,1,2,66,A 12,,,TRUE,OE,p,p,451
CVOE updated,9,1,2,67,P 56,,,FALSE,OE,p,p,606
CVOE updated,9,1,2,68,S 65,,,TRUE,OE,q,q,463
CVOE updated,9,1,2,69,P 07,,,TRUE,OE,p,q,620
CVOE updated,9,1,2,70,I 77,,,FALSE,OE,q,q,1666
CVOE updated,9,1,2,71,J 19,,,TRUE,OE,q,q,464
CVOE updated,9,1,2,72,O 59,,,FALSE,OE,q,q,430
CVOE updated,9,1,2,73,J 15,,,TRUE,OE,q,q,460
CVOE updated,9,1,2,74,I 89,,,FALSE,OE,q,q,391
CVOE updated,9,1,2,75,O 97,,,FALSE,OE,q,q,476
CVOE updated,9,1,2,76,A 92,,,TRUE,OE,p,p,589
CVOE updated,9,1,2,77,J 90,,,FALSE,OE,p,p,387
CVOE updated,9,1,2,78,H 65,,,TRUE,OE,q,q,496
CVOE updated,9,1,2,79,H 17,,,TRUE,OE,q,q,427
CVOE updated,9,1,2,80,S 26,,,FALSE,OE,p,p,529
CVOE updated,9,1,2,81,D 56,,,FALSE,OE,p,p,436
CVOE updated,9,1,2,82,I 91,,,FALSE,OE,q,q,620
CVOE updated,9,1,2,83,J 11,,,TRUE,OE,q,q,626
CVOE updated,9,1,2,84,O 28,,,TRUE,OE,p,p,536
CVOE updated,9,1,2,85,H 29,,,TRUE,OE,q,q,579
CVOE updated,9,1,2,86,J 25,,,TRUE,OE,q,q,574
CVOE updated,9,1,2,87,A 73,,,FALSE,OE,q,q,537
CVOE updated,9,1,2,88,J 63,,,TRUE,OE,q,q,396
CVOE updated,9,1,2,89,U 84,,,TRUE,OE,q,p,445
CVOE updated,9,1,2,90,A 58,,,TRUE,OE,p,p,605
CVOE updated,9,1,2,91,S 43,,,TRUE,OE,q,q,613
CVOE updated,9,1,2,92,H 54,,,FALSE,OE,p,p,601
CVOE updated,9,1,2,93,D 4,,,FALSE,OE,p,p,537
CVOE updated,9,1,2,94,J 75,,,TRUE,OE,q,q,540
CVOE updated,9,1,2,95,D 19,,,TRUE,OE,q,q,559
CVOE updated,9,1,2,96,J 38,,,FALSE,OE,p,p,952
CVOE updated,9,1,2,97,I 56,,,TRUE,OE,p,p,453
CVOE updated,9,1,2,98,P 87,,,TRUE,OE,q,q,504
CVOE updated,9,1,2,99,O 80,,,TRUE,OE,p,p,470
CVOE updated,9,1,2,100,U 60,,,TRUE,OE,p,p,404
CVOE updated,9,1,2,101,P 48,,,FALSE,OE,q,p,484
CVOE updated,9,1,2,102,H 64,,,FALSE,OE,p,p,565
CVOE updated,9,1,2,103,A 13,,,FALSE,OE,q,q,485
CVOE updated,9,1,2,104,H 68,,,FALSE,OE,p,p,597
CVOE updated,9,1,2,105,E 16,,,TRUE,OE,p,p,430
CVOE updated,9,1,2,106,S 71,,,TRUE,OE,q,q,468
CVOE updated,9,1,3,11,A 44,Letter,N,TRUE,CV,p,p,2527
CVOE updated,9,1,3,12,D 94,Letter,N,FALSE,CV,q,q,898
CVOE updated,9,1,3,13,E 75,Number,Y,FALSE,OE,q,p,1238
CVOE updated,9,1,3,14,H 81,Number,N,TRUE,OE,q,p,790
CVOE updated,9,1,3,15,I 64,Letter,Y,TRUE,CV,p,p,908
CVOE updated,9,1,3,16,J 54,Letter,N,FALSE,CV,q,q,794
CVOE updated,9,1,3,17,O 23,Number,Y,FALSE,OE,q,q,1051
CVOE updated,9,1,3,18,P 05,Number,N,TRUE,OE,q,q,782
CVOE updated,9,1,3,19,S 34,Letter,Y,FALSE,CV,q,q,956
CVOE updated,9,1,3,20,U 88,Letter,N,TRUE,CV,p,p,900
CVOE updated,9,1,3,21,A 70,Number,Y,TRUE,OE,p,p,1882
CVOE updated,9,1,3,22,D 12,Number,N,FALSE,OE,p,p,955
CVOE updated,9,1,3,23,E 79,Letter,Y,FALSE,CV,p,p,916
CVOE updated,9,1,3,24,H 72,Letter,N,FALSE,CV,q,q,876
CVOE updated,9,1,3,25,I 41,Number,Y,FALSE,OE,q,q,1141
CVOE updated,9,1,3,26,J 63,Number,N,TRUE,OE,q,q,875
CVOE updated,9,1,3,27,O 03,Letter,Y,FALSE,CV,p,p,1155
CVOE updated,9,1,3,28,P 75,Letter,N,TRUE,CV,q,q,820
CVOE updated,9,1,3,29,S 61,Number,Y,TRUE,OE,q,q,1343
CVOE updated,9,1,3,30,U 28,Number,N,TRUE,OE,p,p,797
CVOE updated,9,1,3,31,A 21,Letter,Y,FALSE,CV,p,p,1374
CVOE updated,9,1,3,32,D 18,Letter,N,FALSE,CV,q,q,1417
CVOE updated,9,1,3,33,E 35,Number,Y,FALSE,OE,q,q,2820
CVOE updated,9,1,3,34,H 62,Number,N,FALSE,OE,p,p,803
CVOE updated,9,1,3,35,I 82,Letter,Y,TRUE,CV,p,p,970
CVOE updated,9,1,3,36,J 78,Letter,N,FALSE,CV,q,q,1199
CVOE updated,9,1,3,37,O 12,Number,Y,TRUE,OE,p,p,1703
CVOE updated,9,1,3,38,P 13,Number,N,TRUE,OE,q,q,2326
CVOE updated,9,1,3,39,S 07,Letter,Y,TRUE,CV,q,q,1863
CVOE updated,9,1,3,40,U 36,Letter,N,TRUE,CV,p,p,1157
CVOE updated,9,1,3,41,A 96,Number,Y,TRUE,OE,p,p,974
CVOE updated,9,1,3,42,D 04,Number,N,FALSE,OE,p,p,713
CVOE updated,9,1,3,43,E 60,Letter,Y,TRUE,CV,p,p,823
CVOE updated,9,1,3,44,H 83,Letter,N,TRUE,CV,q,q,900
CVOE updated,9,1,3,45,I 64,Number,Y,TRUE,OE,p,p,754
CVOE updated,9,1,3,46,J 76,Number,N,FALSE,OE,p,p,907
CVOE updated,9,1,3,47,O 78,Letter,Y,TRUE,CV,p,p,1529
CVOE updated,9,1,3,48,P 09,Letter,N,TRUE,CV,q,q,1164
CVOE updated,9,1,3,49,S 72,Number,Y,FALSE,OE,p,p,1189
CVOE updated,9,1,3,50,U 47,Number,N,FALSE,OE,q,q,1442
CVOE updated,9,1,3,51,A 31,Letter,Y,FALSE,CV,p,p,931
CVOE updated,9,1,3,52,D 96,Letter,N,FALSE,CV,q,q,799
CVOE updated,9,1,3,53,E 40,Number,Y,TRUE,OE,p,p,1223
CVOE updated,9,1,3,54,H 79,Number,N,TRUE,OE,q,q,1229
CVOE updated,9,1,3,55,I 15,Letter,Y,FALSE,CV,p,p,1515
CVOE updated,9,1,3,56,J 07,Letter,N,TRUE,CV,q,q,1188
CVOE updated,9,1,3,57,O 61,Number,Y,FALSE,OE,q,q,970
CVOE updated,9,1,3,58,P 58,Number,N,FALSE,OE,p,p,1260
CVOE updated,9,1,3,59,S 37,Letter,Y,TRUE,CV,q,q,971
CVOE updated,9,1,3,60,U 61,Letter,N,FALSE,CV,p,p,1158
CVOE updated,9,1,3,61,A 17,Number,Y,FALSE,OE,q,q,1087
CVOE updated,9,1,3,62,D 85,Number,N,TRUE,OE,q,q,994
CVOE updated,9,1,3,63,E 20,Letter,Y,TRUE,CV,p,p,1211
CVOE updated,9,1,3,64,H 86,Letter,N,FALSE,CV,q,q,774
CVOE updated,9,1,3,65,I 21,Number,Y,FALSE,OE,q,q,1401
CVOE updated,9,1,3,66,J 29,Number,N,TRUE,OE,q,q,738
CVOE updated,9,1,3,67,O 13,Letter,Y,FALSE,CV,p,p,1173
CVOE updated,9,1,3,68,P 82,Letter,N,FALSE,CV,q,q,3137
CVOE updated,9,1,3,69,S 72,Number,Y,FALSE,OE,p,p,949
CVOE updated,9,1,3,70,U 84,Number,N,TRUE,OE,p,p,795
CVOE updated,9,1,3,71,A 49,Letter,Y,FALSE,CV,p,p,987
CVOE updated,9,1,3,72,D 91,Letter,N,TRUE,CV,q,q,1129
CVOE updated,9,1,3,73,E 99,Number,Y,FALSE,OE,q,q,996
CVOE updated,9,1,3,74,H 16,Number,N,FALSE,OE,p,p,1157
CVOE updated,9,1,3,75,I 45,Letter,Y,FALSE,CV,p,p,750
CVOE updated,9,1,3,76,J 70,Letter,N,FALSE,CV,q,q,1259
CVOE updated,9,1,3,77,O 22,Number,Y,TRUE,OE,p,p,743
CVOE updated,9,1,3,78,P 41,Number,N,TRUE,OE,q,q,844
CVOE updated,9,1,3,79,S 93,Letter,Y,TRUE,CV,q,q,1133
CVOE updated,9,1,3,80,U 70,Letter,N,TRUE,CV,p,p,1808
CVOE updated,9,1,3,81,A 42,Number,Y,TRUE,OE,p,p,860
CVOE updated,9,1,3,82,D 85,Number,N,TRUE,OE,q,q,935
CVOE updated,9,1,3,83,E 68,Letter,Y,TRUE,CV,p,p,794
CVOE updated,9,1,3,84,H 17,Letter,N,TRUE,CV,q,q,818
CVOE updated,9,1,3,85,I 70,Number,Y,TRUE,OE,p,p,758
CVOE updated,9,1,3,86,J 88,Number,N,FALSE,OE,p,p,998
CVOE updated,9,1,3,87,O 32,Letter,Y,TRUE,CV,p,p,1639
CVOE updated,9,1,3,88,P 95,Letter,N,TRUE,CV,q,q,688
CVOE updated,9,1,3,89,S 98,Number,Y,FALSE,OE,p,p,2483
CVOE updated,9,1,3,90,U 37,Number,N,FALSE,OE,q,q,1124
CVOE updated,9,1,3,91,A 56,Letter,Y,TRUE,CV,p,p,749
CVOE updated,9,1,3,92,D 57,Letter,N,TRUE,CV,q,q,947
CVOE updated,9,1,3,93,E 93,Number,Y,FALSE,OE,q,q,944
CVOE updated,9,1,3,94,H 27,Number,N,TRUE,OE,q,q,1078
CVOE updated,9,1,3,95,I 35,Letter,Y,FALSE,CV,p,p,807
CVOE updated,9,1,3,96,J 03,Letter,N,TRUE,CV,q,q,826
CVOE updated,9,1,3,97,O 28,Number,Y,TRUE,OE,p,p,736
CVOE updated,9,1,3,98,P 59,Number,N,TRUE,OE,q,q,971
CVOE updated,9,1,3,99,S 77,Letter,Y,TRUE,CV,q,q,1958
CVOE updated,9,1,3,100,U 05,Letter,N,FALSE,CV,p,p,783
CVOE updated,9,1,3,101,A 56,Number,Y,TRUE,OE,p,p,909
CVOE updated,9,1,3,102,D 01,Number,N,TRUE,OE,q,q,1203
CVOE updated,9,1,3,103,E 02,Letter,Y,TRUE,CV,p,p,1123
CVOE updated,9,1,3,104,H 68,Letter,N,FALSE,CV,q,q,988
CVOE updated,9,1,3,105,I 05,Number,Y,FALSE,OE,q,q,866
CVOE updated,9,1,3,106,J 55,Number,N,TRUE,OE,q,q,1200
CVOE updated,9,1,3,107,O 73,Letter,Y,FALSE,CV,p,p,1897
CVOE updated,9,1,3,108,P 41,Letter,N,TRUE,CV,q,q,2124
CVOE updated,9,1,3,109,S 92,Number,Y,FALSE,OE,p,p,1836
CVOE updated,9,1,3,110,U 34,Number,N,TRUE,OE,p,p,1574
CVOE updated,9,1,3,111,A 09,Letter,Y,FALSE,CV,p,p,905
CVOE updated,9,1,3,112,D 92,Letter,N,FALSE,CV,q,q,1000
CVOE updated,9,1,3,113,E 48,Number,Y,TRUE,OE,p,p,1976
CVOE updated,9,1,3,114,H 76,Number,N,FALSE,OE,p,p,836
CVOE updated,9,1,3,115,I 44,Letter,Y,TRUE,CV,p,p,812
CVOE updated,9,1,3,116,J 67,Letter,N,TRUE,CV,q,q,1022
CVOE updated,9,1,3,117,O 48,Number,Y,TRUE,OE,p,p,1068
CVOE updated,9,1,3,118,P 22,Number,N,FALSE,OE,p,p,1067
CVOE updated,9,1,3,119,S 86,Letter,Y,FALSE,CV,q,q,848
CVOE updated,9,1,3,120,U 35,Letter,N,FALSE,CV,p,p,1476
CVOE updated,9,1,3,121,A 91,Number,Y,FALSE,OE,q,q,836
CVOE updated,9,1,3,122,D 78,Number,N,FALSE,OE,p,p,1206
CVOE updated,9,1,3,123,E 91,Letter,Y,FALSE,CV,p,p,813
CVOE updated,9,1,3,124,H 54,Letter,N,FALSE,CV,q,q,753
CVOE updated,9,1,3,125,I 65,Number,Y,FALSE,OE,q,q,999
CVOE updated,9,1,3,126,J 52,Number,N,FALSE,OE,p,p,895
CVOE updated,9,1,3,127,O 19,Letter,Y,FALSE,CV,q,p,795
CVOE updated,9,1,3,128,P 48,Letter,N,FALSE,CV,q,q,2012
CVOE updated,9,1,3,129,S 45,Number,Y,TRUE,OE,q,q,1647
CVOE updated,9,1,3,130,U 26,Number,N,TRUE,OE,p,p,1811
CVOE updated,9,1,4,1,U 38,Number,N,TRUE,OE,p,p,2025
CVOE updated,9,1,4,2,P 73,Number,N,TRUE,OE,q,q,1150
CVOE updated,9,1,4,3,U 95,Letter,Y,FALSE,CV,p,p,764
CVOE updated,9,1,4,4,J 61,Number,Y,TRUE,OE,q,q,1037
CVOE updated,9,1,4,5,D 51,Number,N,TRUE,OE,q,q,806
CVOE updated,9,1,4,6,S 28,Number,N,FALSE,OE,p,p,943
CVOE updated,9,1,4,7,A 56,Letter,Y,TRUE,CV,p,p,1036
CVOE updated,9,1,4,8,H 78,Letter,N,FALSE,CV,q,q,1108
CVOE updated,9,1,4,9,P 92,Letter,N,FALSE,CV,q,q,1306
CVOE updated,9,1,4,10,E 05,Number,Y,FALSE,OE,q,q,849
CVOE updated,9,1,4,11,P 57,Letter,Y,TRUE,CV,q,q,868
CVOE updated,9,1,4,12,D 88,Number,Y,FALSE,OE,p,p,1146
CVOE updated,9,1,4,13,O 89,Letter,Y,FALSE,CV,p,p,1032
CVOE updated,9,1,4,14,U 43,Number,Y,FALSE,OE,q,q,909
CVOE updated,9,1,4,15,H 10,Number,N,FALSE,OE,p,p,1540
CVOE updated,9,1,4,16,S 07,Letter,Y,TRUE,CV,q,q,873
CVOE updated,9,1,4,17,J 10,Letter,N,FALSE,CV,q,q,1379
CVOE updated,9,1,4,18,H 54,Number,Y,FALSE,OE,p,p,798
CVOE updated,9,1,4,19,E 99,Number,N,FALSE,OE,q,q,927
CVOE updated,9,1,4,20,J 36,Letter,Y,FALSE,CV,q,q,1098
CVOE updated,9,1,4,21,I 94,Letter,N,TRUE,CV,p,p,869
CVOE updated,9,1,4,22,A 82,Letter,N,TRUE,CV,p,p,690
CVOE updated,9,1,4,23,H 79,Number,Y,TRUE,OE,q,q,942
CVOE updated,9,1,4,24,J 60,Number,N,FALSE,OE,p,p,1036
CVOE updated,9,1,4,25,S 28,Letter,Y,FALSE,CV,q,q,916
CVOE updated,9,1,4,26,P 11,Number,Y,TRUE,OE,q,q,900
CVOE updated,9,1,4,27,D 39,Number,N,TRUE,OE,q,q,954
CVOE updated,9,1,4,28,E 90,Number,N,TRUE,OE,p,p,867
CVOE updated,9,1,4,29,I 38,Number,N,TRUE,OE,p,p,1186
CVOE updated,9,1,4,30,S 35,Letter,Y,TRUE,CV,q,q,1168
CVOE updated,9,1,4,31,D 41,Number,Y,TRUE,OE,q,q,1178
CVOE updated,9,1,4,32,E 06,Number,N,TRUE,OE,p,p,862
CVOE updated,9,1,4,33,A 27,Number,N,FALSE,OE,q,q,1036
CVOE updated,9,1,4,34,U 95,Letter,Y,FALSE,CV,p,p,900
CVOE updated,9,1,4,35,A 53,Letter,N,FALSE,CV,p,p,2211
CVOE updated,9,1,4,36,E 43,Letter,N,FALSE,CV,p,p,1333
CVOE updated,9,1,4,37,P 05,Number,Y,TRUE,OE,q,q,1009
CVOE updated,9,1,4,38,O 19,Letter,Y,FALSE,CV,p,p,1476
CVOE updated,9,1,4,39,I 96,Number,Y,TRUE,OE,p,p,997
CVOE updated,9,1,4,40,A 88,Number,N,TRUE,OE,p,p,813
CVOE updated,9,1,4,41,I 67,Number,N,FALSE,OE,q,q,760
CVOE updated,9,1,4,42,D 40,Number,N,FALSE,OE,p,p,665
CVOE updated,9,1,4,43,P 79,Letter,Y,TRUE,CV,q,q,952
CVOE updated,9,1,4,44,U 24,Number,Y,TRUE,OE,p,p,717
CVOE updated,9,1,4,45,P 74,Number,N,FALSE,OE,p,p,1102
CVOE updated,9,1,4,46,E 70,Number,N,TRUE,OE,p,p,660
CVOE updated,9,1,4,47,S 27,Number,N,TRUE,OE,q,q,774
CVOE updated,9,1,4,48,E 54,Letter,Y,TRUE,CV,p,p,777
CVOE updated,9,1,4,49,A 53,Letter,N,FALSE,CV,p,p,789
CVOE updated,9,1,4,50,P 34,Letter,N,FALSE,CV,q,q,770
CVOE updated,9,1,4,51,D 74,Number,Y,FALSE,OE,p,p,1381
CVOE updated,9,1,4,52,A 03,Letter,Y,FALSE,CV,p,p,1373
CVOE updated,9,1,4,53,E 24,Number,Y,TRUE,OE,p,p,759
CVOE updated,9,1,4,54,I 58,Letter,Y,TRUE,CV,p,p,1336
CVOE updated,9,1,4,55,D 77,Number,Y,TRUE,OE,q,q,1683
CVOE updated,9,1,4,56,S 75,Number,N,TRUE,OE,q,q,908
CVOE updated,9,1,4,57,I 20,Letter,Y,TRUE,CV,p,p,833
CVOE updated,9,1,4,58,J 52,Letter,N,FALSE,CV,q,q,803
CVOE updated,9,1,4,59,A 38,Number,Y,TRUE,OE,p,p,1172
CVOE updated,9,1,4,60,I 60,Letter,Y,TRUE,CV,p,p,807
CVOE updated,9,1,4,61,S 51,Number,Y,TRUE,OE,q,q,1191
CVOE updated,9,1,4,62,D 63,Letter,Y,TRUE,CV,q,q,1516
CVOE updated,9,1,4,63,U 27,Letter,N,FALSE,CV,p,p,773
CVOE updated,9,1,4,64,J 77,Letter,N,TRUE,CV,q,q,704
CVOE updated,9,1,4,65,O 15,Number,Y,FALSE,OE,q,q,935
CVOE updated,9,1,4,66,J 20,Letter,Y,FALSE,CV,q,q,897
CVOE updated,9,1,4,67,U 97,Number,Y,FALSE,OE,q,q,860
CVOE updated,9,1,4,68,H 03,Number,N,TRUE,OE,q,q,1067
CVOE updated,9,1,4,69,O 04,Letter,Y,TRUE,CV,p,p,1089
CVOE updated,9,1,4,70,E 10,Letter,N,TRUE,CV,p,p,845
CVOE updated,9,1,4,71,I 52,Letter,N,TRUE,CV,p,p,700
CVOE updated,9,1,4,72,H 81,Number,Y,TRUE,OE,q,q,946
CVOE updated,9,1,4,73,I 41,Number,N,FALSE,OE,q,q,1104
CVOE updated,9,1,4,74,U 19,Letter,Y,FALSE,CV,p,p,1278
CVOE updated,9,1,4,75,O 17,Number,Y,FALSE,OE,q,q,902
CVOE updated,9,1,4,76,A 10,Number,N,TRUE,OE,p,p,1300
CVOE updated,9,1,4,77,P 93,Letter,Y,TRUE,CV,q,q,963
CVOE updated,9,1,4,78,E 59,Letter,N,FALSE,CV,p,p,708
CVOE updated,9,1,4,79,O 53,Letter,N,FALSE,CV,p,p,809
CVOE updated,9,1,4,80,A 96,Letter,N,TRUE,CV,p,p,797
CVOE updated,9,1,4,81,H 36,Letter,Y,FALSE,CV,q,q,717
CVOE updated,9,1,4,82,A 63,Letter,N,FALSE,CV,p,p,725
CVOE updated,9,1,4,83,I 38,Letter,N,TRUE,CV,p,p,654
CVOE updated,9,1,4,84,O 51,Number,Y,FALSE,OE,q,q,1256
CVOE updated,9,1,4,85,J 26,Number,N,FALSE,OE,p,p,1268
CVOE updated,9,1,4,86,S 34,Letter,Y,FALSE,CV,q,q,1171
CVOE updated,9,1,4,87,U 85,Number,Y,FALSE,OE,p,q,734
CVOE updated,9,1,4,88,J 77,Number,N,TRUE,OE,q,q,1641
CVOE updated,9,1,4,89,I 73,Letter,Y,FALSE,CV,q,p,970
CVOE updated,9,1,4,90,H 46,Number,Y,FALSE,OE,p,p,1621
CVOE updated,9,1,4,91,D 04,Number,N,FALSE,OE,p,p,1570
CVOE updated,9,1,4,92,P 72,Letter,Y,FALSE,CV,q,q,1686
CVOE updated,9,1,4,93,D 99,Number,Y,TRUE,OE,q,q,897
CVOE updated,9,1,4,94,U 25,Letter,Y,FALSE,CV,p,p,885
CVOE updated,9,1,4,95,O 32,Letter,N,TRUE,CV,p,p,901
CVOE updated,9,1,4,96,E 80,Letter,N,TRUE,CV,p,p,764
CVOE updated,9,1,4,97,O 84,Number,Y,TRUE,OE,p,p,876
CVOE updated,9,1,4,98,A 78,Number,N,TRUE,OE,p,p,892
CVOE updated,9,1,4,99,S 05,Number,N,TRUE,OE,q,q,776
CVOE updated,9,1,4,100,U 35,Letter,Y,FALSE,CV,p,p,778
CVOE updated,9,1,4,101,H 14,Letter,N,FALSE,CV,q,q,1351
CVOE updated,9,1,4,102,U 15,Number,Y,FALSE,OE,q,q,940
CVOE updated,9,1,4,103,E 36,Letter,Y,TRUE,CV,p,p,1107
CVOE updated,9,1,4,104,P 70,Letter,N,FALSE,CV,q,q,1287
CVOE updated,9,1,4,105,O 44,Number,Y,TRUE,OE,p,p,772
CVOE updated,9,1,4,106,S 41,Letter,Y,TRUE,CV,q,q,1158
CVOE updated,9,1,4,107,D 83,Letter,N,TRUE,CV,q,q,887
CVOE updated,9,1,4,108,J 39,Letter,N,TRUE,CV,q,q,699
CVOE updated,9,1,4,109,S 22,Number,Y,FALSE,OE,p,p,773
CVOE updated,9,1,4,110,D 89,Letter,Y,TRUE,CV,q,q,1689
CVOE updated,9,1,4,111,P 87,Letter,N,TRUE,CV,q,q,749
CVOE updated,9,1,4,112,H 42,Letter,N,FALSE,CV,q,q,705
CVOE updated,9,1,4,113,S 49,Letter,N,TRUE,CV,q,q,1159
CVOE updated,9,1,4,114,J 20,Number,Y,FALSE,OE,p,p,712
CVOE updated,9,1,4,115,O 19,Letter,Y,FALSE,CV,p,p,1478
CVOE updated,9,1,4,116,H 50,Letter,N,FALSE,CV,q,q,998
CVOE updated,9,1,4,117,I 68,Number,Y,TRUE,OE,p,p,767
CVOE updated,9,1,4,118,J 72,Number,N,FALSE,OE,p,p,1170
CVOE updated,9,1,4,119,O 21,Number,N,FALSE,OE,q,q,1623
CVOE updated,9,1,4,120,H 22,Number,N,FALSE,OE,p,p,1604
CVOE_B,10,1,1,11,A 24,,,TRUE,OE,q,p,189
CVOE_B,10,1,1,12,O 83,,,FALSE,OE,q,q,2930
CVOE_B,10,1,1,13,H 55,,,TRUE,OE,q,q,1758
CVOE_B,10,1,1,14,P 10,,,FALSE,OE,p,p,3031
CVOE_B,10,1,1,15,D 30,,,FALSE,OE,p,p,814
CVOE_B,10,1,1,16,U 62,,,TRUE,OE,p,p,753
CVOE_B,10,1,1,17,P 95,,,TRUE,OE,q,q,1271
CVOE_B,10,1,1,18,U 06,,,TRUE,OE,p,p,1621
CVOE_B,10,1,1,19,E 75,,,FALSE,OE,q,q,2779
CVOE_B,10,1,1,20,I 67,,,FALSE,OE,q,q,2255
CVOE_B,10,1,1,21,S 13,,,TRUE,OE,q,q,1227
CVOE_B,10,1,1,22,P 78,,,FALSE,OE,p,p,2528
CVOE_B,10,1,1,23,I 15,,,FALSE,OE,q,q,2588
CVOE_B,10,1,1,24,D 27,,,TRUE,OE,q,q,1827
CVOE_B,10,1,1,25,O 94,,,TRUE,OE,p,p,1089
CVOE_B,10,1,1,26,A 65,,,FALSE,OE,q,q,1037
CVOE_B,10,1,1,27,I 42,,,TRUE,OE,p,p,1709
CVOE_B,10,1,1,28,E 25,,,FALSE,OE,q,q,1500
CVOE_B,10,1,1,29,H 49,,,TRUE,OE,q,q,1239
CVOE_B,10,1,1,30,S 18,,,FALSE,OE,p,p,1664
CVOE_B,10,1,1,31,H 51,,,TRUE,OE,q,q,1062
CVOE_B,10,1,1,32,U 14,,,TRUE,OE,p,p,924
CVOE_B,10,1,1,33,E 02,,,TRUE,OE,p,p,2565
CVOE_B,10,1,1,34,J 26,,,FALSE,OE,p,p,1374
CVOE_B,10,1,1,35,D 24,,,FALSE,OE,p,p,897
CVOE_B,10,1,1,36,O 50,,,TRUE,OE,p,p,6605
CVOE_B,10,1,1,37,U 16,,,TRUE,OE,p,p,4759
CVOE_B,10,1,1,38,O 15,,,FALSE,OE,q,q,3497
CVOE_B,10,1,1,39,D 32,,,FALSE,OE,p,p,821
CVOE_B,10,1,1,40,S 67,,,TRUE,OE,q,q,2307
CVOE_B,10,1,1,41,J 74,,,FALSE,OE,p,p,714
CVOE_B,10,1,1,42,D 92,,,FALSE,OE,p,p,927
CVOE_B,10,1,1,43,A 65,,,FALSE,OE,q,q,2360
CVOE_B,10,1,1,44,I 87,,,FALSE,OE,q,q,833
CVOE_B,10,1,1,45,H 61,,,TRUE,OE,q,q,991
CVOE_B,10,1,1,46,E 59,,,FALSE,OE,q,q,1325
CVOE_B,10,1,1,47,I 33,,,FALSE,OE,q,q,1542
CVOE_B,10,1,1,48,O 90,,,TRUE,OE,p,p,2852
CVOE_B,10,1,1,49,U 51,,,FALSE,OE,q,q,1416
CVOE_B,10,1,1,50,A 10,,,TRUE,OE,p,p,1579
CVOE_B,10,1,1,51,E 50,,,TRUE,OE,p,p,550
CVOE_B,10,1,1,52,D 92,,,FALSE,OE,p,p,2828
CVOE_B,10,1,1,53,E 60,,,TRUE,OE,p,p,3395
CVOE_B,10,1,1,54,A 95,,,FALSE,OE,q,q,4388
CVOE_B,10,1,1,55,E 64,,,TRUE,OE,p,p,1019
CVOE_B,10,1,1,56,P 20,,,FALSE,OE,p,p,3399
CVOE_B,10,1,1,57,S 06,,,FALSE,OE,p,p,1280
CVOE_B,10,1,1,58,P 64,,,FALSE,OE,p,p,673
CVOE_B,10,1,1,59,U 70,,,TRUE,OE,p,p,647
CVOE_B,10,1,1,60,S 16,,,FALSE,OE,p,p,1159
CVOE_B,10,1,1,61,E 35,,,FALSE,OE,q,q,1368
CVOE_B,10,1,1,62,I 93,,,FALSE,OE,q,q,1451
CVOE_B,10,1,1,63,D 63,,,TRUE,OE,q,q,527
CVOE_B,10,1,1,64,U 89,,,FALSE,OE,q,q,1463
CVOE_B,10,1,1,65,E 91,,,FALSE,OE,q,q,1245
CVOE_B,10,1,1,66,A 12,,,TRUE,OE,p,p,10598
CVOE_B,10,1,1,67,P 56,,,FALSE,OE,p,p,866
CVOE_B,10,1,1,68,S 65,,,TRUE,OE,q,q,888
CVOE_B,10,1,1,69,P 07,,,TRUE,OE,q,q,1315
CVOE_B,10,1,1,70,I 77,,,FALSE,OE,q,q,620
CVOE_B,10,1,1,71,J 19,,,TRUE,OE,q,q,671
CVOE_B,10,1,1,72,O 59,,,FALSE,OE,q,q,637
CVOE_B,10,1,1,73,J 15,,,TRUE,OE,q,q,629
CVOE_B,10,1,1,74,I 89,,,FALSE,OE,q,q,715
CVOE_B,10,1,1,75,O 97,,,FALSE,OE,q,q,579
CVOE_B,10,1,1,76,A 92,,,TRUE,OE,p,p,934
CVOE_B,10,1,1,77,J 90,,,FALSE,OE,p,p,2554
CVOE_B,10,1,1,78,H 65,,,TRUE,OE,q,q,1552
CVOE_B,10,1,1,79,H 17,,,TRUE,OE,q,q,686
CVOE_B,10,1,1,80,S 26,,,FALSE,OE,p,p,3775
CVOE_B,10,1,1,81,D 56,,,FALSE,OE,p,p,579
CVOE_B,10,1,1,82,I 91,,,FALSE,OE,q,q,950
CVOE_B,10,1,1,83,J 11,,,TRUE,OE,q,q,708
CVOE_B,10,1,1,84,O 28,,,TRUE,OE,p,p,1426
CVOE_B,10,1,1,85,H 29,,,TRUE,OE,q,q,1008
CVOE_B,10,1,1,86,J 25,,,TRUE,OE,q,q,1459
CVOE_B,10,1,1,87,A 73,,,FALSE,OE,q,q,1078
CVOE_B,10,1,1,88,J 63,,,TRUE,OE,q,q,631
CVOE_B,10,1,1,89,U 84,,,TRUE,OE,p,p,1389
CVOE_B,10,1,1,90,A 58,,,TRUE,OE,p,p,979
CVOE_B,10,1,1,91,S 43,,,TRUE,OE,q,q,1838
CVOE_B,10,1,1,92,H 54,,,FALSE,OE,p,p,759
CVOE_B,10,1,1,93,D 4,,,FALSE,OE,p,p,3199
CVOE_B,10,1,1,94,J 75,,,TRUE,OE,q,q,1609
CVOE_B,10,1,1,95,D 19,,,TRUE,OE,q,q,1156
CVOE_B,10,1,1,96,J 38,,,FALSE,OE,p,p,1157
CVOE_B,10,1,1,97,I 56,,,TRUE,OE,p,p,766
CVOE_B,10,1,1,98,P 87,,,TRUE,OE,q,q,1230
CVOE_B,10,1,1,99,O 80,,,TRUE,OE,p,p,1380
CVOE_B,10,1,1,100,U 60,,,TRUE,OE,p,p,559
CVOE_B,10,1,1,101,P 48,,,FALSE,OE,p,p,4136
CVOE_B,10,1,1,102,H 64,,,FALSE,OE,p,p,684
CVOE_B,10,1,1,103,A 13,,,FALSE,OE,q,q,3189
CVOE_B,10,1,1,104,H 68,,,FALSE,OE,p,p,1908
CVOE_B,10,1,1,105,E 16,,,TRUE,OE,p,p,4114
CVOE_B,10,1,1,106,S 71,,,TRUE,OE,q,q,4204
CVOE_B,10,1,2,11,A 71,,,FALSE,CV,p,p,1228
CVOE_B,10,1,2,12,I 66,,,TRUE,CV,p,p,930
CVOE_B,10,1,2,13,S 30,,,FALSE,CV,q,q,950
CVOE_B,10,1,2,14,D 20,,,FALSE,CV,q,q,643
CVOE_B,10,1,2,15,I 31,,,FALSE,CV,p,p,732
CVOE_B,10,1,2,16,P 16,,,FALSE,CV,q,q,1455
CVOE_B,10,1,2,17,A 49,,,FALSE,CV,p,p,658
CVOE_B,10,1,2,18,O 64,,,TRUE,CV,p,p,758
CVOE_B,10,1,2,19,D 02,,,FALSE,CV,q,q,694
CVOE_B,10,1,2,20,P 81,,,TRUE,CV,p,q,577
CVOE_B,10,1,2,21,J 58,,,FALSE,CV,q,q,1428
CVOE_B,10,1,2,22,A 22,,,TRUE,CV,p,p,610
CVOE_B,10,1,2,23,J 72,,,FALSE,CV,q,q,533
CVOE_B,10,1,2,24,P 91,,,TRUE,CV,q,q,696
CVOE_B,10,1,2,25,E 19,,,FALSE,CV,p,p,780
CVOE_B,10,1,2,26,I 30,,,TRUE,CV,p,p,1223
CVOE_B,10,1,2,27,D 91,,,TRUE,CV,q,q,557
CVOE_B,10,1,2,28,O 48,,,TRUE,CV,p,p,1861
CVOE_B,10,1,2,29,A 89,,,FALSE,CV,p,p,651
CVOE_B,10,1,2,30,U 11,,,FALSE,CV,p,p,822
CVOE_B,10,1,2,31,I 76,,,TRUE,CV,p,p,652
CVOE_B,10,1,2,32,U 89,,,FALSE,CV,p,p,815
CVOE_B,10,1,2,33,D 63,,,TRUE,CV,q,q,603
CVOE_B,10,1,2,34,H 70,,,FALSE,CV,q,q,731
CVOE_B,10,1,2,35,D 48,,,FALSE,CV,q,q,630
CVOE_B,10,1,2,36,P 56,,,FALSE,CV,q,q,404
CVOE_B,10,1,2,37,O 77,,,FALSE,CV,p,p,948
CVOE_B,10,1,2,38,P 42,,,FALSE,CV,q,q,674
CVOE_B,10,1,2,39,H 22,,,FALSE,CV,q,q,1475
CVOE_B,10,1,2,40,E 42,,,TRUE,CV,p,p,555
CVOE_B,10,1,2,41,J 28,,,FALSE,CV,q,q,460
CVOE_B,10,1,2,42,E 95,,,FALSE,CV,p,p,679
CVOE_B,10,1,2,43,S 63,,,TRUE,CV,q,q,335
CVOE_B,10,1,2,44,H 50,,,FALSE,CV,q,q,554
CVOE_B,10,1,2,45,S 33,,,TRUE,CV,q,q,579
CVOE_B,10,1,2,46,P 57,,,TRUE,CV,q,q,574
CVOE_B,10,1,2,47,E 23,,,FALSE,CV,p,p,601
CVOE_B,10,1,2,48,S 61,,,TRUE,CV,q,q,697
CVOE_B,10,1,2,49,U 67,,,FALSE,CV,p,p,700
CVOE_B,10,1,2,50,H 32,,,FALSE,CV,q,q,600
CVOE_B,10,1,2,51,U 50,,,TRUE,CV,p,p,336
CVOE_B,10,1,2,52,O 49,,,FALSE,CV,p,p,1555
CVOE_B,10,1,2,53,U 32,,,TRUE,CV,p,p,580
CVOE_B,10,1,2,54,J 78,,,FALSE,CV,q,q,623
CVOE_B,10,1,2,55,S 54,,,FALSE,CV,q,q,613
CVOE_B,10,1,2,56,J 27,,,TRUE,CV,q,q,608
CVOE_B,10,1,2,57,S 06,,,FALSE,CV,q,q,1251
CVOE_B,10,1,2,58,D 67,,,TRUE,CV,q,q,1094
CVOE_B,10,1,2,59,A 79,,,FALSE,CV,p,p,513
CVOE_B,10,1,2,60,S 52,,,FALSE,CV,q,q,535
CVOE_B,10,1,2,61,U 16,,,TRUE,CV,p,p,1610
CVOE_B,10,1,2,62,O 82,,,TRUE,CV,p,p,1174
CVOE_B,10,1,2,63,H 87,,,TRUE,CV,q,q,801
CVOE_B,10,1,2,64,I 32,,,TRUE,CV,p,p,489
CVOE_B,10,1,2,65,U 37,,,FALSE,CV,p,p,541
CVOE_B,10,1,2,66,I 42,,,TRUE,CV,p,p,522
CVOE_B,10,1,2,67,D 65,,,TRUE,CV,q,q,939
CVOE_B,10,1,2,68,U 77,,,FALSE,CV,p,p,2078
CVOE_B,10,1,2,69,E 12,,,TRUE,CV,p,p,439
CVOE_B,10,1,2,70,I 60,,,TRUE,CV,p,p,375
CVOE_B,10,1,2,71,J 36,,,FALSE,CV,q,q,586
CVOE_B,10,1,2,72,H 75,,,TRUE,CV,q,q,640
CVOE_B,10,1,2,73,I 50,,,TRUE,CV,p,p,664
CVOE_B,10,1,2,74,E 99,,,FALSE,CV,p,p,2926
CVOE_B,10,1,2,75,A 86,,,TRUE,CV,p,p,720
CVOE_B,10,1,2,76,U 48,,,TRUE,CV,p,p,752
CVOE_B,10,1,2,77,E 01,,,FALSE,CV,p,p,574
CVOE_B,10,1,2,78,A 78,,,TRUE,CV,p,p,409
CVOE_B,10,1,2,79,P 60,,,FALSE,CV,q,q,588
CVOE_B,10,1,2,80,E 43,,,FALSE,CV,p,p,538
CVOE_B,10,1,2,81,D 69,,,TRUE,CV,q,q,1317
CVOE_B,10,1,2,82,H 11,,,TRUE,CV,q,q,637
CVOE_B,10,1,2,83,P 43,,,TRUE,CV,q,q,534
CVOE_B,10,1,2,84,O 67,,,FALSE,CV,p,p,433
CVOE_B,10,1,2,85,S 91,,,FALSE,CV,q,q,599
CVOE_B,10,1,2,86,J 68,,,TRUE,CV,q,q,647
CVOE_B,10,1,2,87,S 47,,,FALSE,CV,q,q,903
CVOE_B,10,1,2,88,I 81,,,TRUE,CV,p,p,629
CVOE_B,10,1,2,89,J 39,,,FALSE,CV,q,q,2691
CVOE_B,10,1,2,90,A 11,,,TRUE,CV,p,p,359
CVOE_B,10,1,2,91,O 76,,,FALSE,CV,p,p,343
CVOE_B,10,1,2,92,A 62,,,FALSE,CV,p,p,629
CVOE_B,10,1,2,93,O 27,,,TRUE,CV,p,p,1347
CVOE_B,10,1,2,94,E 66,,,FALSE,CV,p,p,1249
CVOE_B,10,1,2,95,J 62,,,TRUE,CV,q,q,476
CVOE_B,10,1,2,96,H 72,,,TRUE,CV,q,q,549
CVOE_B,10,1,2,97,E 49,,,TRUE,CV,p,p,762
CVOE_B,10,1,2,98,D 52,,,TRUE,CV,q,q,747
CVOE_B,10,1,2,99,H 62,,,TRUE,CV,q,q,673
CVOE_B,10,1,2,100,I 11,,,TRUE,CV,p,p,1182
CVOE_B,10,1,2,101,A 98,,,FALSE,CV,p,p,580
CVOE_B,10,1,2,102,H 29,,,FALSE,CV,q,q,631
CVOE_B,10,1,2,103,E 83,,,TRUE,CV,p,p,437
CVOE_B,10,1,2,104,D 43,,,FALSE,CV,q,q,694
CVOE_B,10,1,2,105,P 45,,,TRUE,CV,q,q,2057
CVOE_B,10,1,2,106,J 17,,,TRUE,CV,q,q,524
CVOE_B,10,1,3,11,U 38,Number,N,TRUE,OE,p,p,4924
CVOE_B,10,1,3,12,P 73,Number,N,TRUE,OE,q,q,1638
CVOE_B,10,1,3,13,U 95,Letter,Y,FALSE,CV,p,p,3606
CVOE_B,10,1,3,14,J 61,Number,Y,TRUE,OE,q,p,2091
CVOE_B,10,1,3,15,D 51,Number,N,TRUE,OE,q,p,1198
CVOE_B,10,1,3,16,S 28,Number,N,FALSE,OE,p,q,3023
CVOE_B,10,1,3,17,A 56,Letter,Y,TRUE,CV,p,q,1142
CVOE_B,10,1,3,18,H 78,Letter,N,FALSE,CV,q,q,4284
CVOE_B,10,1,3,19,P 92,Letter,N,FALSE,CV,q,q,1181
CVOE_B,10,1,3,20,E 05,Number,Y,FALSE,OE,q,p,4787
CVOE_B,10,1,3,21,P 57,Letter,Y,TRUE,CV,q,p,3403
CVOE_B,10,1,3,22,D 88,Number,Y,FALSE,OE,p,p,3748
CVOE_B,10,1,3,23,O 89,Letter,Y,FALSE,CV,p,p,2171
CVOE_B,10,1,3,24,U 43,Number,Y,FALSE,OE,q,q,6303
CVOE_B,10,1,3,25,H 10,Number,N,FALSE,OE,p,q,4648
CVOE_B,10,1,3,26,S 07,Letter,Y,TRUE,CV,q,q,5339
CVOE_B,10,1,3,27,J 10,Letter,N,FALSE,CV,q,p,5636
CVOE_B,10,1,3,28,H 54,Number,Y,FALSE,OE,p,q,2574
CVOE_B,10,1,3,29,E 99,Number,N,FALSE,OE,q,q,2729
CVOE_B,10,1,3,30,J 36,Letter,Y,FALSE,CV,q,p,2766
CVOE_B,10,1,3,31,I 94,Letter,N,TRUE,CV,p,p,2630
CVOE_B,10,1,3,32,A 82,Letter,N,TRUE,CV,p,q,2350
CVOE_B,10,1,3,33,H 79,Number,Y,TRUE,OE,q,q,7404
CVOE_B,10,1,3,34,J 60,Number,N,FALSE,OE,p,p,3559
CVOE_B,10,1,3,35,S 28,Letter,Y,FALSE,CV,q,p,1809
CVOE_B,10,1,3,36,P 11,Number,Y,TRUE,OE,q,q,3020
CVOE_B,10,1,3,37,D 39,Number,N,TRUE,OE,q,p,3267
CVOE_B,10,1,3,38,E 90,Number,N,TRUE,OE,p,q,1538
CVOE_B,10,1,3,39,I 38,Number,N,TRUE,OE,p,q,1685
CVOE_B,10,1,3,40,S 35,Letter,Y,TRUE,CV,q,p,910
CVOE_B,10,1,3,41,D 41,Number,Y,TRUE,OE,q,p,6460
CVOE_B,10,1,3,42,E 06,Number,N,TRUE,OE,p,p,2476
CVOE_B,10,1,3,43,A 27,Number,N,FALSE,OE,q,p,3317
CVOE_B,10,1,3,44,U 95,Letter,Y,FALSE,CV,p,q,1638
CVOE_B,10,1,3,45,A 53,Letter,N,FALSE,CV,p,p,1207
CVOE_B,10,1,3,46,E 43,Letter,N,FALSE,CV,p,p,1104
CVOE_B,10,1,3,47,P 05,Number,Y,TRUE,OE,q,p,2934
CVOE_B,10,1,3,48,O 19,Letter,Y,FALSE,CV,q,q,3506
CVOE_B,10,1,3,49,I 96,Number,Y,TRUE,OE,p,p,4377
CVOE_B,10,1,3,50,A 88,Number,N,TRUE,OE,p,q,1389
CVOE_B,10,1,3,51,I 67,Number,N,FALSE,OE,q,p,1963
CVOE_B,10,1,3,52,D 40,Number,N,FALSE,OE,p,q,3484
CVOE_B,10,1,3,53,P 79,Letter,Y,TRUE,CV,q,p,2238
CVOE_B,10,1,3,54,U 24,Number,Y,TRUE,OE,p,q,5039
CVOE_B,10,1,3,55,P 74,Number,N,FALSE,OE,p,p,2281
CVOE_B,10,1,3,56,E 70,Number,N,TRUE,OE,p,q,1626
CVOE_B,10,1,3,57,S 27,Number,N,TRUE,OE,q,q,1488
CVOE_B,10,1,3,58,E 54,Letter,Y,TRUE,CV,p,p,1196
CVOE_B,10,1,3,59,A 53,Letter,N,FALSE,CV,p,q,3132
CVOE_B,10,1,3,60,P 34,Letter,N,FALSE,CV,q,p,7544
CVOE_B,10,1,3,61,D 74,Number,Y,FALSE,OE,p,q,1977
CVOE_B,10,1,3,62,A 03,Letter,Y,FALSE,CV,p,q,2148
CVOE_B,10,1,3,63,E 24,Number,Y,TRUE,OE,p,p,3907
CVOE_B,10,1,3,64,I 58,Letter,Y,TRUE,CV,p,q,2426
CVOE_B,10,1,3,65,D 77,Number,Y,TRUE,OE,q,q,2152
CVOE_B,10,1,3,66,S 75,Number,N,TRUE,OE,q,q,4526
CVOE_B,10,1,3,67,I 20,Letter,Y,TRUE,CV,p,p,1379
CVOE_B,10,1,3,68,J 52,Letter,N,FALSE,CV,q,q,4478
CVOE_B,10,1,3,69,A 38,Number,Y,TRUE,OE,p,p,2472
CVOE_B,10,1,3,70,I 60,Letter,Y,TRUE,CV,p,p,4311
CVOE_B,10,1,3,71,S 51,Number,Y,TRUE,OE,q,p,4302
CVOE_B,10,1,3,72,D 63,Letter,Y,TRUE,CV,q,q,3637
CVOE_B,10,1,3,73,U 27,Letter,N,FALSE,CV,p,q,2343
CVOE_B,10,1,3,74,J 77,Letter,N,TRUE,CV,q,p,877
CVOE_B,10,1,3,75,O 15,Number,Y,FALSE,OE,q,p,4622
CVOE_B,10,1,3,76,J 20,Letter,Y,FALSE,CV,q,q,1621
CVOE_B,10,1,3,77,U 97,Number,Y,FALSE,OE,q,p,3579
CVOE_B,10,1,3,78,H 03,Number,N,TRUE,OE,q,q,2719
CVOE_B,10,1,3,79,O 04,Letter,Y,TRUE,CV,p,q,1881
CVOE_B,10,1,3,80,E 10,Letter,N,TRUE,CV,p,p,961
CVOE_B,10,1,3,81,I 52,Letter,N,TRUE,CV,p,p,914
CVOE_B,10,1,3,82,H 81,Number,Y,TRUE,OE,q,q,856
CVOE_B,10,1,3,83,I 41,Number,N,FALSE,OE,q,p,7131
CVOE_B,10,1,3,84,U 19,Letter,Y,FALSE,CV,p,q,6745
CVOE_B,10,1,3,85,O 17,Number,Y,FALSE,OE,q,p,4009
CVOE_B,10,1,3,86,A 10,Number,N,TRUE,OE,p,p,4301
CVOE_B,10,1,3,87,P 93,Letter,Y,TRUE,CV,q,p,1676
CVOE_B,10,1,3,88,E 59,Letter,N,FALSE,CV,p,q,1221
CVOE_B,10,1,3,89,O 53,Letter,N,FALSE,CV,p,p,995
CVOE_B,10,1,3,90,A 96,Letter,N,TRUE,CV,p,q,1852
CVOE_B,10,1,3,91,H 36,Letter,Y,FALSE,CV,q,p,1015
CVOE_B,10,1,3,92,A 63,Letter,N,FALSE,CV,p,q,1210
CVOE_B,10,1,3,93,I 38,Letter,N,TRUE,CV,p,q,1030
CVOE_B,10,1,3,94,O 51,Number,Y,FALSE,OE,q,q,1444
CVOE_B,10,1,3,95,J 26,Number,N,FALSE,OE,p,p,2180
CVOE_B,10,1,3,96,S 34,Letter,Y,FALSE,CV,q,q,2747
CVOE_B,10,1,3,97,U 85,Number,Y,FALSE,OE,q,p,6737
CVOE_B,10,1,3,98,J 77,Number,N,TRUE,OE,q,q,2991
CVOE_B,10,1,3,99,I 73,Letter,Y,FALSE,CV,p,q,3125
CVOE_B,10,1,3,100,H 46,Number,Y,FALSE,OE,p,p,1623
CVOE_B,10,1,3,101,D 04,Number,N,FALSE,OE,p,p,1333
CVOE_B,10,1,3,102,P 72,Letter,Y,FALSE,CV,q,q,1704
CVOE_B,10,1,3,103,D 99,Number,Y,TRUE,OE,q,p,3415
CVOE_B,10,1,3,104,U 25,Letter,Y,FALSE,CV,p,q,3939
CVOE_B,10,1,3,105,O 32,Letter,N,TRUE,CV,p,q,1015
CVOE_B,10,1,3,106,E 80,Letter,N,TRUE,CV,p,q,802
CVOE_B,10,1,3,107,O 84,Number,Y,TRUE,OE,p,p,3195
CVOE_B,10,1,3,108,A 78,Number,N,TRUE,OE,p,q,6340
CVOE_B,10,1,3,109,S 05,Number,N,TRUE,OE,q,p,2060
CVOE_B,10,1,3,110,U 35,Letter,Y,FALSE,CV,p,p,1648
CVOE_B,10,1,3,111,H 14,Letter,N,FALSE,CV,q,p,5435
CVOE_B,10,1,3,112,U 15,Number,Y,FALSE,OE,q,q,3430
CVOE_B,10,1,3,113,E 36,Letter,Y,TRUE,CV,p,p,2028
CVOE_B,10,1,3,114,P 70,Letter,N,FALSE,CV,q,p,899
CVOE_B,10,1,3,115,O 44,Number,Y,TRUE,OE,p,p,1566
CVOE_B,10,1,3,116,S 41,Letter,Y,TRUE,CV,q,q,2823
CVOE_B,10,1,3,117,D 83,Letter,N,TRUE,CV,q,p,3613
CVOE_B,10,1,3,118,J 39,Letter,N,TRUE,CV,q,p,1201
CVOE_B,10,1,3,119,S 22,Number,Y,FALSE,OE,p,q,1658
CVOE_B,10,1,3,120,D 89,Letter,Y,TRUE,CV,q,p,1686
CVOE_B,10,1,3,121,P 87,Letter,N,TRUE,CV,q,q,1206
CVOE_B,10,1,3,122,H 42,Letter,N,FALSE,CV,q,p,903
CVOE_B,10,1,3,123,S 49,Letter,N,TRUE,CV,q,p,829
CVOE_B,10,1,3,124,J 20,Number,Y,FALSE,OE,p,q,3219
CVOE_B,10,1,3,125,O 19,Letter,Y,FALSE,CV,p,q,1671
CVOE_B,10,1,3,126,H 50,Letter,N,FALSE,CV,q,p,837
CVOE_B,10,1,3,127,I 68,Number,Y,TRUE,OE,p,p,3774
CVOE_B,10,1,3,128,J 72,Number,N,FALSE,OE,p,q,2434
CVOE_B,10,1,3,129,O 21,Number,N,FALSE,OE,q,q,2355
CVOE_B,10,1,3,130,H 22,Number,N,FALSE,OE,p,p,2028
CVOE_B,10,1,4,1,A 44,Letter,N,TRUE,CV,p,p,7752
CVOE_B,10,1,4,2,D 94,Letter,N,FALSE,CV,q,q,1291
CVOE_B,10,1,4,3,E 75,Number,Y,FALSE,OE,q,p,4558
CVOE_B,10,1,4,4,H 81,Number,N,TRUE,OE,q,q,3352
CVOE_B,10,1,4,5,I 64,Letter,Y,TRUE,CV,p,q,1415
CVOE_B,10,1,4,6,J 54,Letter,N,FALSE,CV,q,p,1850
CVOE_B,10,1,4,7,O 23,Number,Y,FALSE,OE,q,p,1654
CVOE_B,10,1,4,8,P 05,Number,N,TRUE,OE,q,q,1993
CVOE_B,10,1,4,9,S 34,Letter,Y,FALSE,CV,q,q,2098
CVOE_B,10,1,4,10,U 88,Letter,N,TRUE,CV,p,q,3182
CVOE_B,10,1,4,11,A 70,Number,Y,TRUE,OE,p,q,2133
CVOE_B,10,1,4,12,D 12,Number,N,FALSE,OE,p,p,2392
CVOE_B,10,1,4,13,E 79,Letter,Y,FALSE,CV,p,p,4415
CVOE_B,10,1,4,14,H 72,Letter,N,FALSE,CV,q,q,1155
CVOE_B,10,1,4,15,I 41,Number,Y,FALSE,OE,q,p,1396
CVOE_B,10,1,4,16,J 63,Number,N,TRUE,OE,q,q,1749
CVOE_B,10,1,4,17,O 03,Letter,Y,FALSE,CV,p,q,1419
CVOE_B,10,1,4,18,P 75,Letter,N,TRUE,CV,q,p,2990
CVOE_B,10,1,4,19,S 61,Number,Y,TRUE,OE,q,q,2069
CVOE_B,10,1,4,20,U 28,Number,N,TRUE,OE,p,q,2763
CVOE_B,10,1,4,21,A 21,Letter,Y,FALSE,CV,p,p,1460
CVOE_B,10,1,4,22,D 18,Letter,N,FALSE,CV,q,p,2274
CVOE_B,10,1,4,23,E 35,Number,Y,FALSE,OE,q,q,2732
CVOE_B,10,1,4,24,H 62,Number,N,FALSE,OE,p,p,3031
CVOE_B,10,1,4,25,I 82,Letter,Y,TRUE,CV,p,q,1534
CVOE_B,10,1,4,26,J 78,Letter,N,FALSE,CV,q,q,1490
CVOE_B,10,1,4,27,O 12,Number,Y,TRUE,OE,p,q,3333
CVOE_B,10,1,4,28,P 13,Number,N,TRUE,OE,q,p,6969
CVOE_B,10,1,4,29,S 07,Letter,Y,TRUE,CV,q,p,7823
CVOE_B,10,1,4,30,U 36,Letter,N,TRUE,CV,p,q,887
CVOE_B,10,1,4,31,A 96,Number,Y,TRUE,OE,p,q,4042
CVOE_B,10,1,4,32,D 04,Number,N,FALSE,OE,p,p,1588
CVOE_B,10,1,4,33,E 60,Letter,Y,TRUE,CV,p,q,1218
CVOE_B,10,1,4,34,H 83,Letter,N,TRUE,CV,q,p,1893
CVOE_B,10,1,4,35,I 64,Number,Y,TRUE,OE,p,p,1441
CVOE_B,10,1,4,36,J 76,Number,N,FALSE,OE,p,p,4530
CVOE_B,10,1,4,37,O 78,Letter,Y,TRUE,CV,p,q,2422
CVOE_B,10,1,4,38,P 09,Letter,N,TRUE,CV,q,p,1357
CVOE_B,10,1,4,39,S 72,Number,Y,FALSE,OE,p,p,1542
CVOE_B,10,1,4,40,U 47,Number,N,FALSE,OE,q,p,3364
CVOE_B,10,1,4,41,A 31,Letter,Y,FALSE,CV,p,q,1789
CVOE_B,10,1,4,42,D 96,Letter,N,FALSE,CV,q,p,2147
CVOE_B,10,1,4,43,E 40,Number,Y,TRUE,OE,p,q,2418
CVOE_B,10,1,4,44,H 79,Number,N,TRUE,OE,q,p,2093
CVOE_B,10,1,4,45,I 15,Letter,Y,FALSE,CV,p,p,4105
CVOE_B,10,1,4,46,J 07,Letter,N,TRUE,CV,q,p,1480
CVOE_B,10,1,4,47,O 61,Number,Y,FALSE,OE,q,q,3945
CVOE_B,10,1,4,48,P 58,Number,N,FALSE,OE,p,p,2104
CVOE_B,10,1,4,49,S 37,Letter,Y,TRUE,CV,q,p,2782
CVOE_B,10,1,4,50,U 61,Letter,N,FALSE,CV,p,q,1501
CVOE_B,10,1,4,51,A 17,Number,Y,FALSE,OE,q,p,1531
CVOE_B,10,1,4,52,D 85,Number,N,TRUE,OE,q,p,2126
CVOE_B,10,1,4,53,E 20,Letter,Y,TRUE,CV,p,p,1914
CVOE_B,10,1,4,54,H 86,Letter,N,FALSE,CV,q,p,1027
CVOE_B,10,1,4,55,I 21,Number,Y,FALSE,OE,q,q,2065
CVOE_B,10,1,4,56,J 29,Number,N,TRUE,OE,q,q,2472
CVOE_B,10,1,4,57,O 13,Letter,Y,FALSE,CV,p,p,2551
CVOE_B,10,1,4,58,P 82,Letter,N,FALSE,CV,q,q,4324
CVOE_B,10,1,4,59,S 72,Number,Y,FALSE,OE,p,p,4359
CVOE_B,10,1,4,60,U 84,Number,N,TRUE,OE,p,p,4496
CVOE_B,10,1,4,61,A 49,Letter,Y,FALSE,CV,p,q,1822
CVOE_B,10,1,4,62,D 91,Letter,N,TRUE,CV,q,q,1828
CVOE_B,10,1,4,63,E 99,Number,Y,FALSE,OE,q,p,2202
CVOE_B,10,1,4,64,H 16,Number,N,FALSE,OE,p,q,2963
CVOE_B,10,1,4,65,I 45,Letter,Y,FALSE,CV,p,q,2108
CVOE_B,10,1,4,66,J 70,Letter,N,FALSE,CV,q,q,947
CVOE_B,10,1,4,67,O 22,Number,Y,TRUE,OE,p,q,1673
CVOE_B,10,1,4,68,P 41,Number,N,TRUE,OE,q,q,7847
CVOE_B,10,1,4,69,S 93,Letter,Y,TRUE,CV,q,p,853
CVOE_B,10,1,4,70,U 70,Letter,N,TRUE,CV,p,p,1704
CVOE_B,10,1,4,71,A 42,Number,Y,TRUE,OE,p,p,1782
CVOE_B,10,1,4,72,D 85,Number,N,TRUE,OE,q,q,3948
CVOE_B,10,1,4,73,E 68,Letter,Y,TRUE,CV,p,q,2691
CVOE_B,10,1,4,74,H 17,Letter,N,TRUE,CV,q,p,4031
CVOE_B,10,1,4,75,I 70,Number,Y,TRUE,OE,p,q,1142
CVOE_B,10,1,4,76,J 88,Number,N,FALSE,OE,p,p,1532
CVOE_B,10,1,4,77,O 32,Letter,Y,TRUE,CV,p,q,1399
CVOE_B,10,1,4,78,P 95,Letter,N,TRUE,CV,q,p,1704
CVOE_B,10,1,4,79,S 98,Number,Y,FALSE,OE,p,p,1182
CVOE_B,10,1,4,80,U 37,Number,N,FALSE,OE,q,p,3324
CVOE_B,10,1,4,81,A 56,Letter,Y,TRUE,CV,p,q,2262
CVOE_B,10,1,4,82,D 57,Letter,N,TRUE,CV,q,p,3612
CVOE_B,10,1,4,83,E 93,Number,Y,FALSE,OE,q,p,1648
CVOE_B,10,1,4,84,H 27,Number,N,TRUE,OE,q,q,2412
CVOE_B,10,1,4,85,I 35,Letter,Y,FALSE,CV,p,p,1088
CVOE_B,10,1,4,86,J 03,Letter,N,TRUE,CV,q,q,619
CVOE_B,10,1,4,87,O 28,Number,Y,TRUE,OE,p,q,2094
CVOE_B,10,1,4,88,P 59,Number,N,TRUE,OE,q,q,2818
CVOE_B,10,1,4,89,S 77,Letter,Y,TRUE,CV,q,p,1278
CVOE_B,10,1,4,90,U 05,Letter,N,FALSE,CV,p,p,3622
CVOE_B,10,1,4,91,A 56,Number,Y,TRUE,OE,p,p,2317
CVOE_B,10,1,4,92,D 01,Number,N,TRUE,OE,q,q,3614
CVOE_B,10,1,4,93,E 02,Letter,Y,TRUE,CV,p,q,1491
CVOE_B,10,1,4,94,H 68,Letter,N,FALSE,CV,q,p,1310
CVOE_B,10,1,4,95,I 05,Number,Y,FALSE,OE,q,p,1740
CVOE_B,10,1,4,96,J 55,Number,N,TRUE,OE,q,p,3136
CVOE_B,10,1,4,97,O 73,Letter,Y,FALSE,CV,p,p,4708
CVOE_B,10,1,4,98,P 41,Letter,N,TRUE,CV,q,p,3227
CVOE_B,10,1,4,99,S 92,Number,Y,FALSE,OE,p,q,1658
CVOE_B,10,1,4,100,U 34,Number,N,TRUE,OE,p,p,1525
CVOE_B,10,1,4,101,A 09,Letter,Y,FALSE,CV,p,q,1078
CVOE_B,10,1,4,102,D 92,Letter,N,FALSE,CV,q,q,1839
CVOE_B,10,1,4,103,E 48,Number,Y,TRUE,OE,p,p,1399
CVOE_B,10,1,4,104,H 76,Number,N,FALSE,OE,p,q,6152
CVOE_B,10,1,4,105,I 44,Letter,Y,TRUE,CV,p,p,1691
CVOE_B,10,1,4,106,J 67,Letter,N,TRUE,CV,q,q,886
CVOE_B,10,1,4,107,O 48,Number,Y,TRUE,OE,p,q,1231
CVOE_B,10,1,4,108,P 22,Number,N,FALSE,OE,p,q,1845
CVOE_B,10,1,4,109,S 86,Letter,Y,FALSE,CV,q,p,1326
CVOE_B,10,1,4,110,U 35,Letter,N,FALSE,CV,p,q,894
CVOE_B,10,1,4,111,A 91,Number,Y,FALSE,OE,q,q,1610
CVOE_B,10,1,4,112,D 78,Number,N,FALSE,OE,p,q,1581
CVOE_B,10,1,4,113,E 91,Letter,Y,FALSE,CV,p,q,4419
CVOE_B,10,1,4,114,H 54,Letter,N,FALSE,CV,q,p,1016
CVOE_B,10,1,4,115,I 65,Number,Y,FALSE,OE,p,p,1571
CVOE_B,10,1,4,116,J 52,Number,N,FALSE,OE,p,q,2854
CVOE_B,10,1,4,117,O 19,Letter,Y,FALSE,CV,p,p,3050
CVOE_B,10,1,4,118,P 48,Letter,N,FALSE,CV,q,p,894
CVOE_B,10,1,4,119,S 45,Number,Y,TRUE,OE,q,q,1290
CVOE_B,10,1,4,120,U 26,Number,N,TRUE,OE,p,p,5109
CVOE_B,6,1,1,11,A 24,,,TRUE,OE,p,p,4245
CVOE_B,6,1,1,12,O 83,,,FALSE,OE,q,q,1111
CVOE_B,6,1,1,13,H 55,,,TRUE,OE,q,q,1061
CVOE_B,6,1,1,14,P 10,,,FALSE,OE,p,p,875
CVOE_B,6,1,1,15,D 30,,,FALSE,OE,p,p,964
CVOE_B,6,1,1,16,U 62,,,TRUE,OE,p,p,812
CVOE_B,6,1,1,17,P 95,,,TRUE,OE,q,q,871
CVOE_B,6,1,1,18,U 06,,,TRUE,OE,p,p,693
CVOE_B,6,1,1,19,E 75,,,FALSE,OE,q,q,1136
CVOE_B,6,1,1,20,I 67,,,FALSE,OE,q,q,788
CVOE_B,6,1,1,21,S 13,,,TRUE,OE,q,q,857
CVOE_B,6,1,1,22,P 78,,,FALSE,OE,p,p,693
CVOE_B,6,1,1,23,I 15,,,FALSE,OE,q,q,1664
CVOE_B,6,1,1,24,D 27,,,TRUE,OE,q,q,646
CVOE_B,6,1,1,25,O 94,,,TRUE,OE,p,p,798
CVOE_B,6,1,1,26,A 65,,,FALSE,OE,q,q,2471
CVOE_B,6,1,1,27,I 42,,,TRUE,OE,p,p,1205
CVOE_B,6,1,1,28,E 25,,,FALSE,OE,q,q,758
CVOE_B,6,1,1,29,H 49,,,TRUE,OE,p,q,615
CVOE_B,6,1,1,30,S 18,,,FALSE,OE,p,p,1618
CVOE_B,6,1,1,31,H 51,,,TRUE,OE,q,q,677
CVOE_B,6,1,1,32,U 14,,,TRUE,OE,p,p,1182
CVOE_B,6,1,1,33,E 02,,,TRUE,OE,p,p,884
CVOE_B,6,1,1,34,J 26,,,FALSE,OE,p,p,860
CVOE_B,6,1,1,35,D 24,,,FALSE,OE,p,p,687
CVOE_B,6,1,1,36,O 50,,,TRUE,OE,p,p,1042
CVOE_B,6,1,1,37,U 16,,,TRUE,OE,p,p,587
CVOE_B,6,1,1,38,O 15,,,FALSE,OE,q,q,849
CVOE_B,6,1,1,39,D 32,,,FALSE,OE,p,p,1412
CVOE_B,6,1,1,40,S 67,,,TRUE,OE,q,q,671
CVOE_B,6,1,1,41,J 74,,,FALSE,OE,p,p,1053
CVOE_B,6,1,1,42,D 92,,,FALSE,OE,p,p,1216
CVOE_B,6,1,1,43,A 65,,,FALSE,OE,q,q,644
CVOE_B,6,1,1,44,I 87,,,FALSE,OE,q,q,828
CVOE_B,6,1,1,45,H 61,,,TRUE,OE,q,q,1202
CVOE_B,6,1,1,46,E 59,,,FALSE,OE,q,q,915
CVOE_B,6,1,1,47,I 33,,,FALSE,OE,q,q,827
CVOE_B,6,1,1,48,O 90,,,TRUE,OE,p,p,681
CVOE_B,6,1,1,49,U 51,,,FALSE,OE,q,q,753
CVOE_B,6,1,1,50,A 10,,,TRUE,OE,p,p,575
CVOE_B,6,1,1,51,E 50,,,TRUE,OE,p,p,786
CVOE_B,6,1,1,52,D 92,,,FALSE,OE,p,p,704
CVOE_B,6,1,1,53,E 60,,,TRUE,OE,p,p,630
CVOE_B,6,1,1,54,A 95,,,FALSE,OE,q,q,660
CVOE_B,6,1,1,55,E 64,,,TRUE,OE,p,p,623
CVOE_B,6,1,1,56,P 20,,,FALSE,OE,p,p,613
CVOE_B,6,1,1,57,S 06,,,FALSE,OE,p,p,1080
CVOE_B,6,1,1,58,P 64,,,FALSE,OE,p,p,880
CVOE_B,6,1,1,59,U 70,,,TRUE,OE,p,p,641
CVOE_B,6,1,1,60,S 16,,,FALSE,OE,p,p,649
CVOE_B,6,1,1,61,E 35,,,FALSE,OE,q,q,637
CVOE_B,6,1,1,62,I 93,,,FALSE,OE,q,q,2349
CVOE_B,6,1,1,63,D 63,,,TRUE,OE,q,q,747
CVOE_B,6,1,1,64,U 89,,,FALSE,OE,q,q,929
CVOE_B,6,1,1,65,E 91,,,FALSE,OE,q,q,828
CVOE_B,6,1,1,66,A 12,,,TRUE,OE,p,p,754
CVOE_B,6,1,1,67,P 56,,,FALSE,OE,p,p,835
CVOE_B,6,1,1,68,S 65,,,TRUE,OE,q,q,603
CVOE_B,6,1,1,69,P 07,,,TRUE,OE,q,q,956
CVOE_B,6,1,1,70,I 77,,,FALSE,OE,q,q,820
CVOE_B,6,1,1,71,J 19,,,TRUE,OE,q,q,762
CVOE_B,6,1,1,72,O 59,,,FALSE,OE,q,q,715
CVOE_B,6,1,1,73,J 15,,,TRUE,OE,q,q,651
CVOE_B,6,1,1,74,I 89,,,FALSE,OE,q,q,838
CVOE_B,6,1,1,75,O 97,,,FALSE,OE,q,q,1199
CVOE_B,6,1,1,76,A 92,,,TRUE,OE,p,p,743
CVOE_B,6,1,1,77,J 90,,,FALSE,OE,p,p,645
CVOE_B,6,1,1,78,H 65,,,TRUE,OE,q,q,782
CVOE_B,6,1,1,79,H 17,,,TRUE,OE,q,q,891
CVOE_B,6,1,1,80,S 26,,,FALSE,OE,p,p,775
CVOE_B,6,1,1,81,D 56,,,FALSE,OE,p,p,810
CVOE_B,6,1,1,82,I 91,,,FALSE,OE,q,q,637
CVOE_B,6,1,1,83,J 11,,,TRUE,OE,q,q,749
CVOE_B,6,1,1,84,O 28,,,TRUE,OE,p,p,1307
CVOE_B,6,1,1,85,H 29,,,TRUE,OE,q,q,593
CVOE_B,6,1,1,86,J 25,,,TRUE,OE,q,q,711
CVOE_B,6,1,1,87,A 73,,,FALSE,OE,q,q,877
CVOE_B,6,1,1,88,J 63,,,TRUE,OE,q,q,597
CVOE_B,6,1,1,89,U 84,,,TRUE,OE,p,p,766
CVOE_B,6,1,1,90,A 58,,,TRUE,OE,p,p,846
CVOE_B,6,1,1,91,S 43,,,TRUE,OE,q,q,727
CVOE_B,6,1,1,92,H 54,,,FALSE,OE,p,p,735
CVOE_B,6,1,1,93,D 4,,,FALSE,OE,p,p,1298
CVOE_B,6,1,1,94,J 75,,,TRUE,OE,q,q,982
CVOE_B,6,1,1,95,D 19,,,TRUE,OE,q,q,772
CVOE_B,6,1,1,96,J 38,,,FALSE,OE,p,p,727
CVOE_B,6,1,1,97,I 56,,,TRUE,OE,p,p,1042
CVOE_B,6,1,1,98,P 87,,,TRUE,OE,q,q,651
CVOE_B,6,1,1,99,O 80,,,TRUE,OE,p,p,574
CVOE_B,6,1,1,100,U 60,,,TRUE,OE,p,p,649
CVOE_B,6,1,1,101,P 48,,,FALSE,OE,p,p,604
CVOE_B,6,1,1,102,H 64,,,FALSE,OE,p,p,676
CVOE_B,6,1,1,103,A 13,,,FALSE,OE,q,q,653
CVOE_B,6,1,1,104,H 68,,,FALSE,OE,p,p,768
CVOE_B,6,1,1,105,E 16,,,TRUE,OE,p,p,867
CVOE_B,6,1,1,106,S 71,,,TRUE,OE,q,q,2569
CVOE_B,6,1,2,11,A 71,,,FALSE,CV,p,p,5563
CVOE_B,6,1,2,12,I 66,,,TRUE,CV,p,p,1477
CVOE_B,6,1,2,13,S 30,,,FALSE,CV,q,q,894
CVOE_B,6,1,2,14,D 20,,,FALSE,CV,q,q,1961
CVOE_B,6,1,2,15,I 31,,,FALSE,CV,p,p,978
CVOE_B,6,1,2,16,P 16,,,FALSE,CV,q,q,885
CVOE_B,6,1,2,17,A 49,,,FALSE,CV,p,p,934
CVOE_B,6,1,2,18,O 64,,,TRUE,CV,p,p,721
CVOE_B,6,1,2,19,D 02,,,FALSE,CV,q,q,770
CVOE_B,6,1,2,20,P 81,,,TRUE,CV,q,q,805
CVOE_B,6,1,2,21,J 58,,,FALSE,CV,q,q,749
CVOE_B,6,1,2,22,A 22,,,TRUE,CV,p,p,763
CVOE_B,6,1,2,23,J 72,,,FALSE,CV,q,q,972
CVOE_B,6,1,2,24,P 91,,,TRUE,CV,q,q,1671
CVOE_B,6,1,2,25,E 19,,,FALSE,CV,p,p,773
CVOE_B,6,1,2,26,I 30,,,TRUE,CV,p,p,936
CVOE_B,6,1,2,27,D 91,,,TRUE,CV,q,q,675
CVOE_B,6,1,2,28,O 48,,,TRUE,CV,p,p,892
CVOE_B,6,1,2,29,A 89,,,FALSE,CV,p,p,807
CVOE_B,6,1,2,30,U 11,,,FALSE,CV,p,p,882
CVOE_B,6,1,2,31,I 76,,,TRUE,CV,p,p,715
CVOE_B,6,1,2,32,U 89,,,FALSE,CV,p,p,859
CVOE_B,6,1,2,33,D 63,,,TRUE,CV,q,q,654
CVOE_B,6,1,2,34,H 70,,,FALSE,CV,q,q,1257
CVOE_B,6,1,2,35,D 48,,,FALSE,CV,q,q,1205
CVOE_B,6,1,2,36,P 56,,,FALSE,CV,q,q,1117
CVOE_B,6,1,2,37,O 77,,,FALSE,CV,p,p,606
CVOE_B,6,1,2,38,P 42,,,FALSE,CV,q,q,1230
CVOE_B,6,1,2,39,H 22,,,FALSE,CV,q,q,2244
CVOE_B,6,1,2,40,E 42,,,TRUE,CV,p,p,654
CVOE_B,6,1,2,41,J 28,,,FALSE,CV,q,q,657
CVOE_B,6,1,2,42,E 95,,,FALSE,CV,p,p,604
CVOE_B,6,1,2,43,S 63,,,TRUE,CV,q,q,668
CVOE_B,6,1,2,44,H 50,,,FALSE,CV,q,q,746
CVOE_B,6,1,2,45,S 33,,,TRUE,CV,p,q,696
CVOE_B,6,1,2,46,P 57,,,TRUE,CV,q,q,3707
CVOE_B,6,1,2,47,E 23,,,FALSE,CV,p,p,850
CVOE_B,6,1,2,48,S 61,,,TRUE,CV,q,q,2413
CVOE_B,6,1,2,49,U 67,,,FALSE,CV,p,p,761
CVOE_B,6,1,2,50,H 32,,,FALSE,CV,q,q,913
CVOE_B,6,1,2,51,U 50,,,TRUE,CV,p,p,679
CVOE_B,6,1,2,52,O 49,,,FALSE,CV,p,p,920
CVOE_B,6,1,2,53,U 32,,,TRUE,CV,p,p,688
CVOE_B,6,1,2,54,J 78,,,FALSE,CV,q,q,747
CVOE_B,6,1,2,55,S 54,,,FALSE,CV,q,q,881
CVOE_B,6,1,2,56,J 27,,,TRUE,CV,q,q,762
CVOE_B,6,1,2,57,S 06,,,FALSE,CV,q,q,906
CVOE_B,6,1,2,58,D 67,,,TRUE,CV,q,q,744
CVOE_B,6,1,2,59,A 79,,,FALSE,CV,p,p,766
CVOE_B,6,1,2,60,S 52,,,FALSE,CV,q,q,894
CVOE_B,6,1,2,61,U 16,,,TRUE,CV,p,p,874
CVOE_B,6,1,2,62,O 82,,,TRUE,CV,p,p,1402
CVOE_B,6,1,2,63,H 87,,,TRUE,CV,q,q,779
CVOE_B,6,1,2,64,I 32,,,TRUE,CV,p,p,894
CVOE_B,6,1,2,65,U 37,,,FALSE,CV,p,p,752
CVOE_B,6,1,2,66,I 42,,,TRUE,CV,p,p,2095
CVOE_B,6,1,2,67,D 65,,,TRUE,CV,q,q,875
CVOE_B,6,1,2,68,U 77,,,FALSE,CV,p,p,691
CVOE_B,6,1,2,69,E 12,,,TRUE,CV,p,p,758
CVOE_B,6,1,2,70,I 60,,,TRUE,CV,p,p,783
CVOE_B,6,1,2,71,J 36,,,FALSE,CV,q,q,741
CVOE_B,6,1,2,72,H 75,,,TRUE,CV,q,q,802
CVOE_B,6,1,2,73,I 50,,,TRUE,CV,p,p,675
CVOE_B,6,1,2,74,E 99,,,FALSE,CV,p,p,907
CVOE_B,6,1,2,75,A 86,,,TRUE,CV,p,p,873
CVOE_B,6,1,2,76,U 48,,,TRUE,CV,p,p,791
CVOE_B,6,1,2,77,E 01,,,FALSE,CV,p,p,693
CVOE_B,6,1,2,78,A 78,,,TRUE,CV,p,p,752
CVOE_B,6,1,2,79,P 60,,,FALSE,CV,q,q,814
CVOE_B,6,1,2,80,E 43,,,FALSE,CV,p,p,673
CVOE_B,6,1,2,81,D 69,,,TRUE,CV,q,q,1798
CVOE_B,6,1,2,82,H 11,,,TRUE,CV,q,q,935
CVOE_B,6,1,2,83,P 43,,,TRUE,CV,q,q,955
CVOE_B,6,1,2,84,O 67,,,FALSE,CV,p,p,660
CVOE_B,6,1,2,85,S 91,,,FALSE,CV,q,q,678
CVOE_B,6,1,2,86,J 68,,,TRUE,CV,q,q,1574
CVOE_B,6,1,2,87,S 47,,,FALSE,CV,q,q,499
CVOE_B,6,1,2,88,I 81,,,TRUE,CV,p,p,678
CVOE_B,6,1,2,89,J 39,,,FALSE,CV,q,q,806
CVOE_B,6,1,2,90,A 11,,,TRUE,CV,p,p,663
CVOE_B,6,1,2,91,O 76,,,FALSE,CV,p,p,1491
CVOE_B,6,1,2,92,A 62,,,FALSE,CV,p,p,720
CVOE_B,6,1,2,93,O 27,,,TRUE,CV,p,p,920
CVOE_B,6,1,2,94,E 66,,,FALSE,CV,p,p,641
CVOE_B,6,1,2,95,J 62,,,TRUE,CV,q,q,769
CVOE_B,6,1,2,96,H 72,,,TRUE,CV,q,q,620
CVOE_B,6,1,2,97,E 49,,,TRUE,CV,p,p,530
CVOE_B,6,1,2,98,D 52,,,TRUE,CV,q,q,653
CVOE_B,6,1,2,99,H 62,,,TRUE,CV,q,q,568
CVOE_B,6,1,2,100,I 11,,,TRUE,CV,p,p,660
CVOE_B,6,1,2,101,A 98,,,FALSE,CV,p,p,1054
CVOE_B,6,1,2,102,H 29,,,FALSE,CV,q,q,890
CVOE_B,6,1,2,103,E 83,,,TRUE,CV,p,p,789
CVOE_B,6,1,2,104,D 43,,,FALSE,CV,q,q,1587
CVOE_B,6,1,2,105,P 45,,,TRUE,CV,q,q,681
CVOE_B,6,1,2,106,J 17,,,TRUE,CV,q,q,546
CVOE_B,6,1,3,11,U 38,Number,N,TRUE,OE,p,p,4646
CVOE_B,6,1,3,12,P 73,Number,N,TRUE,OE,q,q,1121
CVOE_B,6,1,3,13,U 95,Letter,Y,FALSE,CV,p,p,1778
CVOE_B,6,1,3,14,J 61,Number,Y,TRUE,OE,q,p,1621
CVOE_B,6,1,3,15,D 51,Number,N,TRUE,OE,q,p,916
CVOE_B,6,1,3,16,S 28,Number,N,FALSE,OE,p,q,956
CVOE_B,6,1,3,17,A 56,Letter,Y,TRUE,CV,p,q,1374
CVOE_B,6,1,3,18,H 78,Letter,N,FALSE,CV,q,q,984
CVOE_B,6,1,3,19,P 92,Letter,N,FALSE,CV,q,q,2967
CVOE_B,6,1,3,20,E 05,Number,Y,FALSE,OE,q,p,2290
CVOE_B,6,1,3,21,P 57,Letter,Y,TRUE,CV,q,p,3191
CVOE_B,6,1,3,22,D 88,Number,Y,FALSE,OE,p,p,1973
CVOE_B,6,1,3,23,O 89,Letter,Y,FALSE,CV,p,p,1641
CVOE_B,6,1,3,24,U 43,Number,Y,FALSE,OE,q,q,3922
CVOE_B,6,1,3,25,H 10,Number,N,FALSE,OE,p,q,2003
CVOE_B,6,1,3,26,S 07,Letter,Y,TRUE,CV,q,q,1532
CVOE_B,6,1,3,27,J 10,Letter,N,FALSE,CV,q,p,984
CVOE_B,6,1,3,28,H 54,Number,Y,FALSE,OE,p,q,2270
CVOE_B,6,1,3,29,E 99,Number,N,FALSE,OE,q,q,1195
CVOE_B,6,1,3,30,J 36,Letter,Y,FALSE,CV,q,p,1493
CVOE_B,6,1,3,31,I 94,Letter,N,TRUE,CV,p,p,1159
CVOE_B,6,1,3,32,A 82,Letter,N,TRUE,CV,p,q,1257
CVOE_B,6,1,3,33,H 79,Number,Y,TRUE,OE,q,q,4355
CVOE_B,6,1,3,34,J 60,Number,N,FALSE,OE,p,p,1173
CVOE_B,6,1,3,35,S 28,Letter,Y,FALSE,CV,q,p,2153
CVOE_B,6,1,3,36,P 11,Number,Y,TRUE,OE,q,q,1282
CVOE_B,6,1,3,37,D 39,Number,N,TRUE,OE,q,p,2114
CVOE_B,6,1,3,38,E 90,Number,N,TRUE,OE,p,q,963
CVOE_B,6,1,3,39,I 38,Number,N,TRUE,OE,p,q,1068
CVOE_B,6,1,3,40,S 35,Letter,Y,TRUE,CV,q,p,1371
CVOE_B,6,1,3,41,D 41,Number,Y,TRUE,OE,q,p,1589
CVOE_B,6,1,3,42,E 06,Number,N,TRUE,OE,p,p,1107
CVOE_B,6,1,3,43,A 27,Number,N,FALSE,OE,q,p,3097
CVOE_B,6,1,3,44,U 95,Letter,Y,FALSE,CV,p,q,2061
CVOE_B,6,1,3,45,A 53,Letter,N,FALSE,CV,p,p,1156
CVOE_B,6,1,3,46,E 43,Letter,N,FALSE,CV,p,p,988
CVOE_B,6,1,3,47,P 05,Number,Y,TRUE,OE,q,p,2403
CVOE_B,6,1,3,48,O 19,Letter,Y,FALSE,CV,p,q,1795
CVOE_B,6,1,3,49,I 96,Number,Y,TRUE,OE,p,p,1557
CVOE_B,6,1,3,50,A 88,Number,N,TRUE,OE,p,q,981
CVOE_B,6,1,3,51,I 67,Number,N,FALSE,OE,q,p,1291
CVOE_B,6,1,3,52,D 40,Number,N,FALSE,OE,p,q,886
CVOE_B,6,1,3,53,P 79,Letter,Y,TRUE,CV,q,p,6633
CVOE_B,6,1,3,54,U 24,Number,Y,TRUE,OE,p,q,2140
CVOE_B,6,1,3,55,P 74,Number,N,FALSE,OE,p,p,1212
CVOE_B,6,1,3,56,E 70,Number,N,TRUE,OE,p,q,878
CVOE_B,6,1,3,57,S 27,Number,N,TRUE,OE,q,q,1062
CVOE_B,6,1,3,58,E 54,Letter,Y,TRUE,CV,p,p,1228
CVOE_B,6,1,3,59,A 53,Letter,N,FALSE,CV,p,q,930
CVOE_B,6,1,3,60,P 34,Letter,N,FALSE,CV,q,p,966
CVOE_B,6,1,3,61,D 74,Number,Y,FALSE,OE,p,q,1870
CVOE_B,6,1,3,62,A 03,Letter,Y,FALSE,CV,p,q,1828
CVOE_B,6,1,3,63,E 24,Number,Y,TRUE,OE,p,p,1644
CVOE_B,6,1,3,64,I 58,Letter,Y,TRUE,CV,p,q,1227
CVOE_B,6,1,3,65,D 77,Number,Y,TRUE,OE,q,q,4066
CVOE_B,6,1,3,66,S 75,Number,N,TRUE,OE,q,q,1233
CVOE_B,6,1,3,67,I 20,Letter,Y,TRUE,CV,p,p,1377
CVOE_B,6,1,3,68,J 52,Letter,N,FALSE,CV,q,q,997
CVOE_B,6,1,3,69,A 38,Number,Y,TRUE,OE,p,p,5894
CVOE_B,6,1,3,70,I 60,Letter,Y,TRUE,CV,p,p,2498
CVOE_B,6,1,3,71,S 51,Number,Y,TRUE,OE,q,p,1999
CVOE_B,6,1,3,72,D 63,Letter,Y,TRUE,CV,q,q,2375
CVOE_B,6,1,3,73,U 27,Letter,N,FALSE,CV,p,q,1172
CVOE_B,6,1,3,74,J 77,Letter,N,TRUE,CV,q,p,1799
CVOE_B,6,1,3,75,O 15,Number,Y,FALSE,OE,q,p,1199
CVOE_B,6,1,3,76,J 20,Letter,Y,FALSE,CV,q,q,1400
CVOE_B,6,1,3,77,U 97,Number,Y,FALSE,OE,q,p,4016
CVOE_B,6,1,3,78,H 03,Number,N,TRUE,OE,q,q,1885
CVOE_B,6,1,3,79,O 04,Letter,Y,TRUE,CV,p,q,1999
CVOE_B,6,1,3,80,E 10,Letter,N,TRUE,CV,p,p,1336
CVOE_B,6,1,3,81,I 52,Letter,N,TRUE,CV,p,p,874
CVOE_B,6,1,3,82,H 81,Number,Y,TRUE,OE,q,q,1163
CVOE_B,6,1,3,83,I 41,Number,N,FALSE,OE,q,p,907
CVOE_B,6,1,3,84,U 19,Letter,Y,FALSE,CV,p,q,1601
CVOE_B,6,1,3,85,O 17,Number,Y,FALSE,OE,q,p,2290
CVOE_B,6,1,3,86,A 10,Number,N,TRUE,OE,p,p,1535
CVOE_B,6,1,3,87,P 93,Letter,Y,TRUE,CV,q,p,1905
CVOE_B,6,1,3,88,E 59,Letter,N,FALSE,CV,p,q,2439
CVOE_B,6,1,3,89,O 53,Letter,N,FALSE,CV,q,p,1713
CVOE_B,6,1,3,90,A 96,Letter,N,TRUE,CV,p,q,905
CVOE_B,6,1,3,91,H 36,Letter,Y,FALSE,CV,q,p,847
CVOE_B,6,1,3,92,A 63,Letter,N,FALSE,CV,p,q,866
CVOE_B,6,1,3,93,I 38,Letter,N,TRUE,CV,p,q,1265
CVOE_B,6,1,3,94,O 51,Number,Y,FALSE,OE,q,q,4591
CVOE_B,6,1,3,95,J 26,Number,N,FALSE,OE,p,p,1214
CVOE_B,6,1,3,96,S 34,Letter,Y,FALSE,CV,q,q,1553
CVOE_B,6,1,3,97,U 85,Number,Y,FALSE,OE,q,p,978
CVOE_B,6,1,3,98,J 77,Number,N,TRUE,OE,q,q,933
CVOE_B,6,1,3,99,I 73,Letter,Y,FALSE,CV,p,q,1241
CVOE_B,6,1,3,100,H 46,Number,Y,FALSE,OE,p,p,1289
CVOE_B,6,1,3,101,D 04,Number,N,FALSE,OE,p,p,3028
CVOE_B,6,1,3,102,P 72,Letter,Y,FALSE,CV,q,q,843
CVOE_B,6,1,3,103,D 99,Number,Y,TRUE,OE,q,p,1372
CVOE_B,6,1,3,104,U 25,Letter,Y,FALSE,CV,p,q,1632
CVOE_B,6,1,3,105,O 32,Letter,N,TRUE,CV,p,q,1525
CVOE_B,6,1,3,106,E 80,Letter,N,TRUE,CV,p,q,839
CVOE_B,6,1,3,107,O 84,Number,Y,TRUE,OE,p,p,1239
CVOE_B,6,1,3,108,A 78,Number,N,TRUE,OE,p,q,999
CVOE_B,6,1,3,109,S 05,Number,N,TRUE,OE,q,p,1007
CVOE_B,6,1,3,110,U 35,Letter,Y,FALSE,CV,p,p,3083
CVOE_B,6,1,3,111,H 14,Letter,N,FALSE,CV,q,p,956
CVOE_B,6,1,3,112,U 15,Number,Y,FALSE,OE,q,q,1189
CVOE_B,6,1,3,113,E 36,Letter,Y,TRUE,CV,p,p,955
CVOE_B,6,1,3,114,P 70,Letter,N,FALSE,CV,q,p,923
CVOE_B,6,1,3,115,O 44,Number,Y,TRUE,OE,p,p,1044
CVOE_B,6,1,3,116,S 41,Letter,Y,TRUE,CV,q,q,2509
CVOE_B,6,1,3,117,D 83,Letter,N,TRUE,CV,q,p,1195
CVOE_B,6,1,3,118,J 39,Letter,N,TRUE,CV,q,p,708
CVOE_B,6,1,3,119,S 22,Number,Y,FALSE,OE,p,q,1098
CVOE_B,6,1,3,120,D 89,Letter,Y,TRUE,CV,q,p,885
CVOE_B,6,1,3,121,P 87,Letter,N,TRUE,CV,q,q,1341
CVOE_B,6,1,3,122,H 42,Letter,N,FALSE,CV,q,p,836
CVOE_B,6,1,3,123,S 49,Letter,N,TRUE,CV,q,p,877
CVOE_B,6,1,3,124,J 20,Number,Y,FALSE,OE,p,q,6660
CVOE_B,6,1,3,125,O 19,Letter,Y,FALSE,CV,p,q,2564
CVOE_B,6,1,3,126,H 50,Letter,N,FALSE,CV,q,p,1461
CVOE_B,6,1,3,127,I 68,Number,Y,TRUE,OE,p,p,1205
CVOE_B,6,1,3,128,J 72,Number,N,FALSE,OE,p,q,1101
CVOE_B,6,1,3,129,O 21,Number,N,FALSE,OE,q,q,874
CVOE_B,6,1,3,130,H 22,Number,N,FALSE,OE,p,p,867
CVOE_B,6,1,4,1,A 44,Letter,N,TRUE,CV,p,p,3826
CVOE_B,6,1,4,2,D 94,Letter,N,FALSE,CV,q,q,1457
CVOE_B,6,1,4,3,E 75,Number,Y,FALSE,OE,q,p,2116
CVOE_B,6,1,4,4,H 81,Number,N,TRUE,OE,p,q,997
CVOE_B,6,1,4,5,I 64,Letter,Y,TRUE,CV,p,q,3583
CVOE_B,6,1,4,6,J 54,Letter,N,FALSE,CV,q,p,1149
CVOE_B,6,1,4,7,O 23,Number,Y,FALSE,OE,q,p,1827
CVOE_B,6,1,4,8,P 05,Number,N,TRUE,OE,q,q,993
CVOE_B,6,1,4,9,S 34,Letter,Y,FALSE,CV,q,q,1379
CVOE_B,6,1,4,10,U 88,Letter,N,TRUE,CV,p,q,821
CVOE_B,6,1,4,11,A 70,Number,Y,TRUE,OE,p,q,1348
CVOE_B,6,1,4,12,D 12,Number,N,FALSE,OE,p,p,994
CVOE_B,6,1,4,13,E 79,Letter,Y,FALSE,CV,p,p,2146
CVOE_B,6,1,4,14,H 72,Letter,N,FALSE,CV,q,q,920
CVOE_B,6,1,4,15,I 41,Number,Y,FALSE,OE,q,p,1593
CVOE_B,6,1,4,16,J 63,Number,N,TRUE,OE,q,q,1226
CVOE_B,6,1,4,17,O 03,Letter,Y,FALSE,CV,p,q,1335
CVOE_B,6,1,4,18,P 75,Letter,N,TRUE,CV,p,p,1131
CVOE_B,6,1,4,19,S 61,Number,Y,TRUE,OE,q,q,4775
CVOE_B,6,1,4,20,U 28,Number,N,TRUE,OE,p,q,3220
CVOE_B,6,1,4,21,A 21,Letter,Y,FALSE,CV,p,p,2746
CVOE_B,6,1,4,22,D 18,Letter,N,FALSE,CV,q,p,1033
CVOE_B,6,1,4,23,E 35,Number,Y,FALSE,OE,q,q,1358
CVOE_B,6,1,4,24,H 62,Number,N,FALSE,OE,p,p,1279
CVOE_B,6,1,4,25,I 82,Letter,Y,TRUE,CV,p,q,1128
CVOE_B,6,1,4,26,J 78,Letter,N,FALSE,CV,q,q,947
CVOE_B,6,1,4,27,O 12,Number,Y,TRUE,OE,p,q,1016
CVOE_B,6,1,4,28,P 13,Number,N,TRUE,OE,q,p,988
CVOE_B,6,1,4,29,S 07,Letter,Y,TRUE,CV,q,p,1506
CVOE_B,6,1,4,30,U 36,Letter,N,TRUE,CV,p,q,896
CVOE_B,6,1,4,31,A 96,Number,Y,TRUE,OE,p,q,1907
CVOE_B,6,1,4,32,D 04,Number,N,FALSE,OE,p,p,1201
CVOE_B,6,1,4,33,E 60,Letter,Y,TRUE,CV,p,q,2738
CVOE_B,6,1,4,34,H 83,Letter,N,TRUE,CV,q,p,1126
CVOE_B,6,1,4,35,I 64,Number,Y,TRUE,OE,p,p,1678
CVOE_B,6,1,4,36,J 76,Number,N,FALSE,OE,p,p,1007
CVOE_B,6,1,4,37,O 78,Letter,Y,TRUE,CV,p,q,1402
CVOE_B,6,1,4,38,P 09,Letter,N,TRUE,CV,q,p,955
CVOE_B,6,1,4,39,S 72,Number,Y,FALSE,OE,p,p,1172
CVOE_B,6,1,4,40,U 47,Number,N,FALSE,OE,q,p,1007
CVOE_B,6,1,4,41,A 31,Letter,Y,FALSE,CV,p,q,1794
CVOE_B,6,1,4,42,D 96,Letter,N,FALSE,CV,q,p,1899
CVOE_B,6,1,4,43,E 40,Number,Y,TRUE,OE,p,q,1081
CVOE_B,6,1,4,44,H 79,Number,N,TRUE,OE,q,p,1074
CVOE_B,6,1,4,45,I 15,Letter,Y,FALSE,CV,p,p,1676
CVOE_B,6,1,4,46,J 07,Letter,N,TRUE,CV,q,p,819
CVOE_B,6,1,4,47,O 61,Number,Y,FALSE,OE,q,q,1265
CVOE_B,6,1,4,48,P 58,Number,N,FALSE,OE,p,p,1111
CVOE_B,6,1,4,49,S 37,Letter,Y,TRUE,CV,q,p,1301
CVOE_B,6,1,4,50,U 61,Letter,N,FALSE,CV,p,q,819
CVOE_B,6,1,4,51,A 17,Number,Y,FALSE,OE,q,p,1265
CVOE_B,6,1,4,52,D 85,Number,N,TRUE,OE,q,p,2159
CVOE_B,6,1,4,53,E 20,Letter,Y,TRUE,CV,p,p,2000
CVOE_B,6,1,4,54,H 86,Letter,N,FALSE,CV,q,p,1121
CVOE_B,6,1,4,55,I 21,Number,Y,FALSE,OE,q,q,1050
CVOE_B,6,1,4,56,J 29,Number,N,TRUE,OE,q,q,749
CVOE_B,6,1,4,57,O 13,Letter,Y,FALSE,CV,p,p,1731
CVOE_B,6,1,4,58,P 82,Letter,N,FALSE,CV,q,q,878
CVOE_B,6,1,4,59,S 72,Number,Y,FALSE,OE,p,p,1544
CVOE_B,6,1,4,60,U 84,Number,N,TRUE,OE,p,p,1045
CVOE_B,6,1,4,61,A 49,Letter,Y,FALSE,CV,p,q,1567
CVOE_B,6,1,4,62,D 91,Letter,N,TRUE,CV,q,q,1433
CVOE_B,6,1,4,63,E 99,Number,Y,FALSE,OE,q,p,2146
CVOE_B,6,1,4,64,H 16,Number,N,FALSE,OE,p,q,1240
CVOE_B,6,1,4,65,I 45,Letter,Y,FALSE,CV,p,q,1297
CVOE_B,6,1,4,66,J 70,Letter,N,FALSE,CV,q,q,756
CVOE_B,6,1,4,67,O 22,Number,Y,TRUE,OE,p,q,4606
CVOE_B,6,1,4,68,P 41,Number,N,TRUE,OE,q,q,1153
CVOE_B,6,1,4,69,S 93,Letter,Y,TRUE,CV,q,p,1682
CVOE_B,6,1,4,70,U 70,Letter,N,TRUE,CV,p,p,867
CVOE_B,6,1,4,71,A 42,Number,Y,TRUE,OE,p,p,1170
CVOE_B,6,1,4,72,D 85,Number,N,TRUE,OE,q,q,740
CVOE_B,6,1,4,73,E 68,Letter,Y,TRUE,CV,p,q,1178
CVOE_B,6,1,4,74,H 17,Letter,N,TRUE,CV,q,p,1733
CVOE_B,6,1,4,75,I 70,Number,Y,TRUE,OE,p,q,1409
CVOE_B,6,1,4,76,J 88,Number,N,FALSE,OE,p,p,989
CVOE_B,6,1,4,77,O 32,Letter,Y,TRUE,CV,p,q,1674
CVOE_B,6,1,4,78,P 95,Letter,N,TRUE,CV,q,p,1371
CVOE_B,6,1,4,79,S 98,Number,Y,FALSE,OE,p,p,990
CVOE_B,6,1,4,80,U 37,Number,N,FALSE,OE,q,p,1500
CVOE_B,6,1,4,81,A 56,Letter,Y,TRUE,CV,p,q,1250
CVOE_B,6,1,4,82,D 57,Letter,N,TRUE,CV,q,p,862
CVOE_B,6,1,4,83,E 93,Number,Y,FALSE,OE,q,p,1172
CVOE_B,6,1,4,84,H 27,Number,N,TRUE,OE,q,q,944
CVOE_B,6,1,4,85,I 35,Letter,Y,FALSE,CV,p,p,1405
CVOE_B,6,1,4,86,J 03,Letter,N,TRUE,CV,q,q,1261
CVOE_B,6,1,4,87,O 28,Number,Y,TRUE,OE,p,q,5931
CVOE_B,6,1,4,88,P 59,Number,N,TRUE,OE,q,q,1097
CVOE_B,6,1,4,89,S 77,Letter,Y,TRUE,CV,q,p,1348
CVOE_B,6,1,4,90,U 05,Letter,N,FALSE,CV,p,p,826
CVOE_B,6,1,4,91,A 56,Number,Y,TRUE,OE,p,p,1936
CVOE_B,6,1,4,92,D 01,Number,N,TRUE,OE,q,q,1219
CVOE_B,6,1,4,93,E 02,Letter,Y,TRUE,CV,p,q,1313
CVOE_B,6,1,4,94,H 68,Letter,N,FALSE,CV,q,p,754
CVOE_B,6,1,4,95,I 05,Number,Y,FALSE,OE,q,p,1162
CVOE_B,6,1,4,96,J 55,Number,N,TRUE,OE,q,p,979
CVOE_B,6,1,4,97,O 73,Letter,Y,FALSE,CV,p,p,1086
CVOE_B,6,1,4,98,P 41,Letter,N,TRUE,CV,q,p,4650
CVOE_B,6,1,4,99,S 92,Number,Y,FALSE,OE,p,q,1255
CVOE_B,6,1,4,100,U 34,Number,N,TRUE,OE,p,p,1003
CVOE_B,6,1,4,101,A 09,Letter,Y,FALSE,CV,p,q,1170
CVOE_B,6,1,4,102,D 92,Letter,N,FALSE,CV,q,q,886
CVOE_B,6,1,4,103,E 48,Number,Y,TRUE,OE,p,p,1638
CVOE_B,6,1,4,104,H 76,Number,N,FALSE,OE,q,q,864
CVOE_B,6,1,4,105,I 44,Letter,Y,TRUE,CV,p,p,7997
CVOE_B,6,1,4,106,J 67,Letter,N,TRUE,CV,q,q,2208
CVOE_B,6,1,4,107,O 48,Number,Y,TRUE,OE,p,q,2156
CVOE_B,6,1,4,108,P 22,Number,N,FALSE,OE,p,q,981
CVOE_B,6,1,4,109,S 86,Letter,Y,FALSE,CV,q,p,3651
CVOE_B,6,1,4,110,U 35,Letter,N,FALSE,CV,p,q,1864
CVOE_B,6,1,4,111,A 91,Number,Y,FALSE,OE,q,q,1101
CVOE_B,6,1,4,112,D 78,Number,N,FALSE,OE,p,q,1187
CVOE_B,6,1,4,113,E 91,Letter,Y,FALSE,CV,p,q,2225
CVOE_B,6,1,4,114,H 54,Letter,N,FALSE,CV,q,p,3903
CVOE_B,6,1,4,115,I 65,Number,Y,FALSE,OE,q,p,1398
CVOE_B,6,1,4,116,J 52,Number,N,FALSE,OE,p,q,1080
CVOE_B,6,1,4,117,O 19,Letter,Y,FALSE,CV,p,p,1248
CVOE_B,6,1,4,118,P 48,Letter,N,FALSE,CV,q,p,1067
CVOE_B,6,1,4,119,S 45,Number,Y,TRUE,OE,q,q,1049
CVOE_B,6,1,4,120,U 26,Number,N,TRUE,OE,p,p,2004
CVOE_C,11,1,1,11,A 24,,,TRUE,OE,p,p,3894
CVOE_C,11,1,1,12,O 83,,,FALSE,OE,q,q,1922
CVOE_C,11,1,1,13,H 55,,,TRUE,OE,q,q,731
CVOE_C,11,1,1,14,P 10,,,FALSE,OE,p,p,703
CVOE_C,11,1,1,15,D 30,,,FALSE,OE,p,p,628
CVOE_C,11,1,1,16,U 62,,,TRUE,OE,p,p,578
CVOE_C,11,1,1,17,P 95,,,TRUE,OE,q,q,493
CVOE_C,11,1,1,18,U 06,,,TRUE,OE,p,p,456
CVOE_C,11,1,1,19,E 75,,,FALSE,OE,q,q,539
CVOE_C,11,1,1,20,I 67,,,FALSE,OE,q,q,438
CVOE_C,11,1,1,21,S 13,,,TRUE,OE,q,q,511
CVOE_C,11,1,1,22,P 78,,,FALSE,OE,p,p,380
CVOE_C,11,1,1,23,I 15,,,FALSE,OE,q,q,535
CVOE_C,11,1,1,24,D 27,,,TRUE,OE,q,q,538
CVOE_C,11,1,1,25,O 94,,,TRUE,OE,p,p,590
CVOE_C,11,1,1,26,A 65,,,FALSE,OE,q,q,843
CVOE_C,11,1,1,27,I 42,,,TRUE,OE,p,p,572
CVOE_C,11,1,1,28,E 25,,,FALSE,OE,q,q,487
CVOE_C,11,1,1,29,H 49,,,TRUE,OE,q,q,495
CVOE_C,11,1,1,30,S 18,,,FALSE,OE,p,p,554
CVOE_C,11,1,1,31,H 51,,,TRUE,OE,q,q,507
CVOE_C,11,1,1,32,U 14,,,TRUE,OE,p,p,688
CVOE_C,11,1,1,33,E 02,,,TRUE,OE,p,p,532
CVOE_C,11,1,1,34,J 26,,,FALSE,OE,p,p,479
CVOE_C,11,1,1,35,D 24,,,FALSE,OE,p,p,391
CVOE_C,11,1,1,36,O 50,,,TRUE,OE,q,p,413
CVOE_C,11,1,1,37,U 16,,,TRUE,OE,p,p,800
CVOE_C,11,1,1,38,O 15,,,FALSE,OE,q,q,824
CVOE_C,11,1,1,39,D 32,,,FALSE,OE,p,p,678
CVOE_C,11,1,1,40,S 67,,,TRUE,OE,q,q,575
CVOE_C,11,1,1,41,J 74,,,FALSE,OE,p,p,426
CVOE_C,11,1,1,42,D 92,,,FALSE,OE,p,p,639
CVOE_C,11,1,1,43,A 65,,,FALSE,OE,q,q,2808
CVOE_C,11,1,1,44,I 87,,,FALSE,OE,q,q,676
CVOE_C,11,1,1,45,H 61,,,TRUE,OE,q,q,804
CVOE_C,11,1,1,46,E 59,,,FALSE,OE,q,q,581
CVOE_C,11,1,1,47,I 33,,,FALSE,OE,q,q,1570
CVOE_C,11,1,1,48,O 90,,,TRUE,OE,p,p,1670
CVOE_C,11,1,1,49,U 51,,,FALSE,OE,q,q,876
CVOE_C,11,1,1,50,A 10,,,TRUE,OE,p,p,581
CVOE_C,11,1,1,51,E 50,,,TRUE,OE,p,p,402
CVOE_C,11,1,1,52,D 92,,,FALSE,OE,p,p,611
CVOE_C,11,1,1,53,E 60,,,TRUE,OE,p,p,462
CVOE_C,11,1,1,54,A 95,,,FALSE,OE,q,q,731
CVOE_C,11,1,1,55,E 64,,,TRUE,OE,p,p,519
CVOE_C,11,1,1,56,P 20,,,FALSE,OE,p,p,455
CVOE_C,11,1,1,57,S 06,,,FALSE,OE,p,p,434
CVOE_C,11,1,1,58,P 64,,,FALSE,OE,p,p,530
CVOE_C,11,1,1,59,U 70,,,TRUE,OE,p,p,589
CVOE_C,11,1,1,60,S 16,,,FALSE,OE,p,p,539
CVOE_C,11,1,1,61,E 35,,,FALSE,OE,q,q,678
CVOE_C,11,1,1,62,I 93,,,FALSE,OE,q,q,711
CVOE_C,11,1,1,63,D 63,,,TRUE,OE,q,q,1397
CVOE_C,11,1,1,64,U 89,,,FALSE,OE,p,q,1173
CVOE_C,11,1,1,65,E 91,,,FALSE,OE,q,q,1785
CVOE_C,11,1,1,66,A 12,,,TRUE,OE,p,p,575
CVOE_C,11,1,1,67,P 56,,,FALSE,OE,p,p,746
CVOE_C,11,1,1,68,S 65,,,TRUE,OE,q,q,1016
CVOE_C,11,1,1,69,P 07,,,TRUE,OE,q,q,835
CVOE_C,11,1,1,70,I 77,,,FALSE,OE,q,q,587
CVOE_C,11,1,1,71,J 19,,,TRUE,OE,q,q,913
CVOE_C,11,1,1,72,O 59,,,FALSE,OE,q,q,847
CVOE_C,11,1,1,73,J 15,,,TRUE,OE,q,q,954
CVOE_C,11,1,1,74,I 89,,,FALSE,OE,p,q,2099
CVOE_C,11,1,1,75,O 97,,,FALSE,OE,q,q,766
CVOE_C,11,1,1,76,A 92,,,TRUE,OE,p,p,2775
CVOE_C,11,1,1,77,J 90,,,FALSE,OE,p,p,1891
CVOE_C,11,1,1,78,H 65,,,TRUE,OE,q,q,1630
CVOE_C,11,1,1,79,H 17,,,TRUE,OE,q,q,525
CVOE_C,11,1,1,80,S 26,,,FALSE,OE,p,p,613
CVOE_C,11,1,1,81,D 56,,,FALSE,OE,p,p,609
CVOE_C,11,1,1,82,I 91,,,FALSE,OE,q,q,595
CVOE_C,11,1,1,83,J 11,,,TRUE,OE,q,q,1100
CVOE_C,11,1,1,84,O 28,,,TRUE,OE,p,p,591
CVOE_C,11,1,1,85,H 29,,,TRUE,OE,q,q,693
CVOE_C,11,1,1,86,J 25,,,TRUE,OE,q,q,888
CVOE_C,11,1,1,87,A 73,,,FALSE,OE,q,q,507
CVOE_C,11,1,1,88,J 63,,,TRUE,OE,p,q,777
CVOE_C,11,1,1,89,U 84,,,TRUE,OE,p,p,516
CVOE_C,11,1,1,90,A 58,,,TRUE,OE,p,p,572
CVOE_C,11,1,1,91,S 43,,,TRUE,OE,q,q,647
CVOE_C,11,1,1,92,H 54,,,FALSE,OE,p,p,579
CVOE_C,11,1,1,93,D 4,,,FALSE,OE,p,p,789
CVOE_C,11,1,1,94,J 75,,,TRUE,OE,q,q,819
CVOE_C,11,1,1,95,D 19,,,TRUE,OE,q,q,623
CVOE_C,11,1,1,96,J 38,,,FALSE,OE,p,p,596
CVOE_C,11,1,1,97,I 56,,,TRUE,OE,p,p,509
CVOE_C,11,1,1,98,P 87,,,TRUE,OE,q,q,746
CVOE_C,11,1,1,99,O 80,,,TRUE,OE,p,p,528
CVOE_C,11,1,1,100,U 60,,,TRUE,OE,p,p,627
CVOE_C,11,1,1,101,P 48,,,FALSE,OE,p,p,402
CVOE_C,11,1,1,102,H 64,,,FALSE,OE,p,p,513
CVOE_C,11,1,1,103,A 13,,,FALSE,OE,q,q,503
CVOE_C,11,1,1,104,H 68,,,FALSE,OE,p,p,469
CVOE_C,11,1,1,105,E 16,,,TRUE,OE,p,p,467
CVOE_C,11,1,1,106,S 71,,,TRUE,OE,q,q,593
CVOE_C,11,1,2,11,A 71,,,FALSE,CV,p,p,2185
CVOE_C,11,1,2,12,I 66,,,TRUE,CV,p,p,727
CVOE_C,11,1,2,13,S 30,,,FALSE,CV,q,q,575
CVOE_C,11,1,2,14,D 20,,,FALSE,CV,q,q,1930
CVOE_C,11,1,2,15,I 31,,,FALSE,CV,p,p,574
CVOE_C,11,1,2,16,P 16,,,FALSE,CV,q,q,705
CVOE_C,11,1,2,17,A 49,,,FALSE,CV,p,p,775
CVOE_C,11,1,2,18,O 64,,,TRUE,CV,p,p,466
CVOE_C,11,1,2,19,D 02,,,FALSE,CV,q,q,544
CVOE_C,11,1,2,20,P 81,,,TRUE,CV,q,q,870
CVOE_C,11,1,2,21,J 58,,,FALSE,CV,q,q,499
CVOE_C,11,1,2,22,A 22,,,TRUE,CV,p,p,598
CVOE_C,11,1,2,23,J 72,,,FALSE,CV,q,q,559
CVOE_C,11,1,2,24,P 91,,,TRUE,CV,q,q,903
CVOE_C,11,1,2,25,E 19,,,FALSE,CV,p,p,765
CVOE_C,11,1,2,26,I 30,,,TRUE,CV,p,p,398
CVOE_C,11,1,2,27,D 91,,,TRUE,CV,q,q,486
CVOE_C,11,1,2,28,O 48,,,TRUE,CV,p,p,550
CVOE_C,11,1,2,29,A 89,,,FALSE,CV,q,p,556
CVOE_C,11,1,2,30,U 11,,,FALSE,CV,p,p,1045
CVOE_C,11,1,2,31,I 76,,,TRUE,CV,p,p,1189
CVOE_C,11,1,2,32,U 89,,,FALSE,CV,p,p,483
CVOE_C,11,1,2,33,D 63,,,TRUE,CV,q,q,892
CVOE_C,11,1,2,34,H 70,,,FALSE,CV,q,q,495
CVOE_C,11,1,2,35,D 48,,,FALSE,CV,q,q,858
CVOE_C,11,1,2,36,P 56,,,FALSE,CV,q,q,429
CVOE_C,11,1,2,37,O 77,,,FALSE,CV,p,p,859
CVOE_C,11,1,2,38,P 42,,,FALSE,CV,q,q,654
CVOE_C,11,1,2,39,H 22,,,FALSE,CV,q,q,897
CVOE_C,11,1,2,40,E 42,,,TRUE,CV,p,p,564
CVOE_C,11,1,2,41,J 28,,,FALSE,CV,q,q,485
CVOE_C,11,1,2,42,E 95,,,FALSE,CV,p,p,509
CVOE_C,11,1,2,43,S 63,,,TRUE,CV,q,q,387
CVOE_C,11,1,2,44,H 50,,,FALSE,CV,q,q,496
CVOE_C,11,1,2,45,S 33,,,TRUE,CV,q,q,595
CVOE_C,11,1,2,46,P 57,,,TRUE,CV,q,q,460
CVOE_C,11,1,2,47,E 23,,,FALSE,CV,p,p,567
CVOE_C,11,1,2,48,S 61,,,TRUE,CV,q,q,695
CVOE_C,11,1,2,49,U 67,,,FALSE,CV,p,p,490
CVOE_C,11,1,2,50,H 32,,,FALSE,CV,q,q,397
CVOE_C,11,1,2,51,U 50,,,TRUE,CV,p,p,502
CVOE_C,11,1,2,52,O 49,,,FALSE,CV,p,p,619
CVOE_C,11,1,2,53,U 32,,,TRUE,CV,p,p,799
CVOE_C,11,1,2,54,J 78,,,FALSE,CV,q,q,527
CVOE_C,11,1,2,55,S 54,,,FALSE,CV,q,q,831
CVOE_C,11,1,2,56,J 27,,,TRUE,CV,q,q,421
CVOE_C,11,1,2,57,S 06,,,FALSE,CV,q,q,491
CVOE_C,11,1,2,58,D 67,,,TRUE,CV,q,q,446
CVOE_C,11,1,2,59,A 79,,,FALSE,CV,p,p,398
CVOE_C,11,1,2,60,S 52,,,FALSE,CV,q,q,479
CVOE_C,11,1,2,61,U 16,,,TRUE,CV,p,p,503
CVOE_C,11,1,2,62,O 82,,,TRUE,CV,p,p,837
CVOE_C,11,1,2,63,H 87,,,TRUE,CV,q,q,509
CVOE_C,11,1,2,64,I 32,,,TRUE,CV,p,p,451
CVOE_C,11,1,2,65,U 37,,,FALSE,CV,p,p,574
CVOE_C,11,1,2,66,I 42,,,TRUE,CV,p,p,409
CVOE_C,11,1,2,67,D 65,,,TRUE,CV,q,q,420
CVOE_C,11,1,2,68,U 77,,,FALSE,CV,p,p,447
CVOE_C,11,1,2,69,E 12,,,TRUE,CV,q,p,368
CVOE_C,11,1,2,70,I 60,,,TRUE,CV,p,p,544
CVOE_C,11,1,2,71,J 36,,,FALSE,CV,q,q,646
CVOE_C,11,1,2,72,H 75,,,TRUE,CV,q,q,646
CVOE_C,11,1,2,73,I 50,,,TRUE,CV,p,p,1543
CVOE_C,11,1,2,74,E 99,,,FALSE,CV,p,p,381
CVOE_C,11,1,2,75,A 86,,,TRUE,CV,p,p,520
CVOE_C,11,1,2,76,U 48,,,TRUE,CV,p,p,408
CVOE_C,11,1,2,77,E 01,,,FALSE,CV,p,p,763
CVOE_C,11,1,2,78,A 78,,,TRUE,CV,p,p,460
CVOE_C,11,1,2,79,P 60,,,FALSE,CV,q,q,471
CVOE_C,11,1,2,80,E 43,,,FALSE,CV,p,p,428
CVOE_C,11,1,2,81,D 69,,,TRUE,CV,q,q,578
CVOE_C,11,1,2,82,H 11,,,TRUE,CV,q,q,1333
CVOE_C,11,1,2,83,P 43,,,TRUE,CV,q,q,696
CVOE_C,11,1,2,84,O 67,,,FALSE,CV,p,p,460
CVOE_C,11,1,2,85,S 91,,,FALSE,CV,q,q,559
CVOE_C,11,1,2,86,J 68,,,TRUE,CV,q,q,407
CVOE_C,11,1,2,87,S 47,,,FALSE,CV,q,q,367
CVOE_C,11,1,2,88,I 81,,,TRUE,CV,p,p,568
CVOE_C,11,1,2,89,J 39,,,FALSE,CV,q,q,459
CVOE_C,11,1,2,90,A 11,,,TRUE,CV,p,p,502
CVOE_C,11,1,2,91,O 76,,,FALSE,CV,p,p,436
CVOE_C,11,1,2,92,A 62,,,FALSE,CV,p,p,372
CVOE_C,11,1,2,93,O 27,,,TRUE,CV,p,p,407
CVOE_C,11,1,2,94,E 66,,,FALSE,CV,p,p,439
CVOE_C,11,1,2,95,J 62,,,TRUE,CV,q,q,536
CVOE_C,11,1,2,96,H 72,,,TRUE,CV,q,q,483
CVOE_C,11,1,2,97,E 49,,,TRUE,CV,p,p,403
CVOE_C,11,1,2,98,D 52,,,TRUE,CV,q,q,467
CVOE_C,11,1,2,99,H 62,,,TRUE,CV,q,q,809
CVOE_C,11,1,2,100,I 11,,,TRUE,CV,p,p,516
CVOE_C,11,1,2,101,A 98,,,FALSE,CV,p,p,789
CVOE_C,11,1,2,102,H 29,,,FALSE,CV,q,q,507
CVOE_C,11,1,2,103,E 83,,,TRUE,CV,p,p,400
CVOE_C,11,1,2,104,D 43,,,FALSE,CV,q,q,537
CVOE_C,11,1,2,105,P 45,,,TRUE,CV,q,q,572
CVOE_C,11,1,2,106,J 17,,,TRUE,CV,q,q,375
CVOE_C,11,1,3,11,A 44,Letter,N,TRUE,CV,p,p,2642
CVOE_C,11,1,3,12,D 94,Letter,N,FALSE,CV,q,q,780
CVOE_C,11,1,3,13,E 75,Number,Y,FALSE,OE,q,p,1511
CVOE_C,11,1,3,14,H 81,Number,N,TRUE,OE,p,p,4309
CVOE_C,11,1,3,15,I 64,Letter,Y,TRUE,CV,p,p,1972
CVOE_C,11,1,3,16,J 54,Letter,N,FALSE,CV,q,q,1392
CVOE_C,11,1,3,17,O 23,Number,Y,FALSE,OE,q,q,2246
CVOE_C,11,1,3,18,P 05,Number,N,TRUE,OE,q,q,799
CVOE_C,11,1,3,19,S 34,Letter,Y,FALSE,CV,q,q,863
CVOE_C,11,1,3,20,U 88,Letter,N,TRUE,CV,p,p,1109
CVOE_C,11,1,3,21,A 70,Number,Y,TRUE,OE,p,p,3539
CVOE_C,11,1,3,22,D 12,Number,N,FALSE,OE,p,p,1479
CVOE_C,11,1,3,23,E 79,Letter,Y,FALSE,CV,p,p,840
CVOE_C,11,1,3,24,H 72,Letter,N,FALSE,CV,q,q,1081
CVOE_C,11,1,3,25,I 41,Number,Y,FALSE,OE,q,q,1865
CVOE_C,11,1,3,26,J 63,Number,N,TRUE,OE,q,q,2103
CVOE_C,11,1,3,27,O 03,Letter,Y,FALSE,CV,p,p,1670
CVOE_C,11,1,3,28,P 75,Letter,N,TRUE,CV,q,q,756
CVOE_C,11,1,3,29,S 61,Number,Y,TRUE,OE,q,q,1540
CVOE_C,11,1,3,30,U 28,Number,N,TRUE,OE,p,p,1224
CVOE_C,11,1,3,31,A 21,Letter,Y,FALSE,CV,p,p,870
CVOE_C,11,1,3,32,D 18,Letter,N,FALSE,CV,q,q,732
CVOE_C,11,1,3,33,E 35,Number,Y,FALSE,OE,q,q,1375
CVOE_C,11,1,3,34,H 62,Number,N,FALSE,OE,p,p,1226
CVOE_C,11,1,3,35,I 82,Letter,Y,TRUE,CV,p,p,752
CVOE_C,11,1,3,36,J 78,Letter,N,FALSE,CV,q,q,702
CVOE_C,11,1,3,37,O 12,Number,Y,TRUE,OE,p,p,932
CVOE_C,11,1,3,38,P 13,Number,N,TRUE,OE,q,q,823
CVOE_C,11,1,3,39,S 07,Letter,Y,TRUE,CV,q,q,1061
CVOE_C,11,1,3,40,U 36,Letter,N,TRUE,CV,p,p,955
CVOE_C,11,1,3,41,A 96,Number,Y,TRUE,OE,p,p,1027
CVOE_C,11,1,3,42,D 04,Number,N,FALSE,OE,p,p,977
CVOE_C,11,1,3,43,E 60,Letter,Y,TRUE,CV,p,p,805
CVOE_C,11,1,3,44,H 83,Letter,N,TRUE,CV,q,q,1741
CVOE_C,11,1,3,45,I 64,Number,Y,TRUE,OE,p,p,1043
CVOE_C,11,1,3,46,J 76,Number,N,FALSE,OE,p,p,780
CVOE_C,11,1,3,47,O 78,Letter,Y,TRUE,CV,p,p,927
CVOE_C,11,1,3,48,P 09,Letter,N,TRUE,CV,q,q,920
CVOE_C,11,1,3,49,S 72,Number,Y,FALSE,OE,p,p,1152
CVOE_C,11,1,3,50,U 47,Number,N,FALSE,OE,q,q,1422
CVOE_C,11,1,3,51,A 31,Letter,Y,FALSE,CV,p,p,1644
CVOE_C,11,1,3,52,D 96,Letter,N,FALSE,CV,q,q,861
CVOE_C,11,1,3,53,E 40,Number,Y,TRUE,OE,p,p,1043
CVOE_C,11,1,3,54,H 79,Number,N,TRUE,OE,q,q,1187
CVOE_C,11,1,3,55,I 15,Letter,Y,FALSE,CV,p,p,873
CVOE_C,11,1,3,56,J 07,Letter,N,TRUE,CV,q,q,879
CVOE_C,11,1,3,57,O 61,Number,Y,FALSE,OE,q,q,1712
CVOE_C,11,1,3,58,P 58,Number,N,FALSE,OE,p,p,958
CVOE_C,11,1,3,59,S 37,Letter,Y,TRUE,CV,q,q,1110
CVOE_C,11,1,3,60,U 61,Letter,N,FALSE,CV,p,p,1460
CVOE_C,11,1,3,61,A 17,Number,Y,FALSE,OE,q,q,1235
CVOE_C,11,1,3,62,D 85,Number,N,TRUE,OE,p,q,899
CVOE_C,11,1,3,63,E 20,Letter,Y,TRUE,CV,p,p,1414
CVOE_C,11,1,3,64,H 86,Letter,N,FALSE,CV,q,q,1114
CVOE_C,11,1,3,65,I 21,Number,Y,FALSE,OE,q,q,922
CVOE_C,11,1,3,66,J 29,Number,N,TRUE,OE,q,q,899
CVOE_C,11,1,3,67,O 13,Letter,Y,FALSE,CV,p,p,806
CVOE_C,11,1,3,68,P 82,Letter,N,FALSE,CV,q,q,695
CVOE_C,11,1,3,69,S 72,Number,Y,FALSE,OE,p,p,1266
CVOE_C,11,1,3,70,U 84,Number,N,TRUE,OE,p,p,1376
CVOE_C,11,1,3,71,A 49,Letter,Y,FALSE,CV,p,p,1099
CVOE_C,11,1,3,72,D 91,Letter,N,TRUE,CV,q,q,726
CVOE_C,11,1,3,73,E 99,Number,Y,FALSE,OE,q,q,2583
CVOE_C,11,1,3,74,H 16,Number,N,FALSE,OE,p,p,1773
CVOE_C,11,1,3,75,I 45,Letter,Y,FALSE,CV,p,p,2545
CVOE_C,11,1,3,76,J 70,Letter,N,FALSE,CV,q,q,807
CVOE_C,11,1,3,77,O 22,Number,Y,TRUE,OE,p,p,699
CVOE_C,11,1,3,78,P 41,Number,N,TRUE,OE,q,q,1118
CVOE_C,11,1,3,79,S 93,Letter,Y,TRUE,CV,q,q,934
CVOE_C,11,1,3,80,U 70,Letter,N,TRUE,CV,p,p,1194
CVOE_C,11,1,3,81,A 42,Number,Y,TRUE,OE,p,p,792
CVOE_C,11,1,3,82,D 85,Number,N,TRUE,OE,q,q,1429
CVOE_C,11,1,3,83,E 68,Letter,Y,TRUE,CV,p,p,1347
CVOE_C,11,1,3,84,H 17,Letter,N,TRUE,CV,q,q,1066
CVOE_C,11,1,3,85,I 70,Number,Y,TRUE,OE,p,p,1119
CVOE_C,11,1,3,86,J 88,Number,N,FALSE,OE,p,p,680
CVOE_C,11,1,3,87,O 32,Letter,Y,TRUE,CV,p,p,833
CVOE_C,11,1,3,88,P 95,Letter,N,TRUE,CV,q,q,758
CVOE_C,11,1,3,89,S 98,Number,Y,FALSE,OE,p,p,879
CVOE_C,11,1,3,90,U 37,Number,N,FALSE,OE,q,q,1791
CVOE_C,11,1,3,91,A 56,Letter,Y,TRUE,CV,p,p,1110
CVOE_C,11,1,3,92,D 57,Letter,N,TRUE,CV,q,q,700
CVOE_C,11,1,3,93,E 93,Number,Y,FALSE,OE,p,q,1111
CVOE_C,11,1,3,94,H 27,Number,N,TRUE,OE,q,q,1797
CVOE_C,11,1,3,95,I 35,Letter,Y,FALSE,CV,p,p,1062
CVOE_C,11,1,3,96,J 03,Letter,N,TRUE,CV,q,q,787
CVOE_C,11,1,3,97,O 28,Number,Y,TRUE,OE,p,p,1745
CVOE_C,11,1,3,98,P 59,Number,N,TRUE,OE,q,q,1047
CVOE_C,11,1,3,99,S 77,Letter,Y,TRUE,CV,q,q,1131
CVOE_C,11,1,3,100,U 05,Letter,N,FALSE,CV,p,p,1222
CVOE_C,11,1,3,101,A 56,Number,Y,TRUE,OE,p,p,1572
CVOE_C,11,1,3,102,D 01,Number,N,TRUE,OE,q,q,1015
CVOE_C,11,1,3,103,E 02,Letter,Y,TRUE,CV,p,p,1027
CVOE_C,11,1,3,104,H 68,Letter,N,FALSE,CV,q,q,1209
CVOE_C,11,1,3,105,I 05,Number,Y,FALSE,OE,q,q,860
CVOE_C,11,1,3,106,J 55,Number,N,TRUE,OE,q,q,1191
CVOE_C,11,1,3,107,O 73,Letter,Y,FALSE,CV,p,p,1301
CVOE_C,11,1,3,108,P 41,Letter,N,TRUE,CV,q,q,1011
CVOE_C,11,1,3,109,S 92,Number,Y,FALSE,OE,p,p,1158
CVOE_C,11,1,3,110,U 34,Number,N,TRUE,OE,p,p,911
CVOE_C,11,1,3,111,A 09,Letter,Y,FALSE,CV,p,p,1373
CVOE_C,11,1,3,112,D 92,Letter,N,FALSE,CV,q,q,984
CVOE_C,11,1,3,113,E 48,Number,Y,TRUE,OE,p,p,814
CVOE_C,11,1,3,114,H 76,Number,N,FALSE,OE,p,p,649
CVOE_C,11,1,3,115,I 44,Letter,Y,TRUE,CV,p,p,860
CVOE_C,11,1,3,116,J 67,Letter,N,TRUE,CV,q,q,1330
CVOE_C,11,1,3,117,O 48,Number,Y,TRUE,OE,p,p,926
CVOE_C,11,1,3,118,P 22,Number,N,FALSE,OE,p,p,654
CVOE_C,11,1,3,119,S 86,Letter,Y,FALSE,CV,q,q,809
CVOE_C,11,1,3,120,U 35,Letter,N,FALSE,CV,p,p,1125
CVOE_C,11,1,3,121,A 91,Number,Y,FALSE,OE,q,q,957
CVOE_C,11,1,3,122,D 78,Number,N,FALSE,OE,p,p,1150
CVOE_C,11,1,3,123,E 91,Letter,Y,FALSE,CV,p,p,1508
CVOE_C,11,1,3,124,H 54,Letter,N,FALSE,CV,q,q,1698
CVOE_C,11,1,3,125,I 65,Number,Y,FALSE,OE,q,q,925
CVOE_C,11,1,3,126,J 52,Number,N,FALSE,OE,p,p,1262
CVOE_C,11,1,3,127,O 19,Letter,Y,FALSE,CV,p,p,1340
CVOE_C,11,1,3,128,P 48,Letter,N,FALSE,CV,q,q,815
CVOE_C,11,1,3,129,S 45,Number,Y,TRUE,OE,q,q,1186
CVOE_C,11,1,3,130,U 26,Number,N,TRUE,OE,p,p,856
CVOE_C,11,1,4,1,U 38,Number,N,TRUE,OE,p,p,4309
CVOE_C,11,1,4,2,P 73,Number,N,TRUE,OE,q,q,988
CVOE_C,11,1,4,3,U 95,Letter,Y,FALSE,CV,p,p,754
CVOE_C,11,1,4,4,J 61,Number,Y,TRUE,OE,q,q,930
CVOE_C,11,1,4,5,D 51,Number,N,TRUE,OE,q,q,589
CVOE_C,11,1,4,6,S 28,Number,N,FALSE,OE,p,p,819
CVOE_C,11,1,4,7,A 56,Letter,Y,TRUE,CV,p,p,758
CVOE_C,11,1,4,8,H 78,Letter,N,FALSE,CV,q,q,1167
CVOE_C,11,1,4,9,P 92,Letter,N,FALSE,CV,q,q,727
CVOE_C,11,1,4,10,E 05,Number,Y,FALSE,OE,q,q,891
CVOE_C,11,1,4,11,P 57,Letter,Y,TRUE,CV,q,q,1046
CVOE_C,11,1,4,12,D 88,Number,Y,FALSE,OE,p,p,1150
CVOE_C,11,1,4,13,O 89,Letter,Y,FALSE,CV,p,p,1388
CVOE_C,11,1,4,14,U 43,Number,Y,FALSE,OE,q,q,1162
CVOE_C,11,1,4,15,H 10,Number,N,FALSE,OE,p,p,1451
CVOE_C,11,1,4,16,S 07,Letter,Y,TRUE,CV,q,q,990
CVOE_C,11,1,4,17,J 10,Letter,N,FALSE,CV,q,q,1012
CVOE_C,11,1,4,18,H 54,Number,Y,FALSE,OE,p,p,1168
CVOE_C,11,1,4,19,E 99,Number,N,FALSE,OE,q,q,1164
CVOE_C,11,1,4,20,J 36,Letter,Y,FALSE,CV,q,q,1156
CVOE_C,11,1,4,21,I 94,Letter,N,TRUE,CV,p,p,788
CVOE_C,11,1,4,22,A 82,Letter,N,TRUE,CV,p,p,1018
CVOE_C,11,1,4,23,H 79,Number,Y,TRUE,OE,q,q,965
CVOE_C,11,1,4,24,J 60,Number,N,FALSE,OE,p,p,1358
CVOE_C,11,1,4,25,S 28,Letter,Y,FALSE,CV,q,q,1831
CVOE_C,11,1,4,26,P 11,Number,Y,TRUE,OE,q,q,878
CVOE_C,11,1,4,27,D 39,Number,N,TRUE,OE,q,q,925
CVOE_C,11,1,4,28,E 90,Number,N,TRUE,OE,p,p,846
CVOE_C,11,1,4,29,I 38,Number,N,TRUE,OE,p,p,718
CVOE_C,11,1,4,30,S 35,Letter,Y,TRUE,CV,q,q,759
CVOE_C,11,1,4,31,D 41,Number,Y,TRUE,OE,q,q,975
CVOE_C,11,1,4,32,E 06,Number,N,TRUE,OE,p,p,1364
CVOE_C,11,1,4,33,A 27,Number,N,FALSE,OE,q,q,1523
CVOE_C,11,1,4,34,U 95,Letter,Y,FALSE,CV,p,p,1388
CVOE_C,11,1,4,35,A 53,Letter,N,FALSE,CV,p,p,659
CVOE_C,11,1,4,36,E 43,Letter,N,FALSE,CV,p,p,1029
CVOE_C,11,1,4,37,P 05,Number,Y,TRUE,OE,q,q,1164
CVOE_C,11,1,4,38,O 19,Letter,Y,FALSE,CV,p,p,1228
CVOE_C,11,1,4,39,I 96,Number,Y,TRUE,OE,p,p,1434
CVOE_C,11,1,4,40,A 88,Number,N,TRUE,OE,p,p,827
CVOE_C,11,1,4,41,I 67,Number,N,FALSE,OE,q,q,793
CVOE_C,11,1,4,42,D 40,Number,N,FALSE,OE,p,p,911
CVOE_C,11,1,4,43,P 79,Letter,Y,TRUE,CV,q,q,924
CVOE_C,11,1,4,44,U 24,Number,Y,TRUE,OE,p,p,822
CVOE_C,11,1,4,45,P 74,Number,N,FALSE,OE,p,p,954
CVOE_C,11,1,4,46,E 70,Number,N,TRUE,OE,p,p,764
CVOE_C,11,1,4,47,S 27,Number,N,TRUE,OE,q,q,860
CVOE_C,11,1,4,48,E 54,Letter,Y,TRUE,CV,p,p,1031
CVOE_C,11,1,4,49,A 53,Letter,N,FALSE,CV,q,p,734
CVOE_C,11,1,4,50,P 34,Letter,N,FALSE,CV,q,q,2105
CVOE_C,11,1,4,51,D 74,Number,Y,FALSE,OE,p,p,1031
CVOE_C,11,1,4,52,A 03,Letter,Y,FALSE,CV,p,p,949
CVOE_C,11,1,4,53,E 24,Number,Y,TRUE,OE,p,p,923
CVOE_C,11,1,4,54,I 58,Letter,Y,TRUE,CV,p,p,1819
CVOE_C,11,1,4,55,D 77,Number,Y,TRUE,OE,q,q,831
CVOE_C,11,1,4,56,S 75,Number,N,TRUE,OE,q,q,1533
CVOE_C,11,1,4,57,I 20,Letter,Y,TRUE,CV,p,p,1160
CVOE_C,11,1,4,58,J 52,Letter,N,FALSE,CV,q,q,833
CVOE_C,11,1,4,59,A 38,Number,Y,TRUE,OE,p,p,711
CVOE_C,11,1,4,60,I 60,Letter,Y,TRUE,CV,p,p,653
CVOE_C,11,1,4,61,S 51,Number,Y,TRUE,OE,q,q,1448
CVOE_C,11,1,4,62,D 63,Letter,Y,TRUE,CV,q,q,1075
CVOE_C,11,1,4,63,U 27,Letter,N,FALSE,CV,p,p,844
CVOE_C,11,1,4,64,J 77,Letter,N,TRUE,CV,q,q,780
CVOE_C,11,1,4,65,O 15,Number,Y,FALSE,OE,q,q,1367
CVOE_C,11,1,4,66,J 20,Letter,Y,FALSE,CV,q,q,1112
CVOE_C,11,1,4,67,U 97,Number,Y,FALSE,OE,q,q,1342
CVOE_C,11,1,4,68,H 03,Number,N,TRUE,OE,q,q,884
CVOE_C,11,1,4,69,O 04,Letter,Y,TRUE,CV,p,p,893
CVOE_C,11,1,4,70,E 10,Letter,N,TRUE,CV,p,p,1072
CVOE_C,11,1,4,71,I 52,Letter,N,TRUE,CV,p,p,622
CVOE_C,11,1,4,72,H 81,Number,Y,TRUE,OE,q,q,1267
CVOE_C,11,1,4,73,I 41,Number,N,FALSE,OE,q,q,826
CVOE_C,11,1,4,74,U 19,Letter,Y,FALSE,CV,p,p,1239
CVOE_C,11,1,4,75,O 17,Number,Y,FALSE,OE,q,q,1640
CVOE_C,11,1,4,76,A 10,Number,N,TRUE,OE,p,p,1009
CVOE_C,11,1,4,77,P 93,Letter,Y,TRUE,CV,q,q,820
CVOE_C,11,1,4,78,E 59,Letter,N,FALSE,CV,p,p,703
CVOE_C,11,1,4,79,O 53,Letter,N,FALSE,CV,p,p,645
CVOE_C,11,1,4,80,A 96,Letter,N,TRUE,CV,p,p,909
CVOE_C,11,1,4,81,H 36,Letter,Y,FALSE,CV,q,q,867
CVOE_C,11,1,4,82,A 63,Letter,N,FALSE,CV,p,p,913
CVOE_C,11,1,4,83,I 38,Letter,N,TRUE,CV,p,p,655
CVOE_C,11,1,4,84,O 51,Number,Y,FALSE,OE,q,q,826
CVOE_C,11,1,4,85,J 26,Number,N,FALSE,OE,p,p,768
CVOE_C,11,1,4,86,S 34,Letter,Y,FALSE,CV,q,q,1059
CVOE_C,11,1,4,87,U 85,Number,Y,FALSE,OE,q,q,870
CVOE_C,11,1,4,88,J 77,Number,N,TRUE,OE,q,q,1668
CVOE_C,11,1,4,89,I 73,Letter,Y,FALSE,CV,p,p,1082
CVOE_C,11,1,4,90,H 46,Number,Y,FALSE,OE,p,p,1403
CVOE_C,11,1,4,91,D 04,Number,N,FALSE,OE,p,p,740
CVOE_C,11,1,4,92,P 72,Letter,Y,FALSE,CV,q,q,767
CVOE_C,11,1,4,93,D 99,Number,Y,TRUE,OE,q,q,1207
CVOE_C,11,1,4,94,U 25,Letter,Y,FALSE,CV,p,p,1520
CVOE_C,11,1,4,95,O 32,Letter,N,TRUE,CV,p,p,689
CVOE_C,11,1,4,96,E 80,Letter,N,TRUE,CV,p,p,1124
