ExperimentName,Subject,Group,Block,Trial,STIM,TASK,Switch,Congruent,CVOE,PCVstim.RESP,PCVstim.RT,PCVstim.RTTime,POEstim.RESP,POEstim.RT,POEstim.RTTime,ShStim.RESP,ShStim.RT,ShStim.RTTime,ARStim1.RESP,ARStim1.RT,ARStim1.RTTime
CVOE updated,89,1,1,11,A 71,,,FALSE,CV,p,2002,2623974,,,,,,,,,
CVOE updated,89,1,1,12,I 66,,,TRUE,CV,p,646,2625134,,,,,,,,,
CVOE updated,89,1,1,13,S 30,,,FALSE,CV,q,543,2626198,,,,,,,,,
CVOE updated,89,1,1,14,D 20,,,FALSE,CV,q,620,2627342,,,,,,,,,
CVOE updated,89,1,1,15,I 31,,,FALSE,CV,p,551,2628406,,,,,,,,,
CVOE updated,89,1,1,16,P 16,,,FALSE,CV,q,452,2629374,,,,,,,,,
CVOE updated,89,1,1,17,A 49,,,FALSE,CV,p,573,2630462,,,,,,,,,
CVOE updated,89,1,1,18,O 64,,,TRUE,CV,p,498,2631470,,,,,,,,,
CVOE updated,89,1,1,19,D 02,,,FALSE,CV,q,529,2632518,,,,,,,,,
CVOE updated,89,1,1,20,P 81,,,TRUE,CV,q,463,2633502,,,,,,,,,
CVOE updated,89,1,1,21,J 58,,,FALSE,CV,q,600,2634622,,,,,,,,,
CVOE updated,89,1,1,22,A 22,,,TRUE,CV,p,491,2635630,,,,,,,,,
CVOE updated,89,1,1,23,J 72,,,FALSE,CV,q,467,2636606,,,,,,,,,
CVOE updated,89,1,1,24,P 91,,,TRUE,CV,p,339,2637462,,,,,,,,,
CVOE updated,89,1,1,25,E 19,,,FALSE,CV,p,681,2638654,,,,,,,,,
CVOE updated,89,1,1,26,I 30,,,TRUE,CV,p,561,2639734,,,,,,,,,
CVOE updated,89,1,1,27,D 91,,,TRUE,CV,q,526,2640782,,,,,,,,,
CVOE updated,89,1,1,28,O 48,,,TRUE,CV,p,540,2641846,,,,,,,,,
CVOE updated,89,1,1,29,A 89,,,FALSE,CV,p,778,2643134,,,,,,,,,
CVOE updated,89,1,1,30,U 11,,,FALSE,CV,p,558,2644214,,,,,,,,,
CVOE updated,89,1,1,31,I 76,,,TRUE,CV,p,515,2645238,,,,,,,,,
CVOE updated,89,1,1,32,U 89,,,FALSE,CV,p,657,2646414,,,,,,,,,
CVOE updated,89,1,1,33,D 63,,,TRUE,CV,q,539,2647462,,,,,,,,,
CVOE updated,89,1,1,34,H 70,,,FALSE,CV,q,553,2648526,,,,,,,,,
CVOE updated,89,1,1,35,D 48,,,FALSE,CV,q,502,2649542,,,,,,,,,
CVOE updated,89,1,1,36,P 56,,,FALSE,CV,q,581,2650638,,,,,,,,,
CVOE updated,89,1,1,37,O 77,,,FALSE,CV,p,537,2651694,,,,,,,,,
CVOE updated,89,1,1,38,P 42,,,FALSE,CV,q,503,2652710,,,,,,,,,
CVOE updated,89,1,1,39,H 22,,,FALSE,CV,q,510,2653734,,,,,,,,,
CVOE updated,89,1,1,40,E 42,,,TRUE,CV,p,669,2654926,,,,,,,,,
CVOE updated,89,1,1,41,J 28,,,FALSE,CV,q,493,2655934,,,,,,,,,
CVOE updated,89,1,1,42,E 95,,,FALSE,CV,p,541,2656998,,,,,,,,,
CVOE updated,89,1,1,43,S 63,,,TRUE,CV,q,555,2658062,,,,,,,,,
CVOE updated,89,1,1,44,H 50,,,FALSE,CV,q,584,2659158,,,,,,,,,
CVOE updated,89,1,1,45,S 33,,,TRUE,CV,q,556,2660230,,,,,,,,,
CVOE updated,89,1,1,46,P 57,,,TRUE,CV,q,593,2661334,,,,,,,,,
CVOE updated,89,1,1,47,E 23,,,FALSE,CV,p,484,2662342,,,,,,,,,
CVOE updated,89,1,1,48,S 61,,,TRUE,CV,q,500,2663358,,,,,,,,,
CVOE updated,89,1,1,49,U 67,,,FALSE,CV,p,555,2664430,,,,,,,,,
CVOE updated,89,1,1,50,H 32,,,FALSE,CV,q,473,2665414,,,,,,,,,
CVOE updated,89,1,1,51,U 50,,,TRUE,CV,p,529,2666454,,,,,,,,,
CVOE updated,89,1,1,52,O 49,,,FALSE,CV,p,535,2667510,,,,,,,,,
CVOE updated,89,1,1,53,U 32,,,TRUE,CV,p,477,2668502,,,,,,,,,
CVOE updated,89,1,1,54,J 78,,,FALSE,CV,q,453,2669478,,,,,,,,,
CVOE updated,89,1,1,55,S 54,,,FALSE,CV,q,470,2670462,,,,,,,,,
CVOE updated,89,1,1,56,J 27,,,TRUE,CV,q,511,2671486,,,,,,,,,
CVOE updated,89,1,1,57,S 06,,,FALSE,CV,q,414,2672422,,,,,,,,,
CVOE updated,89,1,1,58,D 67,,,TRUE,CV,q,912,2673854,,,,,,,,,
CVOE updated,89,1,1,59,A 79,,,FALSE,CV,p,711,2675086,,,,,,,,,
CVOE updated,89,1,1,60,S 52,,,FALSE,CV,q,741,2676350,,,,,,,,,
CVOE updated,89,1,1,61,U 16,,,TRUE,CV,p,539,2677398,,,,,,,,,
CVOE updated,89,1,1,62,O 82,,,TRUE,CV,p,1041,2678950,,,,,,,,,
CVOE updated,89,1,1,63,H 87,,,TRUE,CV,q,555,2680014,,,,,,,,,
CVOE updated,89,1,1,64,I 32,,,TRUE,CV,p,600,2681126,,,,,,,,,
CVOE updated,89,1,1,65,U 37,,,FALSE,CV,p,540,2682182,,,,,,,,,
CVOE updated,89,1,1,66,I 42,,,TRUE,CV,p,489,2683182,,,,,,,,,
CVOE updated,89,1,1,67,D 65,,,TRUE,CV,q,553,2684246,,,,,,,,,
CVOE updated,89,1,1,68,U 77,,,FALSE,CV,p,567,2685326,,,,,,,,,
CVOE updated,89,1,1,69,E 12,,,TRUE,CV,p,579,2686422,,,,,,,,,
CVOE updated,89,1,1,70,I 60,,,TRUE,CV,p,391,2687334,,,,,,,,,
CVOE updated,89,1,1,71,J 36,,,FALSE,CV,q,507,2688350,,,,,,,,,
CVOE updated,89,1,1,72,H 75,,,TRUE,CV,q,810,2689670,,,,,,,,,
CVOE updated,89,1,1,73,I 50,,,TRUE,CV,p,469,2690662,,,,,,,,,
CVOE updated,89,1,1,74,E 99,,,FALSE,CV,p,1086,2692262,,,,,,,,,
CVOE updated,89,1,1,75,A 86,,,TRUE,CV,p,605,2693382,,,,,,,,,
CVOE updated,89,1,1,76,U 48,,,TRUE,CV,p,585,2694478,,,,,,,,,
CVOE updated,89,1,1,77,E 01,,,FALSE,CV,p,605,2695598,,,,,,,,,
CVOE updated,89,1,1,78,A 78,,,TRUE,CV,p,536,2696646,,,,,,,,,
CVOE updated,89,1,1,79,P 60,,,FALSE,CV,q,542,2697702,,,,,,,,,
CVOE updated,89,1,1,80,E 43,,,FALSE,CV,p,684,2698894,,,,,,,,,
CVOE updated,89,1,1,81,D 69,,,TRUE,CV,q,508,2699918,,,,,,,,,
CVOE updated,89,1,1,82,H 11,,,TRUE,CV,q,627,2701054,,,,,,,,,
CVOE updated,89,1,1,83,P 43,,,TRUE,CV,q,573,2702150,,,,,,,,,
CVOE updated,89,1,1,84,O 67,,,FALSE,CV,p,505,2703166,,,,,,,,,
CVOE updated,89,1,1,85,S 91,,,FALSE,CV,q,601,2704278,,,,,,,,,
CVOE updated,89,1,1,86,J 68,,,TRUE,CV,q,628,2705422,,,,,,,,,
CVOE updated,89,1,1,87,S 47,,,FALSE,CV,q,486,2706430,,,,,,,,,
CVOE updated,89,1,1,88,I 81,,,TRUE,CV,p,1118,2708062,,,,,,,,,
CVOE updated,89,1,1,89,J 39,,,FALSE,CV,q,980,2709558,,,,,,,,,
CVOE updated,89,1,1,90,A 11,,,TRUE,CV,p,584,2710662,,,,,,,,,
CVOE updated,89,1,1,91,O 76,,,FALSE,CV,p,604,2711782,,,,,,,,,
CVOE updated,89,1,1,92,A 62,,,FALSE,CV,p,479,2712774,,,,,,,,,
CVOE updated,89,1,1,93,O 27,,,TRUE,CV,p,615,2713910,,,,,,,,,
CVOE updated,89,1,1,94,E 66,,,FALSE,CV,p,650,2715078,,,,,,,,,
CVOE updated,89,1,1,95,J 62,,,TRUE,CV,q,611,2716206,,,,,,,,,
CVOE updated,89,1,1,96,H 72,,,TRUE,CV,q,582,2717310,,,,,,,,,
CVOE updated,89,1,1,97,E 49,,,TRUE,CV,p,626,2718454,,,,,,,,,
CVOE updated,89,1,1,98,D 52,,,TRUE,CV,q,3668,2722646,,,,,,,,,
CVOE updated,89,1,1,99,H 62,,,TRUE,CV,q,532,2723694,,,,,,,,,
CVOE updated,89,1,1,100,I 11,,,TRUE,CV,p,514,2724726,,,,,,,,,
CVOE updated,89,1,1,101,A 98,,,FALSE,CV,p,673,2725918,,,,,,,,,
CVOE updated,89,1,1,102,H 29,,,FALSE,CV,q,585,2727014,,,,,,,,,
CVOE updated,89,1,1,103,E 83,,,TRUE,CV,p,573,2728102,,,,,,,,,
CVOE updated,89,1,1,104,D 43,,,FALSE,CV,q,530,2729142,,,,,,,,,
CVOE updated,89,1,1,105,P 45,,,TRUE,CV,q,504,2730166,,,,,,,,,
CVOE updated,89,1,1,106,J 17,,,TRUE,CV,q,599,2731278,,,,,,,,,
CVOE updated,89,1,2,11,A 24,,,TRUE,OE,p,1671,2783870,,,,,,,,,
CVOE updated,89,1,2,12,O 83,,,FALSE,OE,q,751,2785134,,,,,,,,,
CVOE updated,89,1,2,13,H 55,,,TRUE,OE,q,572,2786222,,,,,,,,,
CVOE updated,89,1,2,14,P 10,,,FALSE,OE,p,649,2787382,,,,,,,,,
CVOE updated,89,1,2,15,D 30,,,FALSE,OE,p,650,2788550,,,,,,,,,
CVOE updated,89,1,2,16,U 62,,,TRUE,OE,p,491,2789558,,,,,,,,,
CVOE updated,89,1,2,17,P 95,,,TRUE,OE,q,547,2790614,,,,,,,,,
CVOE updated,89,1,2,18,U 06,,,TRUE,OE,p,537,2791670,,,,,,,,,
CVOE updated,89,1,2,19,E 75,,,FALSE,OE,q,471,2792654,,,,,,,,,
CVOE updated,89,1,2,20,I 67,,,FALSE,OE,q,719,2793886,,,,,,,,,
CVOE updated,89,1,2,21,S 13,,,TRUE,OE,q,702,2795102,,,,,,,,,
CVOE updated,89,1,2,22,P 78,,,FALSE,OE,p,621,2796238,,,,,,,,,
CVOE updated,89,1,2,23,I 15,,,FALSE,OE,q,560,2797310,,,,,,,,,
CVOE updated,89,1,2,24,D 27,,,TRUE,OE,q,524,2798358,,,,,,,,,
CVOE updated,89,1,2,25,O 94,,,TRUE,OE,p,627,2799494,,,,,,,,,
CVOE updated,89,1,2,26,A 65,,,FALSE,OE,q,485,2800502,,,,,,,,,
CVOE updated,89,1,2,27,I 42,,,TRUE,OE,p,589,2801606,,,,,,,,,
CVOE updated,89,1,2,28,E 25,,,FALSE,OE,q,497,2802614,,,,,,,,,
CVOE updated,89,1,2,29,H 49,,,TRUE,OE,q,624,2803758,,,,,,,,,
CVOE updated,89,1,2,30,S 18,,,FALSE,OE,p,602,2804870,,,,,,,,,
CVOE updated,89,1,2,31,H 51,,,TRUE,OE,q,614,2805998,,,,,,,,,
CVOE updated,89,1,2,32,U 14,,,TRUE,OE,p,464,2806982,,,,,,,,,
CVOE updated,89,1,2,33,E 02,,,TRUE,OE,p,545,2808046,,,,,,,,,
CVOE updated,89,1,2,34,J 26,,,FALSE,OE,p,558,2809126,,,,,,,,,
CVOE updated,89,1,2,35,D 24,,,FALSE,OE,p,611,2810246,,,,,,,,,
CVOE updated,89,1,2,36,O 50,,,TRUE,OE,p,566,2811334,,,,,,,,,
CVOE updated,89,1,2,37,U 16,,,TRUE,OE,p,435,2812286,,,,,,,,,
CVOE updated,89,1,2,38,O 15,,,FALSE,OE,q,468,2813270,,,,,,,,,
CVOE updated,89,1,2,39,D 32,,,FALSE,OE,p,461,2814246,,,,,,,,,
CVOE updated,89,1,2,40,S 67,,,TRUE,OE,q,486,2815254,,,,,,,,,
CVOE updated,89,1,2,41,J 74,,,FALSE,OE,p,710,2816478,,,,,,,,,
CVOE updated,89,1,2,42,D 92,,,FALSE,OE,p,772,2817774,,,,,,,,,
CVOE updated,89,1,2,43,A 65,,,FALSE,OE,q,481,2818766,,,,,,,,,
CVOE updated,89,1,2,44,I 87,,,FALSE,OE,q,681,2819966,,,,,,,,,
CVOE updated,89,1,2,45,H 61,,,TRUE,OE,q,593,2821078,,,,,,,,,
CVOE updated,89,1,2,46,E 59,,,FALSE,OE,q,444,2822046,,,,,,,,,
CVOE updated,89,1,2,47,I 33,,,FALSE,OE,q,565,2823134,,,,,,,,,
CVOE updated,89,1,2,48,O 90,,,TRUE,OE,p,634,2824286,,,,,,,,,
CVOE updated,89,1,2,49,U 51,,,FALSE,OE,q,636,2825438,,,,,,,,,
CVOE updated,89,1,2,50,A 10,,,TRUE,OE,p,598,2826550,,,,,,,,,
CVOE updated,89,1,2,51,E 50,,,TRUE,OE,p,385,2827454,,,,,,,,,
CVOE updated,89,1,2,52,D 92,,,FALSE,OE,p,517,2828486,,,,,,,,,
CVOE updated,89,1,2,53,E 60,,,TRUE,OE,p,435,2829438,,,,,,,,,
CVOE updated,89,1,2,54,A 95,,,FALSE,OE,q,549,2830502,,,,,,,,,
CVOE updated,89,1,2,55,E 64,,,TRUE,OE,p,523,2831542,,,,,,,,,
CVOE updated,89,1,2,56,P 20,,,FALSE,OE,p,481,2832534,,,,,,,,,
CVOE updated,89,1,2,57,S 06,,,FALSE,OE,p,545,2833598,,,,,,,,,
CVOE updated,89,1,2,58,P 64,,,FALSE,OE,p,582,2834702,,,,,,,,,
CVOE updated,89,1,2,59,U 70,,,TRUE,OE,p,554,2835774,,,,,,,,,
CVOE updated,89,1,2,60,S 16,,,FALSE,OE,p,512,2836798,,,,,,,,,
CVOE updated,89,1,2,61,E 35,,,FALSE,OE,q,590,2837910,,,,,,,,,
CVOE updated,89,1,2,62,I 93,,,FALSE,OE,q,874,2839294,,,,,,,,,
CVOE updated,89,1,2,63,D 63,,,TRUE,OE,q,483,2840286,,,,,,,,,
CVOE updated,89,1,2,64,U 89,,,FALSE,OE,q,643,2841446,,,,,,,,,
CVOE updated,89,1,2,65,E 91,,,FALSE,OE,q,516,2842486,,,,,,,,,
CVOE updated,89,1,2,66,A 12,,,TRUE,OE,p,538,2843542,,,,,,,,,
CVOE updated,89,1,2,67,P 56,,,FALSE,OE,p,608,2844662,,,,,,,,,
CVOE updated,89,1,2,68,S 65,,,TRUE,OE,q,564,2845734,,,,,,,,,
CVOE updated,89,1,2,69,P 07,,,TRUE,OE,q,688,2846942,,,,,,,,,
CVOE updated,89,1,2,70,I 77,,,FALSE,OE,q,560,2848014,,,,,,,,,
CVOE updated,89,1,2,71,J 19,,,TRUE,OE,q,733,2849270,,,,,,,,,
CVOE updated,89,1,2,72,O 59,,,FALSE,OE,q,491,2850278,,,,,,,,,
CVOE updated,89,1,2,73,J 15,,,TRUE,OE,q,891,2851678,,,,,,,,,
CVOE updated,89,1,2,74,I 89,,,FALSE,OE,q,546,2852734,,,,,,,,,
CVOE updated,89,1,2,75,O 97,,,FALSE,OE,q,1128,2854382,,,,,,,,,
CVOE updated,89,1,2,76,A 92,,,TRUE,OE,p,542,2855446,,,,,,,,,
CVOE updated,89,1,2,77,J 90,,,FALSE,OE,p,620,2856574,,,,,,,,,
CVOE updated,89,1,2,78,H 65,,,TRUE,OE,q,566,2857654,,,,,,,,,
CVOE updated,89,1,2,79,H 17,,,TRUE,OE,q,603,2858774,,,,,,,,,
CVOE updated,89,1,2,80,S 26,,,FALSE,OE,q,830,2860118,,,,,,,,,
CVOE updated,89,1,2,81,D 56,,,FALSE,OE,p,600,2861238,,,,,,,,,
CVOE updated,89,1,2,82,I 91,,,FALSE,OE,q,547,2862302,,,,,,,,,
CVOE updated,89,1,2,83,J 11,,,TRUE,OE,q,512,2863334,,,,,,,,,
CVOE updated,89,1,2,84,O 28,,,TRUE,OE,p,503,2864358,,,,,,,,,
CVOE updated,89,1,2,85,H 29,,,TRUE,OE,q,646,2865518,,,,,,,,,
CVOE updated,89,1,2,86,J 25,,,TRUE,OE,q,527,2866566,,,,,,,,,
CVOE updated,89,1,2,87,A 73,,,FALSE,OE,q,1205,2868294,,,,,,,,,
CVOE updated,89,1,2,88,J 63,,,TRUE,OE,q,473,2869278,,,,,,,,,
CVOE updated,89,1,2,89,U 84,,,TRUE,OE,p,425,2870214,,,,,,,,,
CVOE updated,89,1,2,90,A 58,,,TRUE,OE,p,485,2871207,,,,,,,,,
CVOE updated,89,1,2,91,S 43,,,TRUE,OE,q,516,2872238,,,,,,,,,
CVOE updated,89,1,2,92,H 54,,,FALSE,OE,q,578,2873334,,,,,,,,,
CVOE updated,89,1,2,93,D 4,,,FALSE,OE,p,518,2874374,,,,,,,,,
CVOE updated,89,1,2,94,J 75,,,TRUE,OE,q,621,2875510,,,,,,,,,
CVOE updated,89,1,2,95,D 19,,,TRUE,OE,p,503,2876526,,,,,,,,,
CVOE updated,89,1,2,96,J 38,,,FALSE,OE,p,1559,2878598,,,,,,,,,
CVOE updated,89,1,2,97,I 56,,,TRUE,OE,p,2388,2881494,,,,,,,,,
CVOE updated,89,1,2,98,P 87,,,TRUE,OE,q,1016,2883022,,,,,,,,,
CVOE updated,89,1,2,99,O 80,,,TRUE,OE,p,1386,2884926,,,,,,,,,
CVOE updated,89,1,2,100,U 60,,,TRUE,OE,p,590,2886030,,,,,,,,,
CVOE updated,89,1,2,101,P 48,,,FALSE,OE,p,1114,2887654,,,,,,,,,
CVOE updated,89,1,2,102,H 64,,,FALSE,OE,p,937,2889110,,,,,,,,,
CVOE updated,89,1,2,103,A 13,,,FALSE,OE,q,935,2890558,,,,,,,,,
CVOE updated,89,1,2,104,H 68,,,FALSE,OE,p,900,2891974,,,,,,,,,
CVOE updated,89,1,2,105,E 16,,,TRUE,OE,p,1444,2893934,,,,,,,,,
CVOE updated,89,1,2,106,S 71,,,TRUE,OE,q,965,2895422,,,,,,,,,
CVOE updated,89,1,3,11,A 44,Letter,N,TRUE,CV,p,4508,2978071,,,,,,,,,
CVOE updated,89,1,3,12,D 94,Letter,N,FALSE,CV,q,1299,2979879,,,,,,,,,
CVOE updated,89,1,3,13,E 75,Number,Y,FALSE,OE,q,1579,2981975,,,,,,,,,
CVOE updated,89,1,3,14,H 81,Number,N,TRUE,OE,q,2054,2984551,,,,,,,,,
CVOE updated,89,1,3,15,I 64,Letter,Y,TRUE,CV,p,1304,2986367,,,,,,,,,
CVOE updated,89,1,3,16,J 54,Letter,N,FALSE,CV,q,943,2987823,,,,,,,,,
CVOE updated,89,1,3,17,O 23,Number,Y,FALSE,OE,q,2013,2990343,,,,,,,,,
CVOE updated,89,1,3,18,P 05,Number,N,TRUE,OE,q,951,2991815,,,,,,,,,
CVOE updated,89,1,3,19,S 34,Letter,Y,FALSE,CV,q,852,2993183,,,,,,,,,
CVOE updated,89,1,3,20,U 88,Letter,N,TRUE,CV,p,886,2994583,,,,,,,,,
CVOE updated,89,1,3,21,A 70,Number,Y,TRUE,OE,p,1206,2996303,,,,,,,,,
CVOE updated,89,1,3,22,D 12,Number,N,FALSE,OE,p,1289,2998103,,,,,,,,,
CVOE updated,89,1,3,23,E 79,Letter,Y,FALSE,CV,p,1017,2999631,,,,,,,,,
CVOE updated,89,1,3,24,H 72,Letter,N,FALSE,CV,q,883,3001031,,,,,,,,,
CVOE updated,89,1,3,25,I 41,Number,Y,FALSE,OE,q,1467,3003015,,,,,,,,,
CVOE updated,89,1,3,26,J 63,Number,N,TRUE,OE,q,2908,3006439,,,,,,,,,
CVOE updated,89,1,3,27,O 03,Letter,Y,FALSE,CV,p,1771,3008719,,,,,,,,,
CVOE updated,89,1,3,28,P 75,Letter,N,TRUE,CV,q,1607,3010839,,,,,,,,,
CVOE updated,89,1,3,29,S 61,Number,Y,TRUE,OE,q,4210,3015559,,,,,,,,,
CVOE updated,89,1,3,30,U 28,Number,N,TRUE,OE,p,1229,3017311,,,,,,,,,
CVOE updated,89,1,3,31,A 21,Letter,Y,FALSE,CV,p,1119,3018951,,,,,,,,,
CVOE updated,89,1,3,32,D 18,Letter,N,FALSE,CV,q,813,3020279,,,,,,,,,
CVOE updated,89,1,3,33,E 35,Number,Y,FALSE,OE,q,1440,3022239,,,,,,,,,
CVOE updated,89,1,3,34,H 62,Number,N,FALSE,OE,p,2442,3025191,,,,,,,,,
CVOE updated,89,1,3,35,I 82,Letter,Y,TRUE,CV,p,1027,3026727,,,,,,,,,
CVOE updated,89,1,3,36,J 78,Letter,N,FALSE,CV,q,773,3028023,,,,,,,,,
CVOE updated,89,1,3,37,O 12,Number,Y,TRUE,OE,p,1386,3029919,,,,,,,,,
CVOE updated,89,1,3,38,P 13,Number,N,TRUE,OE,q,798,3031231,,,,,,,,,
CVOE updated,89,1,3,39,S 07,Letter,Y,TRUE,CV,q,1705,3033455,,,,,,,,,
CVOE updated,89,1,3,40,U 36,Letter,N,TRUE,CV,q,896,3034863,,,,,,,,,
CVOE updated,89,1,3,41,A 96,Number,Y,TRUE,OE,p,2639,3038023,,,,,,,,,
CVOE updated,89,1,3,42,D 04,Number,N,FALSE,OE,p,929,3039463,,,,,,,,,
CVOE updated,89,1,3,43,E 60,Letter,Y,TRUE,CV,p,887,3040871,,,,,,,,,
CVOE updated,89,1,3,44,H 83,Letter,N,TRUE,CV,q,767,3042151,,,,,,,,,
CVOE updated,89,1,3,45,I 64,Number,Y,TRUE,OE,p,1588,3044255,,,,,,,,,
CVOE updated,89,1,3,46,J 76,Number,N,FALSE,OE,p,2527,3047295,,,,,,,,,
CVOE updated,89,1,3,47,O 78,Letter,Y,TRUE,CV,p,1261,3049079,,,,,,,,,
CVOE updated,89,1,3,48,P 09,Letter,N,TRUE,CV,q,822,3050423,,,,,,,,,
CVOE updated,89,1,3,49,S 72,Number,Y,FALSE,OE,p,1480,3052415,,,,,,,,,
CVOE updated,89,1,3,50,U 47,Number,N,FALSE,OE,q,1960,3054895,,,,,,,,,
CVOE updated,89,1,3,51,A 31,Letter,Y,FALSE,CV,p,1381,3056799,,,,,,,,,
CVOE updated,89,1,3,52,D 96,Letter,N,FALSE,CV,q,1017,3058335,,,,,,,,,
CVOE updated,89,1,3,53,E 40,Number,Y,TRUE,OE,p,1331,3060183,,,,,,,,,
CVOE updated,89,1,3,54,H 79,Number,N,TRUE,OE,q,953,3061655,,,,,,,,,
CVOE updated,89,1,3,55,I 15,Letter,Y,FALSE,CV,p,1206,3063375,,,,,,,,,
CVOE updated,89,1,3,56,J 07,Letter,N,TRUE,CV,q,737,3064623,,,,,,,,,
CVOE updated,89,1,3,57,O 61,Number,Y,FALSE,OE,q,1199,3066335,,,,,,,,,
CVOE updated,89,1,3,58,P 58,Number,N,FALSE,OE,p,2291,3069143,,,,,,,,,
CVOE updated,89,1,3,59,S 37,Letter,Y,TRUE,CV,q,1242,3070895,,,,,,,,,
CVOE updated,89,1,3,60,U 61,Letter,N,FALSE,CV,p,940,3072343,,,,,,,,,
CVOE updated,89,1,3,61,A 17,Number,Y,FALSE,OE,q,1498,3074351,,,,,,,,,
CVOE updated,89,1,3,62,D 85,Number,N,TRUE,OE,q,5385,3080255,,,,,,,,,
CVOE updated,89,1,3,63,E 20,Letter,Y,TRUE,CV,p,725,3081495,,,,,,,,,
CVOE updated,89,1,3,64,H 86,Letter,N,FALSE,CV,q,3764,3085767,,,,,,,,,
CVOE updated,89,1,3,65,I 21,Number,Y,FALSE,OE,q,1344,3087631,,,,,,,,,
CVOE updated,89,1,3,66,J 29,Number,N,TRUE,OE,q,869,3089023,,,,,,,,,
CVOE updated,89,1,3,67,O 13,Letter,Y,FALSE,CV,p,694,3090231,,,,,,,,,
CVOE updated,89,1,3,68,P 82,Letter,N,FALSE,CV,q,1397,3092151,,,,,,,,,
CVOE updated,89,1,3,69,S 72,Number,Y,FALSE,OE,p,2360,3095031,,,,,,,,,
CVOE updated,89,1,3,70,U 84,Number,N,TRUE,OE,p,837,3096391,,,,,,,,,
CVOE updated,89,1,3,71,A 49,Letter,Y,FALSE,CV,p,1047,3097951,,,,,,,,,
CVOE updated,89,1,3,72,D 91,Letter,N,TRUE,CV,q,1624,3100095,,,,,,,,,
CVOE updated,89,1,3,73,E 99,Number,Y,FALSE,OE,q,1258,3101863,,,,,,,,,
CVOE updated,89,1,3,74,H 16,Number,N,FALSE,OE,p,1299,3103671,,,,,,,,,
CVOE updated,89,1,3,75,I 45,Letter,Y,FALSE,CV,p,1403,3105591,,,,,,,,,
CVOE updated,89,1,3,76,J 70,Letter,N,FALSE,CV,q,1838,3107943,,,,,,,,,
CVOE updated,89,1,3,77,O 22,Number,Y,TRUE,OE,p,952,3109407,,,,,,,,,
CVOE updated,89,1,3,78,P 41,Number,N,TRUE,OE,q,877,3110799,,,,,,,,,
CVOE updated,89,1,3,79,S 93,Letter,Y,TRUE,CV,q,853,3112175,,,,,,,,,
CVOE updated,89,1,3,80,U 70,Letter,N,TRUE,CV,p,1046,3113735,,,,,,,,,
CVOE updated,89,1,3,81,A 42,Number,Y,TRUE,OE,p,743,3114999,,,,,,,,,
CVOE updated,89,1,3,82,D 85,Number,N,TRUE,OE,q,765,3116287,,,,,,,,,
CVOE updated,89,1,3,83,E 68,Letter,Y,TRUE,CV,p,929,3117735,,,,,,,,,
CVOE updated,89,1,3,84,H 17,Letter,N,TRUE,CV,q,855,3119111,,,,,,,,,
CVOE updated,89,1,3,85,I 70,Number,Y,TRUE,OE,p,1048,3120671,,,,,,,,,
CVOE updated,89,1,3,86,J 88,Number,N,FALSE,OE,p,1114,3122303,,,,,,,,,
CVOE updated,89,1,3,87,O 32,Letter,Y,TRUE,CV,p,1304,3124127,,,,,,,,,
CVOE updated,89,1,3,88,P 95,Letter,N,TRUE,CV,q,991,3125631,,,,,,,,,
CVOE updated,89,1,3,89,S 98,Number,Y,FALSE,OE,p,1059,3127199,,,,,,,,,
CVOE updated,89,1,3,90,U 37,Number,N,FALSE,OE,q,1060,3128783,,,,,,,,,
CVOE updated,89,1,3,91,A 56,Letter,Y,TRUE,CV,p,844,3130151,,,,,,,,,
CVOE updated,89,1,3,92,D 57,Letter,N,TRUE,CV,q,686,3131359,,,,,,,,,
CVOE updated,89,1,3,93,E 93,Number,Y,FALSE,OE,p,693,3132567,,,,,,,,,
CVOE updated,89,1,3,94,H 27,Number,N,TRUE,OE,q,5421,3138511,,,,,,,,,
CVOE updated,89,1,3,95,I 35,Letter,Y,FALSE,CV,p,943,3139967,,,,,,,,,
CVOE updated,89,1,3,96,J 03,Letter,N,TRUE,CV,q,1220,3141711,,,,,,,,,
CVOE updated,89,1,3,97,O 28,Number,Y,TRUE,OE,p,1063,3143287,,,,,,,,,
CVOE updated,89,1,3,98,P 59,Number,N,TRUE,OE,q,1199,3145007,,,,,,,,,
CVOE updated,89,1,3,99,S 77,Letter,Y,TRUE,CV,q,1843,3147367,,,,,,,,,
CVOE updated,89,1,3,100,U 05,Letter,N,FALSE,CV,p,1452,3149327,,,,,,,,,
CVOE updated,89,1,3,101,A 56,Number,Y,TRUE,OE,p,1694,3151535,,,,,,,,,
CVOE updated,89,1,3,102,D 01,Number,N,TRUE,OE,q,869,3152927,,,,,,,,,
CVOE updated,89,1,3,103,E 02,Letter,Y,TRUE,CV,p,1141,3154583,,,,,,,,,
CVOE updated,89,1,3,104,H 68,Letter,N,FALSE,CV,q,2923,3158015,,,,,,,,,
CVOE updated,89,1,3,105,I 05,Number,Y,FALSE,OE,q,1226,3159751,,,,,,,,,
CVOE updated,89,1,3,106,J 55,Number,N,TRUE,OE,q,780,3161039,,,,,,,,,
CVOE updated,89,1,3,107,O 73,Letter,Y,FALSE,CV,q,904,3162463,,,,,,,,,
CVOE updated,89,1,3,108,P 41,Letter,N,TRUE,CV,q,2903,3165879,,,,,,,,,
CVOE updated,89,1,3,109,S 92,Number,Y,FALSE,OE,p,1302,3167695,,,,,,,,,
CVOE updated,89,1,3,110,U 34,Number,N,TRUE,OE,p,1158,3169367,,,,,,,,,
CVOE updated,89,1,3,111,A 09,Letter,Y,FALSE,CV,q,1115,3170991,,,,,,,,,
CVOE updated,89,1,3,112,D 92,Letter,N,FALSE,CV,q,3321,3174831,,,,,,,,,
CVOE updated,89,1,3,113,E 48,Number,Y,TRUE,OE,p,1304,3176647,,,,,,,,,
CVOE updated,89,1,3,114,H 76,Number,N,FALSE,OE,p,855,3178015,,,,,,,,,
CVOE updated,89,1,3,115,I 44,Letter,Y,TRUE,CV,p,1768,3180295,,,,,,,,,
CVOE updated,89,1,3,116,J 67,Letter,N,TRUE,CV,q,741,3181551,,,,,,,,,
CVOE updated,89,1,3,117,O 48,Number,Y,TRUE,OE,p,955,3183015,,,,,,,,,
CVOE updated,89,1,3,118,P 22,Number,N,FALSE,OE,p,832,3184359,,,,,,,,,
CVOE updated,89,1,3,119,S 86,Letter,Y,FALSE,CV,q,1370,3186247,,,,,,,,,
CVOE updated,89,1,3,120,U 35,Letter,N,FALSE,CV,p,3094,3189855,,,,,,,,,
CVOE updated,89,1,3,121,A 91,Number,Y,FALSE,OE,q,1397,3191775,,,,,,,,,
CVOE updated,89,1,3,122,D 78,Number,N,FALSE,OE,p,2521,3194815,,,,,,,,,
CVOE updated,89,1,3,123,E 91,Letter,Y,FALSE,CV,p,1959,3197287,,,,,,,,,
CVOE updated,89,1,3,124,H 54,Letter,N,FALSE,CV,q,1660,3199455,,,,,,,,,
CVOE updated,89,1,3,125,I 65,Number,Y,FALSE,OE,q,1781,3201759,,,,,,,,,
CVOE updated,89,1,3,126,J 52,Number,N,FALSE,OE,q,1953,3204231,,,,,,,,,
CVOE updated,89,1,3,127,O 19,Letter,Y,FALSE,CV,p,2606,3207351,,,,,,,,,
CVOE updated,89,1,3,128,P 48,Letter,N,FALSE,CV,q,1313,3209175,,,,,,,,,
CVOE updated,89,1,3,129,S 45,Number,Y,TRUE,OE,q,1831,3211527,,,,,,,,,
CVOE updated,89,1,3,130,U 26,Number,N,TRUE,OE,p,1169,3213215,,,,,,,,,
CVOE updated,89,1,4,1,U 38,Number,N,TRUE,OE,p,3006,3242287,,,,,,,,,
CVOE updated,89,1,4,2,P 73,Number,N,TRUE,OE,q,1145,3243943,,,,,,,,,
CVOE updated,89,1,4,3,U 95,Letter,Y,FALSE,CV,p,1126,3245591,,,,,,,,,
CVOE updated,89,1,4,4,J 61,Number,Y,TRUE,OE,q,948,3247063,,,,,,,,,
CVOE updated,89,1,4,5,D 51,Number,N,TRUE,OE,q,1065,3248647,,,,,,,,,
CVOE updated,89,1,4,6,S 28,Number,N,FALSE,OE,p,1314,3250479,,,,,,,,,
CVOE updated,89,1,4,7,A 56,Letter,Y,TRUE,CV,p,841,3251839,,,,,,,,,
CVOE updated,89,1,4,8,H 78,Letter,N,FALSE,CV,q,802,3253151,,,,,,,,,
CVOE updated,89,1,4,9,P 92,Letter,N,FALSE,CV,q,878,3254543,,,,,,,,,
CVOE updated,89,1,4,10,E 05,Number,Y,FALSE,OE,p,686,3255751,,,,,,,,,
CVOE updated,89,1,4,11,P 57,Letter,Y,TRUE,CV,q,2446,3258711,,,,,,,,,
CVOE updated,89,1,4,12,D 88,Number,Y,FALSE,OE,p,1335,3260567,,,,,,,,,
CVOE updated,89,1,4,13,O 89,Letter,Y,FALSE,CV,q,1085,3262167,,,,,,,,,
CVOE updated,89,1,4,14,U 43,Number,Y,FALSE,OE,q,2628,3265311,,,,,,,,,
CVOE updated,89,1,4,15,H 10,Number,N,FALSE,OE,p,1158,3266991,,,,,,,,,
CVOE updated,89,1,4,16,S 07,Letter,Y,TRUE,CV,q,1283,3268783,,,,,,,,,
CVOE updated,89,1,4,17,J 10,Letter,N,FALSE,CV,q,1091,3270391,,,,,,,,,
CVOE updated,89,1,4,18,H 54,Number,Y,FALSE,OE,p,899,3271799,,,,,,,,,
CVOE updated,89,1,4,19,E 99,Number,N,FALSE,OE,q,2130,3274447,,,,,,,,,
CVOE updated,89,1,4,20,J 36,Letter,Y,FALSE,CV,q,1312,3276279,,,,,,,,,
CVOE updated,89,1,4,21,I 94,Letter,N,TRUE,CV,p,2119,3278919,,,,,,,,,
CVOE updated,89,1,4,22,A 82,Letter,N,TRUE,CV,p,781,3280215,,,,,,,,,
CVOE updated,89,1,4,23,H 79,Number,Y,TRUE,OE,q,1497,3282231,,,,,,,,,
CVOE updated,89,1,4,24,J 60,Number,N,FALSE,OE,p,1472,3284223,,,,,,,,,
CVOE updated,89,1,4,25,S 28,Letter,Y,FALSE,CV,q,2841,3287575,,,,,,,,,
CVOE updated,89,1,4,26,P 11,Number,Y,TRUE,OE,q,2699,3290783,,,,,,,,,
CVOE updated,89,1,4,27,D 39,Number,N,TRUE,OE,q,1290,3292591,,,,,,,,,
CVOE updated,89,1,4,28,E 90,Number,N,TRUE,OE,p,842,3293943,,,,,,,,,
CVOE updated,89,1,4,29,I 38,Number,N,TRUE,OE,p,907,3295359,,,,,,,,,
CVOE updated,89,1,4,30,S 35,Letter,Y,TRUE,CV,q,1107,3296975,,,,,,,,,
CVOE updated,89,1,4,31,D 41,Number,Y,TRUE,OE,q,1250,3298735,,,,,,,,,
CVOE updated,89,1,4,32,E 06,Number,N,TRUE,OE,p,819,3300071,,,,,,,,,
CVOE updated,89,1,4,33,A 27,Number,N,FALSE,OE,q,1006,3301591,,,,,,,,,
CVOE updated,89,1,4,34,U 95,Letter,Y,FALSE,CV,p,1257,3303359,,,,,,,,,
CVOE updated,89,1,4,35,A 53,Letter,N,FALSE,CV,p,882,3304751,,,,,,,,,
CVOE updated,89,1,4,36,E 43,Letter,N,FALSE,CV,p,914,3306183,,,,,,,,,
CVOE updated,89,1,4,37,P 05,Number,Y,TRUE,OE,q,1089,3307791,,,,,,,,,
CVOE updated,89,1,4,38,O 19,Letter,Y,FALSE,CV,p,1705,3310007,,,,,,,,,
CVOE updated,89,1,4,39,I 96,Number,Y,TRUE,OE,p,1416,3311935,,,,,,,,,
CVOE updated,89,1,4,40,A 88,Number,N,TRUE,OE,p,1266,3313719,,,,,,,,,
CVOE updated,89,1,4,41,I 67,Number,N,FALSE,OE,q,787,3315023,,,,,,,,,
CVOE updated,89,1,4,42,D 40,Number,N,FALSE,OE,p,1471,3317007,,,,,,,,,
CVOE updated,89,1,4,43,P 79,Letter,Y,TRUE,CV,q,975,3318495,,,,,,,,,
CVOE updated,89,1,4,44,U 24,Number,Y,TRUE,OE,p,1396,3320399,,,,,,,,,
CVOE updated,89,1,4,45,P 74,Number,N,FALSE,OE,p,951,3321871,,,,,,,,,
CVOE updated,89,1,4,46,E 70,Number,N,TRUE,OE,p,836,3323223,,,,,,,,,
CVOE updated,89,1,4,47,S 27,Number,N,TRUE,OE,q,1070,3324807,,,,,,,,,
CVOE updated,89,1,4,48,E 54,Letter,Y,TRUE,CV,p,1407,3326727,,,,,,,,,
CVOE updated,89,1,4,49,A 53,Letter,N,FALSE,CV,p,730,3327967,,,,,,,,,
CVOE updated,89,1,4,50,P 34,Letter,N,FALSE,CV,q,1008,3329495,,,,,,,,,
CVOE updated,89,1,4,51,D 74,Number,Y,FALSE,OE,p,899,3330903,,,,,,,,,
CVOE updated,89,1,4,52,A 03,Letter,Y,FALSE,CV,p,1570,3332991,,,,,,,,,
CVOE updated,89,1,4,53,E 24,Number,Y,TRUE,OE,p,1295,3334799,,,,,,,,,
CVOE updated,89,1,4,54,I 58,Letter,Y,TRUE,CV,p,2110,3337431,,,,,,,,,
CVOE updated,89,1,4,55,D 77,Number,Y,TRUE,OE,q,1061,3339015,,,,,,,,,
CVOE updated,89,1,4,56,S 75,Number,N,TRUE,OE,q,2493,3342031,,,,,,,,,
CVOE updated,89,1,4,57,I 20,Letter,Y,TRUE,CV,p,1036,3343591,,,,,,,,,
CVOE updated,89,1,4,58,J 52,Letter,N,FALSE,CV,q,1158,3345263,,,,,,,,,
CVOE updated,89,1,4,59,A 38,Number,Y,TRUE,OE,p,1755,3347527,,,,,,,,,
CVOE updated,89,1,4,60,I 60,Letter,Y,TRUE,CV,p,1360,3349399,,,,,,,,,
CVOE updated,89,1,4,61,S 51,Number,Y,TRUE,OE,q,1357,3351279,,,,,,,,,
CVOE updated,89,1,4,62,D 63,Letter,Y,TRUE,CV,q,1210,3352999,,,,,,,,,
CVOE updated,89,1,4,63,U 27,Letter,N,FALSE,CV,p,901,3354423,,,,,,,,,
CVOE updated,89,1,4,64,J 77,Letter,N,TRUE,CV,q,740,3355679,,,,,,,,,
CVOE updated,89,1,4,65,O 15,Number,Y,FALSE,OE,q,1682,3357871,,,,,,,,,
CVOE updated,89,1,4,66,J 20,Letter,Y,FALSE,CV,q,2466,3360855,,,,,,,,,
CVOE updated,89,1,4,67,U 97,Number,Y,FALSE,OE,q,1034,3362407,,,,,,,,,
CVOE updated,89,1,4,68,H 03,Number,N,TRUE,OE,q,1556,3364479,,,,,,,,,
CVOE updated,89,1,4,69,O 04,Letter,Y,TRUE,CV,p,1113,3366103,,,,,,,,,
CVOE updated,89,1,4,70,E 10,Letter,N,TRUE,CV,p,1376,3367999,,,,,,,,,
CVOE updated,89,1,4,71,I 52,Letter,N,TRUE,CV,p,1532,3370055,,,,,,,,,
CVOE updated,89,1,4,72,H 81,Number,Y,TRUE,OE,q,1146,3371719,,,,,,,,,
CVOE updated,89,1,4,73,I 41,Number,N,FALSE,OE,q,991,3373231,,,,,,,,,
CVOE updated,89,1,4,74,U 19,Letter,Y,FALSE,CV,p,1483,3375223,,,,,,,,,
CVOE updated,89,1,4,75,O 17,Number,Y,FALSE,OE,q,2075,3377815,,,,,,,,,
CVOE updated,89,1,4,76,A 10,Number,N,TRUE,OE,p,1299,3379623,,,,,,,,,
CVOE updated,89,1,4,77,P 93,Letter,Y,TRUE,CV,q,930,3381071,,,,,,,,,
CVOE updated,89,1,4,78,E 59,Letter,N,FALSE,CV,p,4672,3386263,,,,,,,,,
CVOE updated,89,1,4,79,O 53,Letter,N,FALSE,CV,p,848,3387623,,,,,,,,,
CVOE updated,89,1,4,80,A 96,Letter,N,TRUE,CV,p,858,3388999,,,,,,,,,
CVOE updated,89,1,4,81,H 36,Letter,Y,FALSE,CV,q,939,3390447,,,,,,,,,
CVOE updated,89,1,4,82,A 63,Letter,N,FALSE,CV,p,1225,3392183,,,,,,,,,
CVOE updated,89,1,4,83,I 38,Letter,N,TRUE,CV,q,763,3393455,,,,,,,,,
CVOE updated,89,1,4,84,O 51,Number,Y,FALSE,OE,p,1216,3395191,,,,,,,,,
CVOE updated,89,1,4,85,J 26,Number,N,FALSE,OE,q,731,3396439,,,,,,,,,
CVOE updated,89,1,4,86,S 34,Letter,Y,FALSE,CV,q,864,3397823,,,,,,,,,
CVOE updated,89,1,4,87,U 85,Number,Y,FALSE,OE,q,969,3399311,,,,,,,,,
CVOE updated,89,1,4,88,J 77,Number,N,TRUE,OE,q,902,3400727,,,,,,,,,
CVOE updated,89,1,4,89,I 73,Letter,Y,FALSE,CV,p,1437,3402679,,,,,,,,,
CVOE updated,89,1,4,90,H 46,Number,Y,FALSE,OE,q,863,3404055,,,,,,,,,
CVOE updated,89,1,4,91,D 04,Number,N,FALSE,OE,p,1463,3406039,,,,,,,,,
CVOE updated,89,1,4,92,P 72,Letter,Y,FALSE,CV,q,1440,3407999,,,,,,,,,
CVOE updated,89,1,4,93,D 99,Number,Y,TRUE,OE,q,866,3409375,,,,,,,,,
CVOE updated,89,1,4,94,U 25,Letter,Y,FALSE,CV,p,1034,3410927,,,,,,,,,
CVOE updated,89,1,4,95,O 32,Letter,N,TRUE,CV,p,1900,3413343,,,,,,,,,
CVOE updated,89,1,4,96,E 80,Letter,N,TRUE,CV,p,1371,3415231,,,,,,,,,
CVOE updated,89,1,4,97,O 84,Number,Y,TRUE,OE,p,1552,3417295,,,,,,,,,
CVOE updated,89,1,4,98,A 78,Number,N,TRUE,OE,p,797,3418607,,,,,,,,,
CVOE updated,89,1,4,99,S 05,Number,N,TRUE,OE,q,752,3419879,,,,,,,,,
CVOE updated,89,1,4,100,U 35,Letter,Y,FALSE,CV,p,1046,3421439,,,,,,,,,
CVOE updated,89,1,4,101,H 14,Letter,N,FALSE,CV,q,775,3422735,,,,,,,,,
CVOE updated,89,1,4,102,U 15,Number,Y,FALSE,OE,q,827,3424071,,,,,,,,,
CVOE updated,89,1,4,103,E 36,Letter,Y,TRUE,CV,p,997,3425591,,,,,,,,,
CVOE updated,89,1,4,104,P 70,Letter,N,FALSE,CV,q,1432,3427543,,,,,,,,,
CVOE updated,89,1,4,105,O 44,Number,Y,TRUE,OE,p,1146,3429207,,,,,,,,,
CVOE updated,89,1,4,106,S 41,Letter,Y,TRUE,CV,q,967,3430695,,,,,,,,,
CVOE updated,89,1,4,107,D 83,Letter,N,TRUE,CV,q,1580,3432791,,,,,,,,,
CVOE updated,89,1,4,108,J 39,Letter,N,TRUE,CV,q,872,3434183,,,,,,,,,
CVOE updated,89,1,4,109,S 22,Number,Y,FALSE,OE,q,777,3435471,,,,,,,,,
CVOE updated,89,1,4,110,D 89,Letter,Y,TRUE,CV,q,580,3436575,,,,,,,,,
CVOE updated,89,1,4,111,P 87,Letter,N,TRUE,CV,q,640,3437735,,,,,,,,,
CVOE updated,89,1,4,112,H 42,Letter,N,FALSE,CV,q,538,3438783,,,,,,,,,
CVOE updated,89,1,4,113,S 49,Letter,N,TRUE,CV,q,576,3439871,,,,,,,,,
CVOE updated,89,1,4,114,J 20,Number,Y,FALSE,OE,p,1396,3441791,,,,,,,,,
CVOE updated,89,1,4,115,O 19,Letter,Y,FALSE,CV,p,1375,3443687,,,,,,,,,
CVOE updated,89,1,4,116,H 50,Letter,N,FALSE,CV,q,1123,3445335,,,,,,,,,
CVOE updated,89,1,4,117,I 68,Number,Y,TRUE,OE,p,962,3446807,,,,,,,,,
CVOE updated,89,1,4,118,J 72,Number,N,FALSE,OE,p,830,3448159,,,,,,,,,
CVOE updated,89,1,4,119,O 21,Number,N,FALSE,OE,p,640,3449319,,,,,,,,,
CVOE updated,89,1,4,120,H 22,Number,N,FALSE,OE,p,802,3450631,,,,,,,,,
CVOE_B,90,1,1,11,A 24,,,TRUE,OE,p,1565,2165540,,,,,,,,,
CVOE_B,90,1,1,12,O 83,,,FALSE,OE,q,546,2166604,,,,,,,,,
CVOE_B,90,1,1,13,H 55,,,TRUE,OE,q,439,2167564,,,,,,,,,
CVOE_B,90,1,1,14,P 10,,,FALSE,OE,p,497,2168572,,,,,,,,,
CVOE_B,90,1,1,15,D 30,,,FALSE,OE,p,360,2169452,,,,,,,,,
CVOE_B,90,1,1,16,U 62,,,TRUE,OE,p,405,2170380,,,,,,,,,
CVOE_B,90,1,1,17,P 95,,,TRUE,OE,q,488,2171380,,,,,,,,,
CVOE_B,90,1,1,18,U 06,,,TRUE,OE,p,448,2172340,,,,,,,,,
CVOE_B,90,1,1,19,E 75,,,FALSE,OE,q,569,2173428,,,,,,,,,
CVOE_B,90,1,1,20,I 67,,,FALSE,OE,q,422,2174364,,,,,,,,,
CVOE_B,90,1,1,21,S 13,,,TRUE,OE,q,464,2175340,,,,,,,,,
CVOE_B,90,1,1,22,P 78,,,FALSE,OE,p,457,2176316,,,,,,,,,
CVOE_B,90,1,1,23,I 15,,,FALSE,OE,q,410,2177236,,,,,,,,,
CVOE_B,90,1,1,24,D 27,,,TRUE,OE,q,389,2178148,,,,,,,,,
CVOE_B,90,1,1,25,O 94,,,TRUE,OE,p,489,2179148,,,,,,,,,
CVOE_B,90,1,1,26,A 65,,,FALSE,OE,q,561,2180220,,,,,,,,,
CVOE_B,90,1,1,27,I 42,,,TRUE,OE,p,469,2181212,,,,,,,,,
CVOE_B,90,1,1,28,E 25,,,FALSE,OE,q,566,2182292,,,,,,,,,
CVOE_B,90,1,1,29,H 49,,,TRUE,OE,p,459,2183268,,,,,,,,,
CVOE_B,90,1,1,30,S 18,,,FALSE,OE,p,804,2184580,,,,,,,,,
CVOE_B,90,1,1,31,H 51,,,TRUE,OE,q,559,2185652,,,,,,,,,
CVOE_B,90,1,1,32,U 14,,,TRUE,OE,p,652,2186828,,,,,,,,,
CVOE_B,90,1,1,33,E 02,,,TRUE,OE,p,461,2187804,,,,,,,,,
CVOE_B,90,1,1,34,J 26,,,FALSE,OE,p,685,2189012,,,,,,,,,
CVOE_B,90,1,1,35,D 24,,,FALSE,OE,p,429,2189956,,,,,,,,,
CVOE_B,90,1,1,36,O 50,,,TRUE,OE,p,559,2191036,,,,,,,,,
CVOE_B,90,1,1,37,U 16,,,TRUE,OE,p,468,2192028,,,,,,,,,
CVOE_B,90,1,1,38,O 15,,,FALSE,OE,q,525,2193068,,,,,,,,,
CVOE_B,90,1,1,39,D 32,,,FALSE,OE,q,467,2194044,,,,,,,,,
CVOE_B,90,1,1,40,S 67,,,TRUE,OE,q,620,2195180,,,,,,,,,
CVOE_B,90,1,1,41,J 74,,,FALSE,OE,p,582,2196276,,,,,,,,,
CVOE_B,90,1,1,42,D 92,,,FALSE,OE,p,386,2197180,,,,,,,,,
CVOE_B,90,1,1,43,A 65,,,FALSE,OE,q,622,2198316,,,,,,,,,
CVOE_B,90,1,1,44,I 87,,,FALSE,OE,q,521,2199348,,,,,,,,,
CVOE_B,90,1,1,45,H 61,,,TRUE,OE,q,639,2200500,,,,,,,,,
CVOE_B,90,1,1,46,E 59,,,FALSE,OE,q,545,2201556,,,,,,,,,
CVOE_B,90,1,1,47,I 33,,,FALSE,OE,q,1487,2203564,,,,,,,,,
CVOE_B,90,1,1,48,O 90,,,TRUE,OE,p,686,2204764,,,,,,,,,
CVOE_B,90,1,1,49,U 51,,,FALSE,OE,q,750,2206028,,,,,,,,,
CVOE_B,90,1,1,50,A 10,,,TRUE,OE,p,868,2207412,,,,,,,,,
CVOE_B,90,1,1,51,E 50,,,TRUE,OE,p,1668,2209596,,,,,,,,,
CVOE_B,90,1,1,52,D 92,,,FALSE,OE,p,685,2210796,,,,,,,,,
CVOE_B,90,1,1,53,E 60,,,TRUE,OE,p,517,2211828,,,,,,,,,
CVOE_B,90,1,1,54,A 95,,,FALSE,OE,q,851,2213196,,,,,,,,,
CVOE_B,90,1,1,55,E 64,,,TRUE,OE,p,604,2214316,,,,,,,,,
CVOE_B,90,1,1,56,P 20,,,FALSE,OE,p,1192,2216020,,,,,,,,,
CVOE_B,90,1,1,57,S 06,,,FALSE,OE,p,652,2217180,,,,,,,,,
CVOE_B,90,1,1,58,P 64,,,FALSE,OE,p,637,2218332,,,,,,,,,
CVOE_B,90,1,1,59,U 70,,,TRUE,OE,p,615,2219460,,,,,,,,,
CVOE_B,90,1,1,60,S 16,,,FALSE,OE,p,457,2220436,,,,,,,,,
CVOE_B,90,1,1,61,E 35,,,FALSE,OE,q,563,2221508,,,,,,,,,
CVOE_B,90,1,1,62,I 93,,,FALSE,OE,q,535,2222564,,,,,,,,,
CVOE_B,90,1,1,63,D 63,,,TRUE,OE,q,517,2223596,,,,,,,,,
CVOE_B,90,1,1,64,U 89,,,FALSE,OE,q,460,2224572,,,,,,,,,
CVOE_B,90,1,1,65,E 91,,,FALSE,OE,q,524,2225620,,,,,,,,,
CVOE_B,90,1,1,66,A 12,,,TRUE,OE,p,507,2226636,,,,,,,,,
CVOE_B,90,1,1,67,P 56,,,FALSE,OE,p,474,2227620,,,,,,,,,
CVOE_B,90,1,1,68,S 65,,,TRUE,OE,q,835,2228964,,,,,,,,,
CVOE_B,90,1,1,69,P 07,,,TRUE,OE,q,413,2229892,,,,,,,,,
CVOE_B,90,1,1,70,I 77,,,FALSE,OE,q,447,2230860,,,,,,,,,
CVOE_B,90,1,1,71,J 19,,,TRUE,OE,q,457,2231836,,,,,,,,,
CVOE_B,90,1,1,72,O 59,,,FALSE,OE,q,594,2232940,,,,,,,,,
CVOE_B,90,1,1,73,J 15,,,TRUE,OE,q,581,2234044,,,,,,,,,
CVOE_B,90,1,1,74,I 89,,,FALSE,OE,q,617,2235180,,,,,,,,,
CVOE_B,90,1,1,75,O 97,,,FALSE,OE,q,884,2236580,,,,,,,,,
CVOE_B,90,1,1,76,A 92,,,TRUE,OE,p,899,2237996,,,,,,,,,
CVOE_B,90,1,1,77,J 90,,,FALSE,OE,p,603,2239116,,,,,,,,,
CVOE_B,90,1,1,78,H 65,,,TRUE,OE,q,494,2240124,,,,,,,,,
CVOE_B,90,1,1,79,H 17,,,TRUE,OE,q,485,2241132,,,,,,,,,
CVOE_B,90,1,1,80,S 26,,,FALSE,OE,p,501,2242148,,,,,,,,,
CVOE_B,90,1,1,81,D 56,,,FALSE,OE,p,540,2243204,,,,,,,,,
CVOE_B,90,1,1,82,I 91,,,FALSE,OE,q,426,2244140,,,,,,,,,
CVOE_B,90,1,1,83,J 11,,,TRUE,OE,q,452,2245116,,,,,,,,,
CVOE_B,90,1,1,84,O 28,,,TRUE,OE,p,462,2246092,,,,,,,,,
CVOE_B,90,1,1,85,H 29,,,TRUE,OE,q,518,2247132,,,,,,,,,
CVOE_B,90,1,1,86,J 25,,,TRUE,OE,q,1110,2248757,,,,,,,,,
CVOE_B,90,1,1,87,A 73,,,FALSE,OE,q,875,2250156,,,,,,,,,
CVOE_B,90,1,1,88,J 63,,,TRUE,OE,q,467,2251148,,,,,,,,,
CVOE_B,90,1,1,89,U 84,,,TRUE,OE,p,516,2252180,,,,,,,,,
CVOE_B,90,1,1,90,A 58,,,TRUE,OE,p,475,2253173,,,,,,,,,
CVOE_B,90,1,1,91,S 43,,,TRUE,OE,q,531,2254212,,,,,,,,,
CVOE_B,90,1,1,92,H 54,,,FALSE,OE,q,513,2255244,,,,,,,,,
CVOE_B,90,1,1,93,D 4,,,FALSE,OE,p,824,2256588,,,,,,,,,
CVOE_B,90,1,1,94,J 75,,,TRUE,OE,q,626,2257724,,,,,,,,,
CVOE_B,90,1,1,95,D 19,,,TRUE,OE,q,444,2258692,,,,,,,,,
CVOE_B,90,1,1,96,J 38,,,FALSE,OE,p,637,2259852,,,,,,,,,
CVOE_B,90,1,1,97,I 56,,,TRUE,OE,p,519,2260884,,,,,,,,,
CVOE_B,90,1,1,98,P 87,,,TRUE,OE,q,566,2261964,,,,,,,,,
CVOE_B,90,1,1,99,O 80,,,TRUE,OE,p,618,2263100,,,,,,,,,
CVOE_B,90,1,1,100,U 60,,,TRUE,OE,p,421,2264036,,,,,,,,,
CVOE_B,90,1,1,101,P 48,,,FALSE,OE,p,624,2265172,,,,,,,,,
CVOE_B,90,1,1,102,H 64,,,FALSE,OE,p,626,2266308,,,,,,,,,
CVOE_B,90,1,1,103,A 13,,,FALSE,OE,q,652,2267484,,,,,,,,,
CVOE_B,90,1,1,104,H 68,,,FALSE,OE,p,646,2268645,,,,,,,,,
CVOE_B,90,1,1,105,E 16,,,TRUE,OE,p,591,2269756,,,,,,,,,
CVOE_B,90,1,1,106,S 71,,,TRUE,OE,q,675,2270940,,,,,,,,,
CVOE_B,90,1,2,11,A 71,,,FALSE,CV,p,1601,2314069,,,,,,,,,
CVOE_B,90,1,2,12,I 66,,,TRUE,CV,p,411,2314996,,,,,,,,,
CVOE_B,90,1,2,13,S 30,,,FALSE,CV,q,534,2316053,,,,,,,,,
CVOE_B,90,1,2,14,D 20,,,FALSE,CV,q,932,2317501,,,,,,,,,
CVOE_B,90,1,2,15,I 31,,,FALSE,CV,p,698,2318717,,,,,,,,,
CVOE_B,90,1,2,16,P 16,,,FALSE,CV,q,2321,2321557,,,,,,,,,
CVOE_B,90,1,2,17,A 49,,,FALSE,CV,p,432,2322501,,,,,,,,,
CVOE_B,90,1,2,18,O 64,,,TRUE,CV,p,610,2323629,,,,,,,,,
CVOE_B,90,1,2,19,D 02,,,FALSE,CV,p,356,2324509,,,,,,,,,
CVOE_B,90,1,2,20,P 81,,,TRUE,CV,q,610,2325629,,,,,,,,,
CVOE_B,90,1,2,21,J 58,,,FALSE,CV,q,364,2326517,,,,,,,,,
CVOE_B,90,1,2,22,A 22,,,TRUE,CV,p,433,2327469,,,,,,,,,
CVOE_B,90,1,2,23,J 72,,,FALSE,CV,q,530,2328516,,,,,,,,,
CVOE_B,90,1,2,24,P 91,,,TRUE,CV,q,529,2329565,,,,,,,,,
CVOE_B,90,1,2,25,E 19,,,FALSE,CV,p,671,2330757,,,,,,,,,
CVOE_B,90,1,2,26,I 30,,,TRUE,CV,p,495,2331765,,,,,,,,,
CVOE_B,90,1,2,27,D 91,,,TRUE,CV,q,463,2332749,,,,,,,,,
CVOE_B,90,1,2,28,O 48,,,TRUE,CV,p,415,2333685,,,,,,,,,
CVOE_B,90,1,2,29,A 89,,,FALSE,CV,p,482,2334685,,,,,,,,,
CVOE_B,90,1,2,30,U 11,,,FALSE,CV,q,634,2335837,,,,,,,,,
CVOE_B,90,1,2,31,I 76,,,TRUE,CV,p,1188,2337541,,,,,,,,,
CVOE_B,90,1,2,32,U 89,,,FALSE,CV,p,575,2338629,,,,,,,,,
CVOE_B,90,1,2,33,D 63,,,TRUE,CV,q,628,2339765,,,,,,,,,
CVOE_B,90,1,2,34,H 70,,,FALSE,CV,q,622,2340909,,,,,,,,,
CVOE_B,90,1,2,35,D 48,,,FALSE,CV,q,361,2341781,,,,,,,,,
CVOE_B,90,1,2,36,P 56,,,FALSE,CV,q,429,2342733,,,,,,,,,
CVOE_B,90,1,2,37,O 77,,,FALSE,CV,p,399,2343653,,,,,,,,,
CVOE_B,90,1,2,38,P 42,,,FALSE,CV,q,402,2344573,,,,,,,,,
CVOE_B,90,1,2,39,H 22,,,FALSE,CV,q,414,2345501,,,,,,,,,
CVOE_B,90,1,2,40,E 42,,,TRUE,CV,p,424,2346445,,,,,,,,,
CVOE_B,90,1,2,41,J 28,,,FALSE,CV,q,339,2347293,,,,,,,,,
CVOE_B,90,1,2,42,E 95,,,FALSE,CV,q,481,2348285,,,,,,,,,
CVOE_B,90,1,2,43,S 63,,,TRUE,CV,q,609,2349413,,,,,,,,,
CVOE_B,90,1,2,44,H 50,,,FALSE,CV,q,420,2350341,,,,,,,,,
CVOE_B,90,1,2,45,S 33,,,TRUE,CV,q,423,2351277,,,,,,,,,
CVOE_B,90,1,2,46,P 57,,,TRUE,CV,q,401,2352189,,,,,,,,,
CVOE_B,90,1,2,47,E 23,,,FALSE,CV,p,596,2353301,,,,,,,,,
CVOE_B,90,1,2,48,S 61,,,TRUE,CV,q,464,2354285,,,,,,,,,
CVOE_B,90,1,2,49,U 67,,,FALSE,CV,p,504,2355309,,,,,,,,,
CVOE_B,90,1,2,50,H 32,,,FALSE,CV,q,1096,2356917,,,,,,,,,
CVOE_B,90,1,2,51,U 50,,,TRUE,CV,p,583,2358021,,,,,,,,,
CVOE_B,90,1,2,52,O 49,,,FALSE,CV,p,475,2359013,,,,,,,,,
CVOE_B,90,1,2,53,U 32,,,TRUE,CV,p,875,2360397,,,,,,,,,
CVOE_B,90,1,2,54,J 78,,,FALSE,CV,q,492,2361397,,,,,,,,,
CVOE_B,90,1,2,55,S 54,,,FALSE,CV,q,476,2362381,,,,,,,,,
CVOE_B,90,1,2,56,J 27,,,TRUE,CV,q,404,2363293,,,,,,,,,
CVOE_B,90,1,2,57,S 06,,,FALSE,CV,q,376,2364181,,,,,,,,,
CVOE_B,90,1,2,58,D 67,,,TRUE,CV,q,516,2365221,,,,,,,,,
CVOE_B,90,1,2,59,A 79,,,FALSE,CV,p,834,2366573,,,,,,,,,
CVOE_B,90,1,2,60,S 52,,,FALSE,CV,q,428,2367517,,,,,,,,,
CVOE_B,90,1,2,61,U 16,,,TRUE,CV,p,382,2368421,,,,,,,,,
CVOE_B,90,1,2,62,O 82,,,TRUE,CV,p,386,2369325,,,,,,,,,
CVOE_B,90,1,2,63,H 87,,,TRUE,CV,q,526,2370365,,,,,,,,,
CVOE_B,90,1,2,64,I 32,,,TRUE,CV,p,932,2371821,,,,,,,,,
CVOE_B,90,1,2,65,U 37,,,FALSE,CV,p,586,2372925,,,,,,,,,
CVOE_B,90,1,2,66,I 42,,,TRUE,CV,p,830,2374269,,,,,,,,,
CVOE_B,90,1,2,67,D 65,,,TRUE,CV,q,624,2375413,,,,,,,,,
CVOE_B,90,1,2,68,U 77,,,FALSE,CV,p,682,2376605,,,,,,,,,
CVOE_B,90,1,2,69,E 12,,,TRUE,CV,p,866,2377989,,,,,,,,,
CVOE_B,90,1,2,70,I 60,,,TRUE,CV,p,419,2378925,,,,,,,,,
CVOE_B,90,1,2,71,J 36,,,FALSE,CV,q,469,2379909,,,,,,,,,
CVOE_B,90,1,2,72,H 75,,,TRUE,CV,q,518,2380941,,,,,,,,,
CVOE_B,90,1,2,73,I 50,,,TRUE,CV,p,812,2382269,,,,,,,,,
CVOE_B,90,1,2,74,E 99,,,FALSE,CV,p,543,2383333,,,,,,,,,
CVOE_B,90,1,2,75,A 86,,,TRUE,CV,p,740,2384597,,,,,,,,,
CVOE_B,90,1,2,76,U 48,,,TRUE,CV,p,522,2385629,,,,,,,,,
CVOE_B,90,1,2,77,E 01,,,FALSE,CV,p,457,2386597,,,,,,,,,
CVOE_B,90,1,2,78,A 78,,,TRUE,CV,p,394,2387501,,,,,,,,,
CVOE_B,90,1,2,79,P 60,,,FALSE,CV,q,517,2388541,,,,,,,,,
CVOE_B,90,1,2,80,E 43,,,FALSE,CV,p,404,2389461,,,,,,,,,
CVOE_B,90,1,2,81,D 69,,,TRUE,CV,q,503,2390477,,,,,,,,,
CVOE_B,90,1,2,82,H 11,,,TRUE,CV,q,678,2391669,,,,,,,,,
CVOE_B,90,1,2,83,P 43,,,TRUE,CV,q,374,2392565,,,,,,,,,
CVOE_B,90,1,2,84,O 67,,,FALSE,CV,p,515,2393589,,,,,,,,,
CVOE_B,90,1,2,85,S 91,,,FALSE,CV,q,642,2394749,,,,,,,,,
CVOE_B,90,1,2,86,J 68,,,TRUE,CV,q,380,2395637,,,,,,,,,
CVOE_B,90,1,2,87,S 47,,,FALSE,CV,q,391,2396549,,,,,,,,,
CVOE_B,90,1,2,88,I 81,,,TRUE,CV,p,611,2397669,,,,,,,,,
CVOE_B,90,1,2,89,J 39,,,FALSE,CV,q,638,2398829,,,,,,,,,
CVOE_B,90,1,2,90,A 11,,,TRUE,CV,p,624,2399965,,,,,,,,,
CVOE_B,90,1,2,91,O 76,,,FALSE,CV,p,706,2401181,,,,,,,,,
CVOE_B,90,1,2,92,A 62,,,FALSE,CV,p,1074,2402765,,,,,,,,,
CVOE_B,90,1,2,93,O 27,,,TRUE,CV,p,442,2403717,,,,,,,,,
CVOE_B,90,1,2,94,E 66,,,FALSE,CV,p,348,2404573,,,,,,,,,
CVOE_B,90,1,2,95,J 62,,,TRUE,CV,q,618,2405709,,,,,,,,,
CVOE_B,90,1,2,96,H 72,,,TRUE,CV,q,636,2406861,,,,,,,,,
CVOE_B,90,1,2,97,E 49,,,TRUE,CV,p,806,2408181,,,,,,,,,
CVOE_B,90,1,2,98,D 52,,,TRUE,CV,q,3617,2412309,,,,,,,,,
CVOE_B,90,1,2,99,H 62,,,TRUE,CV,q,892,2413717,,,,,,,,,
CVOE_B,90,1,2,100,I 11,,,TRUE,CV,q,340,2414565,,,,,,,,,
CVOE_B,90,1,2,101,A 98,,,FALSE,CV,p,530,2415605,,,,,,,,,
CVOE_B,90,1,2,102,H 29,,,FALSE,CV,q,495,2416621,,,,,,,,,
CVOE_B,90,1,2,103,E 83,,,TRUE,CV,p,455,2417597,,,,,,,,,
CVOE_B,90,1,2,104,D 43,,,FALSE,CV,q,440,2418549,,,,,,,,,
CVOE_B,90,1,2,105,P 45,,,TRUE,CV,q,362,2419421,,,,,,,,,
CVOE_B,90,1,2,106,J 17,,,TRUE,CV,q,447,2420389,,,,,,,,,
CVOE_B,90,1,3,11,U 38,Number,N,TRUE,OE,p,2214,2489861,,,,,,,,,
CVOE_B,90,1,3,12,P 73,Number,N,TRUE,OE,q,904,2491285,,,,,,,,,
CVOE_B,90,1,3,13,U 95,Letter,Y,FALSE,CV,p,848,2492645,,,,,,,,,
CVOE_B,90,1,3,14,J 61,Number,Y,TRUE,OE,q,1849,2495013,,,,,,,,,
CVOE_B,90,1,3,15,D 51,Number,N,TRUE,OE,q,954,2496485,,,,,,,,,
CVOE_B,90,1,3,16,S 28,Number,N,FALSE,OE,p,951,2497949,,,,,,,,,
CVOE_B,90,1,3,17,A 56,Letter,Y,TRUE,CV,p,1804,2500269,,,,,,,,,
CVOE_B,90,1,3,18,H 78,Letter,N,FALSE,CV,q,1448,2502229,,,,,,,,,
CVOE_B,90,1,3,19,P 92,Letter,N,FALSE,CV,q,681,2503429,,,,,,,,,
CVOE_B,90,1,3,20,E 05,Number,Y,FALSE,OE,q,1017,2504965,,,,,,,,,
CVOE_B,90,1,3,21,P 57,Letter,Y,TRUE,CV,q,923,2506405,,,,,,,,,
CVOE_B,90,1,3,22,D 88,Number,Y,FALSE,OE,p,2090,2509005,,,,,,,,,
CVOE_B,90,1,3,23,O 89,Letter,Y,FALSE,CV,p,1978,2511493,,,,,,,,,
CVOE_B,90,1,3,24,U 43,Number,Y,FALSE,OE,q,957,2512973,,,,,,,,,
CVOE_B,90,1,3,25,H 10,Number,N,FALSE,OE,p,1147,2514629,,,,,,,,,
CVOE_B,90,1,3,26,S 07,Letter,Y,TRUE,CV,q,1880,2517029,,,,,,,,,
CVOE_B,90,1,3,27,J 10,Letter,N,FALSE,CV,q,840,2518389,,,,,,,,,
CVOE_B,90,1,3,28,H 54,Number,Y,FALSE,OE,p,1122,2520021,,,,,,,,,
CVOE_B,90,1,3,29,E 99,Number,N,FALSE,OE,q,872,2521405,,,,,,,,,
CVOE_B,90,1,3,30,J 36,Letter,Y,FALSE,CV,q,1217,2523133,,,,,,,,,
CVOE_B,90,1,3,31,I 94,Letter,N,TRUE,CV,p,899,2524549,,,,,,,,,
CVOE_B,90,1,3,32,A 82,Letter,N,TRUE,CV,p,1067,2526133,,,,,,,,,
CVOE_B,90,1,3,33,H 79,Number,Y,TRUE,OE,q,867,2527517,,,,,,,,,
CVOE_B,90,1,3,34,J 60,Number,N,FALSE,OE,p,884,2528917,,,,,,,,,
CVOE_B,90,1,3,35,S 28,Letter,Y,FALSE,CV,p,868,2530301,,,,,,,,,
CVOE_B,90,1,3,36,P 11,Number,Y,TRUE,OE,q,2996,2533813,,,,,,,,,
CVOE_B,90,1,3,37,D 39,Number,N,TRUE,OE,q,1023,2535357,,,,,,,,,
CVOE_B,90,1,3,38,E 90,Number,N,TRUE,OE,p,1354,2537221,,,,,,,,,
CVOE_B,90,1,3,39,I 38,Number,N,TRUE,OE,p,1111,2538845,,,,,,,,,
CVOE_B,90,1,3,40,S 35,Letter,Y,TRUE,CV,q,614,2539981,,,,,,,,,
CVOE_B,90,1,3,41,D 41,Number,Y,TRUE,OE,q,1176,2541677,,,,,,,,,
CVOE_B,90,1,3,42,E 06,Number,N,TRUE,OE,p,1100,2543301,,,,,,,,,
CVOE_B,90,1,3,43,A 27,Number,N,FALSE,OE,q,1139,2544957,,,,,,,,,
CVOE_B,90,1,3,44,U 95,Letter,Y,FALSE,CV,p,2369,2547837,,,,,,,,,
CVOE_B,90,1,3,45,A 53,Letter,N,FALSE,CV,p,654,2549005,,,,,,,,,
CVOE_B,90,1,3,46,E 43,Letter,N,FALSE,CV,p,671,2550189,,,,,,,,,
CVOE_B,90,1,3,47,P 05,Number,Y,TRUE,OE,q,999,2551701,,,,,,,,,
CVOE_B,90,1,3,48,O 19,Letter,Y,FALSE,CV,p,1243,2553461,,,,,,,,,
CVOE_B,90,1,3,49,I 96,Number,Y,TRUE,OE,p,1436,2555421,,,,,,,,,
CVOE_B,90,1,3,50,A 88,Number,N,TRUE,OE,p,1142,2557077,,,,,,,,,
CVOE_B,90,1,3,51,I 67,Number,N,FALSE,OE,q,1036,2558621,,,,,,,,,
CVOE_B,90,1,3,52,D 40,Number,N,FALSE,OE,p,973,2560109,,,,,,,,,
CVOE_B,90,1,3,53,P 79,Letter,Y,TRUE,CV,q,1138,2561757,,,,,,,,,
CVOE_B,90,1,3,54,U 24,Number,Y,TRUE,OE,p,1120,2563389,,,,,,,,,
CVOE_B,90,1,3,55,P 74,Number,N,FALSE,OE,p,1879,2565781,,,,,,,,,
CVOE_B,90,1,3,56,E 70,Number,N,TRUE,OE,p,830,2567133,,,,,,,,,
CVOE_B,90,1,3,57,S 27,Number,N,TRUE,OE,q,704,2568357,,,,,,,,,
CVOE_B,90,1,3,58,E 54,Letter,Y,TRUE,CV,q,1104,2569973,,,,,,,,,
CVOE_B,90,1,3,59,A 53,Letter,N,FALSE,CV,p,1239,2571725,,,,,,,,,
CVOE_B,90,1,3,60,P 34,Letter,N,FALSE,CV,q,673,2572909,,,,,,,,,
CVOE_B,90,1,3,61,D 74,Number,Y,FALSE,OE,p,1057,2574477,,,,,,,,,
CVOE_B,90,1,3,62,A 03,Letter,Y,FALSE,CV,p,2042,2577029,,,,,,,,,
CVOE_B,90,1,3,63,E 24,Number,Y,TRUE,OE,q,1276,2578813,,,,,,,,,
CVOE_B,90,1,3,64,I 58,Letter,Y,TRUE,CV,p,2380,2581717,,,,,,,,,
CVOE_B,90,1,3,65,D 77,Number,Y,TRUE,OE,q,1056,2583293,,,,,,,,,
CVOE_B,90,1,3,66,S 75,Number,N,TRUE,OE,q,1073,2584877,,,,,,,,,
CVOE_B,90,1,3,67,I 20,Letter,Y,TRUE,CV,p,1194,2586581,,,,,,,,,
CVOE_B,90,1,3,68,J 52,Letter,N,FALSE,CV,q,1013,2588117,,,,,,,,,
CVOE_B,90,1,3,69,A 38,Number,Y,TRUE,OE,p,1311,2589949,,,,,,,,,
CVOE_B,90,1,3,70,I 60,Letter,Y,TRUE,CV,p,1470,2591941,,,,,,,,,
CVOE_B,90,1,3,71,S 51,Number,Y,TRUE,OE,q,1167,2593621,,,,,,,,,
CVOE_B,90,1,3,72,D 63,Letter,Y,TRUE,CV,q,1395,2595533,,,,,,,,,
CVOE_B,90,1,3,73,U 27,Letter,N,FALSE,CV,p,1678,2597733,,,,,,,,,
CVOE_B,90,1,3,74,J 77,Letter,N,TRUE,CV,q,1350,2599605,,,,,,,,,
CVOE_B,90,1,3,75,O 15,Number,Y,FALSE,OE,q,1003,2601125,,,,,,,,,
CVOE_B,90,1,3,76,J 20,Letter,Y,FALSE,CV,q,1399,2603037,,,,,,,,,
CVOE_B,90,1,3,77,U 97,Number,Y,FALSE,OE,q,1418,2604973,,,,,,,,,
CVOE_B,90,1,3,78,H 03,Number,N,TRUE,OE,q,1116,2606605,,,,,,,,,
CVOE_B,90,1,3,79,O 04,Letter,Y,TRUE,CV,p,955,2608077,,,,,,,,,
CVOE_B,90,1,3,80,E 10,Letter,N,TRUE,CV,p,896,2609485,,,,,,,,,
CVOE_B,90,1,3,81,I 52,Letter,N,TRUE,CV,p,687,2610693,,,,,,,,,
CVOE_B,90,1,3,82,H 81,Number,Y,TRUE,OE,q,1503,2612709,,,,,,,,,
CVOE_B,90,1,3,83,I 41,Number,N,FALSE,OE,q,686,2613909,,,,,,,,,
CVOE_B,90,1,3,84,U 19,Letter,Y,FALSE,CV,p,870,2615293,,,,,,,,,
CVOE_B,90,1,3,85,O 17,Number,Y,FALSE,OE,q,919,2616725,,,,,,,,,
CVOE_B,90,1,3,86,A 10,Number,N,TRUE,OE,p,1294,2618533,,,,,,,,,
CVOE_B,90,1,3,87,P 93,Letter,Y,TRUE,CV,q,2165,2621221,,,,,,,,,
CVOE_B,90,1,3,88,E 59,Letter,N,FALSE,CV,p,809,2622549,,,,,,,,,
CVOE_B,90,1,3,89,O 53,Letter,N,FALSE,CV,p,812,2623885,,,,,,,,,
CVOE_B,90,1,3,90,A 96,Letter,N,TRUE,CV,p,646,2625053,,,,,,,,,
CVOE_B,90,1,3,91,H 36,Letter,Y,FALSE,CV,q,808,2626381,,,,,,,,,
CVOE_B,90,1,3,92,A 63,Letter,N,FALSE,CV,p,955,2627845,,,,,,,,,
CVOE_B,90,1,3,93,I 38,Letter,N,TRUE,CV,p,1208,2629565,,,,,,,,,
CVOE_B,90,1,3,94,O 51,Number,Y,FALSE,OE,q,1259,2631333,,,,,,,,,
CVOE_B,90,1,3,95,J 26,Number,N,FALSE,OE,p,804,2632661,,,,,,,,,
CVOE_B,90,1,3,96,S 34,Letter,Y,FALSE,CV,q,903,2634077,,,,,,,,,
CVOE_B,90,1,3,97,U 85,Number,Y,FALSE,OE,q,1102,2635693,,,,,,,,,
CVOE_B,90,1,3,98,J 77,Number,N,TRUE,OE,q,1070,2637277,,,,,,,,,
CVOE_B,90,1,3,99,I 73,Letter,Y,FALSE,CV,p,1126,2638917,,,,,,,,,
CVOE_B,90,1,3,100,H 46,Number,Y,FALSE,OE,p,1508,2640949,,,,,,,,,
CVOE_B,90,1,3,101,D 04,Number,N,FALSE,OE,p,1923,2643381,,,,,,,,,
CVOE_B,90,1,3,102,P 72,Letter,Y,FALSE,CV,q,1074,2644965,,,,,,,,,
CVOE_B,90,1,3,103,D 99,Number,Y,TRUE,OE,p,1010,2646485,,,,,,,,,
CVOE_B,90,1,3,104,U 25,Letter,Y,FALSE,CV,p,1965,2648973,,,,,,,,,
CVOE_B,90,1,3,105,O 32,Letter,N,TRUE,CV,p,1321,2650813,,,,,,,,,
CVOE_B,90,1,3,106,E 80,Letter,N,TRUE,CV,p,800,2652125,,,,,,,,,
CVOE_B,90,1,3,107,O 84,Number,Y,TRUE,OE,p,1307,2653949,,,,,,,,,
CVOE_B,90,1,3,108,A 78,Number,N,TRUE,OE,p,898,2655357,,,,,,,,,
CVOE_B,90,1,3,109,S 05,Number,N,TRUE,OE,q,970,2656845,,,,,,,,,
CVOE_B,90,1,3,110,U 35,Letter,Y,FALSE,CV,p,1694,2659053,,,,,,,,,
CVOE_B,90,1,3,111,H 14,Letter,N,FALSE,CV,q,1301,2660877,,,,,,,,,
CVOE_B,90,1,3,112,U 15,Number,Y,FALSE,OE,q,1540,2662933,,,,,,,,,
CVOE_B,90,1,3,113,E 36,Letter,Y,TRUE,CV,p,1290,2664733,,,,,,,,,
CVOE_B,90,1,3,114,P 70,Letter,N,FALSE,CV,q,1498,2666741,,,,,,,,,
CVOE_B,90,1,3,115,O 44,Number,Y,TRUE,OE,p,849,2668109,,,,,,,,,
CVOE_B,90,1,3,116,S 41,Letter,Y,TRUE,CV,q,859,2669485,,,,,,,,,
CVOE_B,90,1,3,117,D 83,Letter,N,TRUE,CV,q,908,2670901,,,,,,,,,
CVOE_B,90,1,3,118,J 39,Letter,N,TRUE,CV,q,651,2672061,,,,,,,,,
CVOE_B,90,1,3,119,S 22,Number,Y,FALSE,OE,p,1076,2673653,,,,,,,,,
CVOE_B,90,1,3,120,D 89,Letter,Y,TRUE,CV,q,988,2675165,,,,,,,,,
CVOE_B,90,1,3,121,P 87,Letter,N,TRUE,CV,q,960,2676637,,,,,,,,,
CVOE_B,90,1,3,122,H 42,Letter,N,FALSE,CV,q,1157,2678317,,,,,,,,,
CVOE_B,90,1,3,123,S 49,Letter,N,TRUE,CV,q,754,2679581,,,,,,,,,
CVOE_B,90,1,3,124,J 20,Number,Y,FALSE,OE,p,1127,2681221,,,,,,,,,
CVOE_B,90,1,3,125,O 19,Letter,Y,FALSE,CV,p,1141,2682885,,,,,,,,,
CVOE_B,90,1,3,126,H 50,Letter,N,FALSE,CV,q,787,2684181,,,,,,,,,
CVOE_B,90,1,3,127,I 68,Number,Y,TRUE,OE,p,1111,2685805,,,,,,,,,
CVOE_B,90,1,3,128,J 72,Number,N,FALSE,OE,p,1389,2687717,,,,,,,,,
CVOE_B,90,1,3,129,O 21,Number,N,FALSE,OE,q,1905,2690133,,,,,,,,,
CVOE_B,90,1,3,130,H 22,Number,N,FALSE,OE,q,840,2691485,,,,,,,,,
CVOE_B,90,1,4,1,A 44,Letter,N,TRUE,CV,p,3913,2711109,,,,,,,,,
CVOE_B,90,1,4,2,D 94,Letter,N,FALSE,CV,q,760,2712389,,,,,,,,,
CVOE_B,90,1,4,3,E 75,Number,Y,FALSE,OE,q,996,2713909,,,,,,,,,
CVOE_B,90,1,4,4,H 81,Number,N,TRUE,OE,q,751,2715181,,,,,,,,,
CVOE_B,90,1,4,5,I 64,Letter,Y,TRUE,CV,p,949,2716645,,,,,,,,,
CVOE_B,90,1,4,6,J 54,Letter,N,FALSE,CV,p,882,2718045,,,,,,,,,
CVOE_B,90,1,4,7,O 23,Number,Y,FALSE,OE,q,1850,2720413,,,,,,,,,
CVOE_B,90,1,4,8,P 05,Number,N,TRUE,OE,q,1595,2722525,,,,,,,,,
CVOE_B,90,1,4,9,S 34,Letter,Y,FALSE,CV,q,1070,2724117,,,,,,,,,
CVOE_B,90,1,4,10,U 88,Letter,N,TRUE,CV,p,895,2725525,,,,,,,,,
CVOE_B,90,1,4,11,A 70,Number,Y,TRUE,OE,p,1494,2727541,,,,,,,,,
CVOE_B,90,1,4,12,D 12,Number,N,FALSE,OE,p,965,2729029,,,,,,,,,
CVOE_B,90,1,4,13,E 79,Letter,Y,FALSE,CV,p,874,2730421,,,,,,,,,
CVOE_B,90,1,4,14,H 72,Letter,N,FALSE,CV,q,690,2731621,,,,,,,,,
CVOE_B,90,1,4,15,I 41,Number,Y,FALSE,OE,q,858,2732989,,,,,,,,,
CVOE_B,90,1,4,16,J 63,Number,N,TRUE,OE,q,843,2734341,,,,,,,,,
CVOE_B,90,1,4,17,O 03,Letter,Y,FALSE,CV,p,1245,2736109,,,,,,,,,
CVOE_B,90,1,4,18,P 75,Letter,N,TRUE,CV,q,1214,2737845,,,,,,,,,
CVOE_B,90,1,4,19,S 61,Number,Y,TRUE,OE,q,1008,2739373,,,,,,,,,
CVOE_B,90,1,4,20,U 28,Number,N,TRUE,OE,p,740,2740621,,,,,,,,,
CVOE_B,90,1,4,21,A 21,Letter,Y,FALSE,CV,p,1090,2742221,,,,,,,,,
CVOE_B,90,1,4,22,D 18,Letter,N,FALSE,CV,q,754,2743485,,,,,,,,,
CVOE_B,90,1,4,23,E 35,Number,Y,FALSE,OE,p,1087,2745085,,,,,,,,,
CVOE_B,90,1,4,24,H 62,Number,N,FALSE,OE,p,2935,2748533,,,,,,,,,
CVOE_B,90,1,4,25,I 82,Letter,Y,TRUE,CV,p,1476,2750525,,,,,,,,,
CVOE_B,90,1,4,26,J 78,Letter,N,FALSE,CV,q,748,2751797,,,,,,,,,
CVOE_B,90,1,4,27,O 12,Number,Y,TRUE,OE,p,1082,2753397,,,,,,,,,
CVOE_B,90,1,4,28,P 13,Number,N,TRUE,OE,q,1001,2754917,,,,,,,,,
CVOE_B,90,1,4,29,S 07,Letter,Y,TRUE,CV,q,1533,2756965,,,,,,,,,
CVOE_B,90,1,4,30,U 36,Letter,N,TRUE,CV,p,866,2758349,,,,,,,,,
CVOE_B,90,1,4,31,A 96,Number,Y,TRUE,OE,p,1203,2760069,,,,,,,,,
CVOE_B,90,1,4,32,D 04,Number,N,FALSE,OE,p,742,2761325,,,,,,,,,
CVOE_B,90,1,4,33,E 60,Letter,Y,TRUE,CV,p,884,2762733,,,,,,,,,
CVOE_B,90,1,4,34,H 83,Letter,N,TRUE,CV,q,707,2763957,,,,,,,,,
CVOE_B,90,1,4,35,I 64,Number,Y,TRUE,OE,p,899,2765365,,,,,,,,,
CVOE_B,90,1,4,36,J 76,Number,N,FALSE,OE,p,714,2766597,,,,,,,,,
CVOE_B,90,1,4,37,O 78,Letter,Y,TRUE,CV,q,1144,2768261,,,,,,,,,
CVOE_B,90,1,4,38,P 09,Letter,N,TRUE,CV,q,638,2769421,,,,,,,,,
CVOE_B,90,1,4,39,S 72,Number,Y,FALSE,OE,p,904,2770837,,,,,,,,,
CVOE_B,90,1,4,40,U 47,Number,N,FALSE,OE,q,743,2772093,,,,,,,,,
CVOE_B,90,1,4,41,A 31,Letter,Y,FALSE,CV,p,708,2773325,,,,,,,,,
CVOE_B,90,1,4,42,D 96,Letter,N,FALSE,CV,q,867,2774701,,,,,,,,,
CVOE_B,90,1,4,43,E 40,Number,Y,TRUE,OE,p,1796,2777013,,,,,,,,,
CVOE_B,90,1,4,44,H 79,Number,N,TRUE,OE,q,1783,2779317,,,,,,,,,
CVOE_B,90,1,4,45,I 15,Letter,Y,FALSE,CV,p,2547,2782381,,,,,,,,,
CVOE_B,90,1,4,46,J 07,Letter,N,TRUE,CV,q,800,2783701,,,,,,,,,
CVOE_B,90,1,4,47,O 61,Number,Y,FALSE,OE,q,1611,2785829,,,,,,,,,
CVOE_B,90,1,4,48,P 58,Number,N,FALSE,OE,p,886,2787237,,,,,,,,,
CVOE_B,90,1,4,49,S 37,Letter,Y,TRUE,CV,q,1838,2789589,,,,,,,,,
CVOE_B,90,1,4,50,U 61,Letter,N,FALSE,CV,q,4568,2794669,,,,,,,,,
CVOE_B,90,1,4,51,A 17,Number,Y,FALSE,OE,q,1348,2796533,,,,,,,,,
CVOE_B,90,1,4,52,D 85,Number,N,TRUE,OE,q,985,2798037,,,,,,,,,
CVOE_B,90,1,4,53,E 20,Letter,Y,TRUE,CV,p,981,2799533,,,,,,,,,
CVOE_B,90,1,4,54,H 86,Letter,N,FALSE,CV,q,785,2800837,,,,,,,,,
CVOE_B,90,1,4,55,I 21,Number,Y,FALSE,OE,q,973,2802325,,,,,,,,,
CVOE_B,90,1,4,56,J 29,Number,N,TRUE,OE,q,721,2803557,,,,,,,,,
CVOE_B,90,1,4,57,O 13,Letter,Y,FALSE,CV,p,1336,2805405,,,,,,,,,
CVOE_B,90,1,4,58,P 82,Letter,N,FALSE,CV,q,838,2806757,,,,,,,,,
CVOE_B,90,1,4,59,S 72,Number,Y,FALSE,OE,p,1120,2808389,,,,,,,,,
CVOE_B,90,1,4,60,U 84,Number,N,TRUE,OE,p,734,2809637,,,,,,,,,
CVOE_B,90,1,4,61,A 49,Letter,Y,FALSE,CV,p,1340,2811493,,,,,,,,,
CVOE_B,90,1,4,62,D 91,Letter,N,TRUE,CV,q,730,2812733,,,,,,,,,
CVOE_B,90,1,4,63,E 99,Number,Y,FALSE,OE,q,2176,2815429,,,,,,,,,
CVOE_B,90,1,4,64,H 16,Number,N,FALSE,OE,p,796,2816749,,,,,,,,,
CVOE_B,90,1,4,65,I 45,Letter,Y,FALSE,CV,p,1519,2818789,,,,,,,,,
CVOE_B,90,1,4,66,J 70,Letter,N,FALSE,CV,q,1110,2820413,,,,,,,,,
CVOE_B,90,1,4,67,O 22,Number,Y,TRUE,OE,p,1564,2822501,,,,,,,,,
CVOE_B,90,1,4,68,P 41,Number,N,TRUE,OE,q,705,2823725,,,,,,,,,
CVOE_B,90,1,4,69,S 93,Letter,Y,TRUE,CV,q,1672,2825909,,,,,,,,,
CVOE_B,90,1,4,70,U 70,Letter,N,TRUE,CV,p,704,2827125,,,,,,,,,
CVOE_B,90,1,4,71,A 42,Number,Y,TRUE,OE,p,2208,2829845,,,,,,,,,
CVOE_B,90,1,4,72,D 85,Number,N,TRUE,OE,q,1083,2831437,,,,,,,,,
CVOE_B,90,1,4,73,E 68,Letter,Y,TRUE,CV,p,603,2832557,,,,,,,,,
CVOE_B,90,1,4,74,H 17,Letter,N,TRUE,CV,q,694,2833765,,,,,,,,,
CVOE_B,90,1,4,75,I 70,Number,Y,TRUE,OE,p,701,2834989,,,,,,,,,
CVOE_B,90,1,4,76,J 88,Number,N,FALSE,OE,p,572,2836077,,,,,,,,,
CVOE_B,90,1,4,77,O 32,Letter,Y,TRUE,CV,p,1089,2837677,,,,,,,,,
CVOE_B,90,1,4,78,P 95,Letter,N,TRUE,CV,q,825,2839013,,,,,,,,,
CVOE_B,90,1,4,79,S 98,Number,Y,FALSE,OE,p,707,2840229,,,,,,,,,
CVOE_B,90,1,4,80,U 37,Number,N,FALSE,OE,q,531,2841269,,,,,,,,,
CVOE_B,90,1,4,81,A 56,Letter,Y,TRUE,CV,p,753,2842541,,,,,,,,,
CVOE_B,90,1,4,82,D 57,Letter,N,TRUE,CV,q,446,2843501,,,,,,,,,
CVOE_B,90,1,4,83,E 93,Number,Y,FALSE,OE,q,1159,2845181,,,,,,,,,
CVOE_B,90,1,4,84,H 27,Number,N,TRUE,OE,q,620,2846325,,,,,,,,,
CVOE_B,90,1,4,85,I 35,Letter,Y,FALSE,CV,p,614,2847453,,,,,,,,,
CVOE_B,90,1,4,86,J 03,Letter,N,TRUE,CV,q,545,2848517,,,,,,,,,
CVOE_B,90,1,4,87,O 28,Number,Y,TRUE,OE,p,894,2849933,,,,,,,,,
CVOE_B,90,1,4,88,P 59,Number,N,TRUE,OE,q,869,2851325,,,,,,,,,
CVOE_B,90,1,4,89,S 77,Letter,Y,TRUE,CV,q,1142,2852981,,,,,,,,,
CVOE_B,90,1,4,90,U 05,Letter,N,FALSE,CV,p,668,2854157,,,,,,,,,
CVOE_B,90,1,4,91,A 56,Number,Y,TRUE,OE,p,1588,2856261,,,,,,,,,
CVOE_B,90,1,4,92,D 01,Number,N,TRUE,OE,q,632,2857405,,,,,,,,,
CVOE_B,90,1,4,93,E 02,Letter,Y,TRUE,CV,p,1146,2859069,,,,,,,,,
CVOE_B,90,1,4,94,H 68,Letter,N,FALSE,CV,q,615,2860205,,,,,,,,,
CVOE_B,90,1,4,95,I 05,Number,Y,FALSE,OE,q,1298,2862021,,,,,,,,,
CVOE_B,90,1,4,96,J 55,Number,N,TRUE,OE,q,609,2863149,,,,,,,,,
CVOE_B,90,1,4,97,O 73,Letter,Y,FALSE,CV,p,516,2864189,,,,,,,,,
CVOE_B,90,1,4,98,P 41,Letter,N,TRUE,CV,q,483,2865190,,,,,,,,,
CVOE_B,90,1,4,99,S 92,Number,Y,FALSE,OE,q,571,2866278,,,,,,,,,
CVOE_B,90,1,4,100,U 34,Number,N,TRUE,OE,p,695,2867485,,,,,,,,,
CVOE_B,90,1,4,101,A 09,Letter,Y,FALSE,CV,p,1511,2869518,,,,,,,,,
CVOE_B,90,1,4,102,D 92,Letter,N,FALSE,CV,q,645,2870685,,,,,,,,,
CVOE_B,90,1,4,103,E 48,Number,Y,TRUE,OE,p,710,2871917,,,,,,,,,
CVOE_B,90,1,4,104,H 76,Number,N,FALSE,OE,p,621,2873061,,,,,,,,,
CVOE_B,90,1,4,105,I 44,Letter,Y,TRUE,CV,q,695,2874269,,,,,,,,,
CVOE_B,90,1,4,106,J 67,Letter,N,TRUE,CV,p,846,2875637,,,,,,,,,
CVOE_B,90,1,4,107,O 48,Number,Y,TRUE,OE,p,1304,2877461,,,,,,,,,
CVOE_B,90,1,4,108,P 22,Number,N,FALSE,OE,p,863,2878837,,,,,,,,,
CVOE_B,90,1,4,109,S 86,Letter,Y,FALSE,CV,q,631,2879989,,,,,,,,,
CVOE_B,90,1,4,110,U 35,Letter,N,FALSE,CV,p,473,2880981,,,,,,,,,
CVOE_B,90,1,4,111,A 91,Number,Y,FALSE,OE,q,610,2882101,,,,,,,,,
CVOE_B,90,1,4,112,D 78,Number,N,FALSE,OE,p,516,2883141,,,,,,,,,
CVOE_B,90,1,4,113,E 91,Letter,Y,FALSE,CV,p,531,2884189,,,,,,,,,
CVOE_B,90,1,4,114,H 54,Letter,N,FALSE,CV,q,610,2885318,,,,,,,,,
CVOE_B,90,1,4,115,I 65,Number,Y,FALSE,OE,q,972,2886813,,,,,,,,,
CVOE_B,90,1,4,116,J 52,Number,N,FALSE,OE,p,1128,2888453,,,,,,,,,
CVOE_B,90,1,4,117,O 19,Letter,Y,FALSE,CV,p,1102,2890077,,,,,,,,,
CVOE_B,90,1,4,118,P 48,Letter,N,FALSE,CV,p,845,2891437,,,,,,,,,
CVOE_B,90,1,4,119,S 45,Number,Y,TRUE,OE,q,1063,2893021,,,,,,,,,
CVOE_B,90,1,4,120,U 26,Number,N,TRUE,OE,p,719,2894261,,,,,,,,,
CVOE_C,91,1,1,11,A 24,,,TRUE,OE,p,1272,1797011,,,,,,,,,
CVOE_C,91,1,1,12,O 83,,,FALSE,OE,q,541,1798063,,,,,,,,,
CVOE_C,91,1,1,13,H 55,,,TRUE,OE,q,505,1799078,,,,,,,,,
CVOE_C,91,1,1,14,P 10,,,FALSE,OE,p,540,1800129,,,,,,,,,
CVOE_C,91,1,1,15,D 30,,,FALSE,OE,p,525,1801164,,,,,,,,,
CVOE_C,91,1,1,16,U 62,,,TRUE,OE,p,530,1802203,,,,,,,,,
CVOE_C,91,1,1,17,P 95,,,TRUE,OE,q,484,1803207,,,,,,,,,
CVOE_C,91,1,1,18,U 06,,,TRUE,OE,p,554,1804277,,,,,,,,,
CVOE_C,91,1,1,19,E 75,,,FALSE,OE,q,511,1805301,,,,,,,,,
CVOE_C,91,1,1,20,I 67,,,FALSE,OE,q,541,1806364,,,,,,,,,
CVOE_C,91,1,1,21,S 13,,,TRUE,OE,q,513,1807386,,,,,,,,,
CVOE_C,91,1,1,22,P 78,,,FALSE,OE,p,519,1808425,,,,,,,,,
CVOE_C,91,1,1,23,I 15,,,FALSE,OE,q,547,1809487,,,,,,,,,
CVOE_C,91,1,1,24,D 27,,,TRUE,OE,q,688,1810695,,,,,,,,,
CVOE_C,91,1,1,25,O 94,,,TRUE,OE,p,783,1811990,,,,,,,,,
CVOE_C,91,1,1,26,A 65,,,FALSE,OE,q,571,1813078,,,,,,,,,
CVOE_C,91,1,1,27,I 42,,,TRUE,OE,p,703,1814293,,,,,,,,,
CVOE_C,91,1,1,28,E 25,,,FALSE,OE,q,635,1815442,,,,,,,,,
CVOE_C,91,1,1,29,H 49,,,TRUE,OE,q,505,1816462,,,,,,,,,
CVOE_C,91,1,1,30,S 18,,,FALSE,OE,p,597,1817571,,,,,,,,,
CVOE_C,91,1,1,31,H 51,,,TRUE,OE,q,718,1818808,,,,,,,,,
CVOE_C,91,1,1,32,U 14,,,TRUE,OE,p,683,1820007,,,,,,,,,
CVOE_C,91,1,1,33,E 02,,,TRUE,OE,p,628,1821152,,,,,,,,,
CVOE_C,91,1,1,34,J 26,,,FALSE,OE,p,537,1822211,,,,,,,,,
CVOE_C,91,1,1,35,D 24,,,FALSE,OE,p,612,1823336,,,,,,,,,
CVOE_C,91,1,1,36,O 50,,,TRUE,OE,p,647,1824504,,,,,,,,,
CVOE_C,91,1,1,37,U 16,,,TRUE,OE,p,572,1825596,,,,,,,,,
CVOE_C,91,1,1,38,O 15,,,FALSE,OE,q,479,1826587,,,,,,,,,
CVOE_C,91,1,1,39,D 32,,,FALSE,OE,p,593,1827701,,,,,,,,,
CVOE_C,91,1,1,40,S 67,,,TRUE,OE,q,640,1828864,,,,,,,,,
CVOE_C,91,1,1,41,J 74,,,FALSE,OE,p,633,1830007,,,,,,,,,
CVOE_C,91,1,1,42,D 92,,,FALSE,OE,p,593,1831118,,,,,,,,,
CVOE_C,91,1,1,43,A 65,,,FALSE,OE,q,681,1832322,,,,,,,,,
CVOE_C,91,1,1,44,I 87,,,FALSE,OE,q,1184,1834025,,,,,,,,,
CVOE_C,91,1,1,45,H 61,,,TRUE,OE,q,615,1835156,,,,,,,,,
CVOE_C,91,1,1,46,E 59,,,FALSE,OE,q,631,1836306,,,,,,,,,
CVOE_C,91,1,1,47,I 33,,,FALSE,OE,q,486,1837311,,,,,,,,,
CVOE_C,91,1,1,48,O 90,,,TRUE,OE,p,593,1838418,,,,,,,,,
CVOE_C,91,1,1,49,U 51,,,FALSE,OE,q,540,1839482,,,,,,,,,
CVOE_C,91,1,1,50,A 10,,,TRUE,OE,p,531,1840523,,,,,,,,,
CVOE_C,91,1,1,51,E 50,,,TRUE,OE,p,611,1841653,,,,,,,,,
CVOE_C,91,1,1,52,D 92,,,FALSE,OE,p,565,1842740,,,,,,,,,
CVOE_C,91,1,1,53,E 60,,,TRUE,OE,p,538,1843797,,,,,,,,,
CVOE_C,91,1,1,54,A 95,,,FALSE,OE,q,662,1844971,,,,,,,,,
CVOE_C,91,1,1,55,E 64,,,TRUE,OE,p,591,1846083,,,,,,,,,
CVOE_C,91,1,1,56,P 20,,,FALSE,OE,p,473,1847065,,,,,,,,,
CVOE_C,91,1,1,57,S 06,,,FALSE,OE,p,507,1848083,,,,,,,,,
CVOE_C,91,1,1,58,P 64,,,FALSE,OE,p,430,1849022,,,,,,,,,
CVOE_C,91,1,1,59,U 70,,,TRUE,OE,p,568,1850110,,,,,,,,,
CVOE_C,91,1,1,60,S 16,,,FALSE,OE,p,391,1851017,,,,,,,,,
CVOE_C,91,1,1,61,E 35,,,FALSE,OE,q,496,1852022,,,,,,,,,
CVOE_C,91,1,1,62,I 93,,,FALSE,OE,q,440,1852983,,,,,,,,,
CVOE_C,91,1,1,63,D 63,,,TRUE,OE,q,488,1853981,,,,,,,,,
CVOE_C,91,1,1,64,U 89,,,FALSE,OE,q,466,1854959,,,,,,,,,
CVOE_C,91,1,1,65,E 91,,,FALSE,OE,q,491,1855967,,,,,,,,,
CVOE_C,91,1,1,66,A 12,,,TRUE,OE,p,515,1856991,,,,,,,,,
CVOE_C,91,1,1,67,P 56,,,FALSE,OE,p,624,1858134,,,,,,,,,
CVOE_C,91,1,1,68,S 65,,,TRUE,OE,q,487,1859130,,,,,,,,,
CVOE_C,91,1,1,69,P 07,,,TRUE,OE,q,755,1860398,,,,,,,,,
CVOE_C,91,1,1,70,I 77,,,FALSE,OE,q,529,1861439,,,,,,,,,
CVOE_C,91,1,1,71,J 19,,,TRUE,OE,q,435,1862395,,,,,,,,,
CVOE_C,91,1,1,72,O 59,,,FALSE,OE,q,381,1863291,,,,,,,,,
CVOE_C,91,1,1,73,J 15,,,TRUE,OE,q,429,1864239,,,,,,,,,
CVOE_C,91,1,1,74,I 89,,,FALSE,OE,q,502,1865262,,,,,,,,,
CVOE_C,91,1,1,75,O 97,,,FALSE,OE,q,428,1866205,,,,,,,,,
CVOE_C,91,1,1,76,A 92,,,TRUE,OE,p,561,1867288,,,,,,,,,
CVOE_C,91,1,1,77,J 90,,,FALSE,OE,p,462,1868272,,,,,,,,,
CVOE_C,91,1,1,78,H 65,,,TRUE,OE,q,458,1869252,,,,,,,,,
CVOE_C,91,1,1,79,H 17,,,TRUE,OE,q,412,1870189,,,,,,,,,
CVOE_C,91,1,1,80,S 26,,,FALSE,OE,p,474,1871185,,,,,,,,,
CVOE_C,91,1,1,81,D 56,,,FALSE,OE,p,565,1872259,,,,,,,,,
CVOE_C,91,1,1,82,I 91,,,FALSE,OE,q,539,1873316,,,,,,,,,
CVOE_C,91,1,1,83,J 11,,,TRUE,OE,q,621,1874448,,,,,,,,,
CVOE_C,91,1,1,84,O 28,,,TRUE,OE,q,327,1875288,,,,,,,,,
CVOE_C,91,1,1,85,H 29,,,TRUE,OE,q,653,1876464,,,,,,,,,
CVOE_C,91,1,1,86,J 25,,,TRUE,OE,q,743,1877721,,,,,,,,,
CVOE_C,91,1,1,87,A 73,,,FALSE,OE,q,522,1878766,,,,,,,,,
CVOE_C,91,1,1,88,J 63,,,TRUE,OE,q,553,1879831,,,,,,,,,
CVOE_C,91,1,1,89,U 84,,,TRUE,OE,p,460,1880805,,,,,,,,,
CVOE_C,91,1,1,90,A 58,,,TRUE,OE,p,547,1881875,,,,,,,,,
CVOE_C,91,1,1,91,S 43,,,TRUE,OE,q,1050,1883445,,,,,,,,,
CVOE_C,91,1,1,92,H 54,,,FALSE,OE,p,493,1884454,,,,,,,,,
CVOE_C,91,1,1,93,D 4,,,FALSE,OE,p,624,1885602,,,,,,,,,
CVOE_C,91,1,1,94,J 75,,,TRUE,OE,q,809,1886921,,,,,,,,,
CVOE_C,91,1,1,95,D 19,,,TRUE,OE,q,1059,1888504,,,,,,,,,
CVOE_C,91,1,1,96,J 38,,,FALSE,OE,p,582,1889610,,,,,,,,,
CVOE_C,91,1,1,97,I 56,,,TRUE,OE,p,600,1890729,,,,,,,,,
CVOE_C,91,1,1,98,P 87,,,TRUE,OE,q,644,1891889,,,,,,,,,
CVOE_C,91,1,1,99,O 80,,,TRUE,OE,p,968,1893380,,,,,,,,,
CVOE_C,91,1,1,100,U 60,,,TRUE,OE,p,514,1894409,,,,,,,,,
CVOE_C,91,1,1,101,P 48,,,FALSE,OE,p,822,1895751,,,,,,,,,
CVOE_C,91,1,1,102,H 64,,,FALSE,OE,p,573,1896835,,,,,,,,,
CVOE_C,91,1,1,103,A 13,,,FALSE,OE,q,488,1897834,,,,,,,,,
CVOE_C,91,1,1,104,H 68,,,FALSE,OE,p,709,1899055,,,,,,,,,
CVOE_C,91,1,1,105,E 16,,,TRUE,OE,p,709,1900288,,,,,,,,,
CVOE_C,91,1,1,106,S 71,,,TRUE,OE,q,471,1901284,,,,,,,,,
CVOE_C,91,1,2,11,A 71,,,FALSE,CV,p,1686,1951085,,,,,,,,,
CVOE_C,91,1,2,12,I 66,,,TRUE,CV,p,456,1952055,,,,,,,,,
CVOE_C,91,1,2,13,S 30,,,FALSE,CV,q,423,1952989,,,,,,,,,
CVOE_C,91,1,2,14,D 20,,,FALSE,CV,q,510,1954009,,,,,,,,,
CVOE_C,91,1,2,15,I 31,,,FALSE,CV,p,493,1955009,,,,,,,,,
CVOE_C,91,1,2,16,P 16,,,FALSE,CV,q,459,1955992,,,,,,,,,
CVOE_C,91,1,2,17,A 49,,,FALSE,CV,p,606,1957122,,,,,,,,,
CVOE_C,91,1,2,18,O 64,,,TRUE,CV,p,469,1958102,,,,,,,,,
CVOE_C,91,1,2,19,D 02,,,FALSE,CV,q,434,1959050,,,,,,,,,
CVOE_C,91,1,2,20,P 81,,,TRUE,CV,q,502,1960068,,,,,,,,,
CVOE_C,91,1,2,21,J 58,,,FALSE,CV,q,432,1961015,,,,,,,,,
CVOE_C,91,1,2,22,A 22,,,TRUE,CV,p,446,1961979,,,,,,,,,
CVOE_C,91,1,2,23,J 72,,,FALSE,CV,q,444,1962944,,,,,,,,,
CVOE_C,91,1,2,24,P 91,,,TRUE,CV,q,609,1964076,,,,,,,,,
CVOE_C,91,1,2,25,E 19,,,FALSE,CV,p,503,1965103,,,,,,,,,
CVOE_C,91,1,2,26,I 30,,,TRUE,CV,p,702,1966319,,,,,,,,,
CVOE_C,91,1,2,27,D 91,,,TRUE,CV,q,460,1967294,,,,,,,,,
CVOE_C,91,1,2,28,O 48,,,TRUE,CV,p,475,1968292,,,,,,,,,
CVOE_C,91,1,2,29,A 89,,,FALSE,CV,p,451,1969251,,,,,,,,,
CVOE_C,91,1,2,30,U 11,,,FALSE,CV,p,374,1970141,,,,,,,,,
CVOE_C,91,1,2,31,I 76,,,TRUE,CV,p,436,1971086,,,,,,,,,
CVOE_C,91,1,2,32,U 89,,,FALSE,CV,p,411,1972012,,,,,,,,,
CVOE_C,91,1,2,33,D 63,,,TRUE,CV,q,480,1973014,,,,,,,,,
CVOE_C,91,1,2,34,H 70,,,FALSE,CV,q,563,1974097,,,,,,,,,
CVOE_C,91,1,2,35,D 48,,,FALSE,CV,q,450,1975067,,,,,,,,,
CVOE_C,91,1,2,36,P 56,,,FALSE,CV,q,426,1976010,,,,,,,,,
CVOE_C,91,1,2,37,O 77,,,FALSE,CV,p,551,1977085,,,,,,,,,
CVOE_C,91,1,2,38,P 42,,,FALSE,CV,q,488,1978089,,,,,,,,,
CVOE_C,91,1,2,39,H 22,,,FALSE,CV,q,415,1979016,,,,,,,,,
CVOE_C,91,1,2,40,E 42,,,TRUE,CV,p,439,1979973,,,,,,,,,
CVOE_C,91,1,2,41,J 28,,,FALSE,CV,q,430,1980914,,,,,,,,,
CVOE_C,91,1,2,42,E 95,,,FALSE,CV,p,418,1981853,,,,,,,,,
CVOE_C,91,1,2,43,S 63,,,TRUE,CV,q,463,1982831,,,,,,,,,
CVOE_C,91,1,2,44,H 50,,,FALSE,CV,q,481,1983832,,,,,,,,,
CVOE_C,91,1,2,45,S 33,,,TRUE,CV,q,488,1984839,,,,,,,,,
CVOE_C,91,1,2,46,P 57,,,TRUE,CV,q,379,1985730,,,,,,,,,
CVOE_C,91,1,2,47,E 23,,,FALSE,CV,p,456,1986708,,,,,,,,,
CVOE_C,91,1,2,48,S 61,,,TRUE,CV,q,444,1987662,,,,,,,,,
CVOE_C,91,1,2,49,U 67,,,FALSE,CV,p,409,1988594,,,,,,,,,
CVOE_C,91,1,2,50,H 32,,,FALSE,CV,q,408,1989510,,,,,,,,,
CVOE_C,91,1,2,51,U 50,,,TRUE,CV,p,631,1990649,,,,,,,,,
CVOE_C,91,1,2,52,O 49,,,FALSE,CV,p,431,1991600,,,,,,,,,
CVOE_C,91,1,2,53,U 32,,,TRUE,CV,p,581,1992700,,,,,,,,,
CVOE_C,91,1,2,54,J 78,,,FALSE,CV,q,489,1993708,,,,,,,,,
CVOE_C,91,1,2,55,S 54,,,FALSE,CV,q,575,1994794,,,,,,,,,
CVOE_C,91,1,2,56,J 27,,,TRUE,CV,q,390,1995692,,,,,,,,,
CVOE_C,91,1,2,57,S 06,,,FALSE,CV,q,403,1996605,,,,,,,,,
CVOE_C,91,1,2,58,D 67,,,TRUE,CV,q,613,1997732,,,,,,,,,
CVOE_C,91,1,2,59,A 79,,,FALSE,CV,p,436,1998688,,,,,,,,,
CVOE_C,91,1,2,60,S 52,,,FALSE,CV,q,470,1999672,,,,,,,,,
CVOE_C,91,1,2,61,U 16,,,TRUE,CV,p,427,2000613,,,,,,,,,
CVOE_C,91,1,2,62,O 82,,,TRUE,CV,p,547,2001683,,,,,,,,,
CVOE_C,91,1,2,63,H 87,,,TRUE,CV,q,428,2002631,,,,,,,,,
CVOE_C,91,1,2,64,I 32,,,TRUE,CV,p,407,2003560,,,,,,,,,
CVOE_C,91,1,2,65,U 37,,,FALSE,CV,p,700,2004769,,,,,,,,,
CVOE_C,91,1,2,66,I 42,,,TRUE,CV,p,481,2005767,,,,,,,,,
CVOE_C,91,1,2,67,D 65,,,TRUE,CV,q,632,2006918,,,,,,,,,
CVOE_C,91,1,2,68,U 77,,,FALSE,CV,p,583,2008019,,,,,,,,,
CVOE_C,91,1,2,69,E 12,,,TRUE,CV,p,454,2008990,,,,,,,,,
CVOE_C,91,1,2,70,I 60,,,TRUE,CV,p,348,2009851,,,,,,,,,
CVOE_C,91,1,2,71,J 36,,,FALSE,CV,q,513,2010883,,,,,,,,,
CVOE_C,91,1,2,72,H 75,,,TRUE,CV,q,502,2011905,,,,,,,,,
CVOE_C,91,1,2,73,I 50,,,TRUE,CV,p,428,2012848,,,,,,,,,
CVOE_C,91,1,2,74,E 99,,,FALSE,CV,p,383,2013753,,,,,,,,,
CVOE_C,91,1,2,75,A 86,,,TRUE,CV,p,321,2014591,,,,,,,,,
CVOE_C,91,1,2,76,U 48,,,TRUE,CV,p,406,2015509,,,,,,,,,
CVOE_C,91,1,2,77,E 01,,,FALSE,CV,p,313,2016333,,,,,,,,,
CVOE_C,91,1,2,78,A 78,,,TRUE,CV,p,309,2017163,,,,,,,,,
CVOE_C,91,1,2,79,P 60,,,FALSE,CV,q,476,2018146,,,,,,,,,
CVOE_C,91,1,2,80,E 43,,,FALSE,CV,p,450,2019120,,,,,,,,,
CVOE_C,91,1,2,81,D 69,,,TRUE,CV,q,453,2020090,,,,,,,,,
CVOE_C,91,1,2,82,H 11,,,TRUE,CV,q,489,2021093,,,,,,,,,
CVOE_C,91,1,2,83,P 43,,,TRUE,CV,q,411,2022015,,,,,,,,,
CVOE_C,91,1,2,84,O 67,,,FALSE,CV,p,448,2022985,,,,,,,,,
CVOE_C,91,1,2,85,S 91,,,FALSE,CV,q,370,2023874,,,,,,,,,
CVOE_C,91,1,2,86,J 68,,,TRUE,CV,q,366,2024753,,,,,,,,,
CVOE_C,91,1,2,87,S 47,,,FALSE,CV,q,332,2025603,,,,,,,,,
CVOE_C,91,1,2,88,I 81,,,TRUE,CV,p,473,2026594,,,,,,,,,
CVOE_C,91,1,2,89,J 39,,,FALSE,CV,q,466,2027570,,,,,,,,,
CVOE_C,91,1,2,90,A 11,,,TRUE,CV,p,451,2028539,,,,,,,,,
CVOE_C,91,1,2,91,O 76,,,FALSE,CV,p,533,2029587,,,,,,,,,
CVOE_C,91,1,2,92,A 62,,,FALSE,CV,p,440,2030544,,,,,,,,,
CVOE_C,91,1,2,93,O 27,,,TRUE,CV,p,399,2031453,,,,,,,,,
CVOE_C,91,1,2,94,E 66,,,FALSE,CV,p,318,2032289,,,,,,,,,
CVOE_C,91,1,2,95,J 62,,,TRUE,CV,q,483,2033288,,,,,,,,,
CVOE_C,91,1,2,96,H 72,,,TRUE,CV,q,522,2034327,,,,,,,,,
CVOE_C,91,1,2,97,E 49,,,TRUE,CV,p,378,2035216,,,,,,,,,
CVOE_C,91,1,2,98,D 52,,,TRUE,CV,q,533,2036271,,,,,,,,,
CVOE_C,91,1,2,99,H 62,,,TRUE,CV,q,390,2037178,,,,,,,,,
CVOE_C,91,1,2,100,I 11,,,TRUE,CV,p,452,2038140,,,,,,,,,
CVOE_C,91,1,2,101,A 98,,,FALSE,CV,p,429,2039084,,,,,,,,,
CVOE_C,91,1,2,102,H 29,,,FALSE,CV,q,427,2040032,,,,,,,,,
CVOE_C,91,1,2,103,E 83,,,TRUE,CV,p,466,2041021,,,,,,,,,
CVOE_C,91,1,2,104,D 43,,,FALSE,CV,q,433,2041972,,,,,,,,,
CVOE_C,91,1,2,105,P 45,,,TRUE,CV,q,382,2042871,,,,,,,,,
CVOE_C,91,1,2,106,J 17,,,TRUE,CV,q,463,2043852,,,,,,,,,
CVOE_C,91,1,3,11,A 44,Letter,N,TRUE,CV,p,1594,2105087,,,,,,,,,
CVOE_C,91,1,3,12,D 94,Letter,N,FALSE,CV,q,1348,2106957,,,,,,,,,
CVOE_C,91,1,3,13,E 75,Number,Y,FALSE,OE,q,1600,2109076,,,,,,,,,
CVOE_C,91,1,3,14,H 81,Number,N,TRUE,OE,q,1625,2111218,,,,,,,,,
CVOE_C,91,1,3,15,I 64,Letter,Y,TRUE,CV,p,1348,2113074,,,,,,,,,
CVOE_C,91,1,3,16,J 54,Letter,N,FALSE,CV,q,1042,2114635,,,,,,,,,
CVOE_C,91,1,3,17,O 23,Number,Y,FALSE,OE,q,1232,2116375,,,,,,,,,
CVOE_C,91,1,3,18,P 05,Number,N,TRUE,OE,q,1707,2118600,,,,,,,,,
CVOE_C,91,1,3,19,S 34,Letter,Y,FALSE,CV,q,1795,2120905,,,,,,,,,
CVOE_C,91,1,3,20,U 88,Letter,N,TRUE,CV,p,1084,2122511,,,,,,,,,
CVOE_C,91,1,3,21,A 70,Number,Y,TRUE,OE,p,1790,2124817,,,,,,,,,
CVOE_C,91,1,3,22,D 12,Number,N,FALSE,OE,p,2108,2127435,,,,,,,,,
CVOE_C,91,1,3,23,E 79,Letter,Y,FALSE,CV,q,1650,2129594,,,,,,,,,
CVOE_C,91,1,3,24,H 72,Letter,N,FALSE,CV,q,2627,2132738,,,,,,,,,
CVOE_C,91,1,3,25,I 41,Number,Y,FALSE,OE,q,1450,2134711,,,,,,,,,
CVOE_C,91,1,3,26,J 63,Number,N,TRUE,OE,q,1827,2137055,,,,,,,,,
CVOE_C,91,1,3,27,O 03,Letter,Y,FALSE,CV,p,1445,2139023,,,,,,,,,
CVOE_C,91,1,3,28,P 75,Letter,N,TRUE,CV,q,1584,2141129,,,,,,,,,
CVOE_C,91,1,3,29,S 61,Number,Y,TRUE,OE,q,1202,2142847,,,,,,,,,
CVOE_C,91,1,3,30,U 28,Number,N,TRUE,OE,p,1406,2144768,,,,,,,,,
CVOE_C,91,1,3,31,A 21,Letter,Y,FALSE,CV,p,1848,2147127,,,,,,,,,
CVOE_C,91,1,3,32,D 18,Letter,N,FALSE,CV,q,1429,2149075,,,,,,,,,
CVOE_C,91,1,3,33,E 35,Number,Y,FALSE,OE,q,1340,2150936,,,,,,,,,
CVOE_C,91,1,3,34,H 62,Number,N,FALSE,OE,p,1126,2152572,,,,,,,,,
CVOE_C,91,1,3,35,I 82,Letter,Y,TRUE,CV,p,1208,2154304,,,,,,,,,
CVOE_C,91,1,3,36,J 78,Letter,N,FALSE,CV,q,776,2155589,,,,,,,,,
CVOE_C,91,1,3,37,O 12,Number,Y,TRUE,OE,p,1135,2157248,,,,,,,,,
CVOE_C,91,1,3,38,P 13,Number,N,TRUE,OE,q,786,2158549,,,,,,,,,
CVOE_C,91,1,3,39,S 07,Letter,Y,TRUE,CV,q,852,2159915,,,,,,,,,
CVOE_C,91,1,3,40,U 36,Letter,N,TRUE,CV,p,1105,2161535,,,,,,,,,
CVOE_C,91,1,3,41,A 96,Number,Y,TRUE,OE,p,1018,2163064,,,,,,,,,
CVOE_C,91,1,3,42,D 04,Number,N,FALSE,OE,p,876,2164456,,,,,,,,,
CVOE_C,91,1,3,43,E 60,Letter,Y,TRUE,CV,p,2658,2167638,,,,,,,,,
CVOE_C,91,1,3,44,H 83,Letter,N,TRUE,CV,q,1179,2169326,,,,,,,,,
CVOE_C,91,1,3,45,I 64,Number,Y,TRUE,OE,p,873,2170720,,,,,,,,,
CVOE_C,91,1,3,46,J 76,Number,N,FALSE,OE,p,1350,2172580,,,,,,,,,
CVOE_C,91,1,3,47,O 78,Letter,Y,TRUE,CV,p,1138,2174235,,,,,,,,,
CVOE_C,91,1,3,48,P 09,Letter,N,TRUE,CV,q,883,2175630,,,,,,,,,
CVOE_C,91,1,3,49,S 72,Number,Y,FALSE,OE,p,1416,2177563,,,,,,,,,
CVOE_C,91,1,3,50,U 47,Number,N,FALSE,OE,q,1590,2179671,,,,,,,,,
CVOE_C,91,1,3,51,A 31,Letter,Y,FALSE,CV,p,1047,2181228,,,,,,,,,
CVOE_C,91,1,3,52,D 96,Letter,N,FALSE,CV,q,926,2182674,,,,,,,,,
CVOE_C,91,1,3,53,E 40,Number,Y,TRUE,OE,p,1624,2184822,,,,,,,,,
CVOE_C,91,1,3,54,H 79,Number,N,TRUE,OE,q,1432,2186763,,,,,,,,,
CVOE_C,91,1,3,55,I 15,Letter,Y,FALSE,CV,p,1385,2188667,,,,,,,,,
CVOE_C,91,1,3,56,J 07,Letter,N,TRUE,CV,q,967,2190149,,,,,,,,,
CVOE_C,91,1,3,57,O 61,Number,Y,FALSE,OE,q,1607,2192272,,,,,,,,,
CVOE_C,91,1,3,58,P 58,Number,N,FALSE,OE,p,1600,2194399,,,,,,,,,
CVOE_C,91,1,3,59,S 37,Letter,Y,TRUE,CV,q,1232,2196147,,,,,,,,,
CVOE_C,91,1,3,60,U 61,Letter,N,FALSE,CV,p,855,2197520,,,,,,,,,
CVOE_C,91,1,3,61,A 17,Number,Y,FALSE,OE,q,1123,2199155,,,,,,,,,
CVOE_C,91,1,3,62,D 85,Number,N,TRUE,OE,q,1224,2200890,,,,,,,,,
CVOE_C,91,1,3,63,E 20,Letter,Y,TRUE,CV,p,2272,2203671,,,,,,,,,
CVOE_C,91,1,3,64,H 86,Letter,N,FALSE,CV,q,1243,2205426,,,,,,,,,
CVOE_C,91,1,3,65,I 21,Number,Y,FALSE,OE,q,991,2206940,,,,,,,,,
CVOE_C,91,1,3,66,J 29,Number,N,TRUE,OE,q,1025,2208474,,,,,,,,,
CVOE_C,91,1,3,67,O 13,Letter,Y,FALSE,CV,q,992,2209975,,,,,,,,,
CVOE_C,91,1,3,68,P 82,Letter,N,FALSE,CV,q,1867,2212350,,,,,,,,,
CVOE_C,91,1,3,69,S 72,Number,Y,FALSE,OE,p,1321,2214188,,,,,,,,,
CVOE_C,91,1,3,70,U 84,Number,N,TRUE,OE,p,1504,2216204,,,,,,,,,
CVOE_C,91,1,3,71,A 49,Letter,Y,FALSE,CV,p,1236,2217953,,,,,,,,,
CVOE_C,91,1,3,72,D 91,Letter,N,TRUE,CV,q,797,2219264,,,,,,,,,
CVOE_C,91,1,3,73,E 99,Number,Y,FALSE,OE,q,1425,2221209,,,,,,,,,
CVOE_C,91,1,3,74,H 16,Number,N,FALSE,OE,p,1259,2222976,,,,,,,,,
CVOE_C,91,1,3,75,I 45,Letter,Y,FALSE,CV,p,922,2224406,,,,,,,,,
CVOE_C,91,1,3,76,J 70,Letter,N,FALSE,CV,q,940,2225857,,,,,,,,,
CVOE_C,91,1,3,77,O 22,Number,Y,TRUE,OE,p,1527,2227894,,,,,,,,,
CVOE_C,91,1,3,78,P 41,Number,N,TRUE,OE,q,1427,2229845,,,,,,,,,
CVOE_C,91,1,3,79,S 93,Letter,Y,TRUE,CV,q,950,2231318,,,,,,,,,
CVOE_C,91,1,3,80,U 70,Letter,N,TRUE,CV,p,941,2232775,,,,,,,,,
CVOE_C,91,1,3,81,A 42,Number,Y,TRUE,OE,p,1538,2234823,,,,,,,,,
CVOE_C,91,1,3,82,D 85,Number,N,TRUE,OE,q,1078,2236413,,,,,,,,,
CVOE_C,91,1,3,83,E 68,Letter,Y,TRUE,CV,p,859,2237794,,,,,,,,,
CVOE_C,91,1,3,84,H 17,Letter,N,TRUE,CV,q,1232,2239534,,,,,,,,,
CVOE_C,91,1,3,85,I 70,Number,Y,TRUE,OE,p,1808,2241860,,,,,,,,,
CVOE_C,91,1,3,86,J 88,Number,N,FALSE,OE,p,2080,2244448,,,,,,,,,
CVOE_C,91,1,3,87,O 32,Letter,Y,TRUE,CV,p,1089,2246058,,,,,,,,,
CVOE_C,91,1,3,88,P 95,Letter,N,TRUE,CV,q,607,2247176,,,,,,,,,
CVOE_C,91,1,3,89,S 98,Number,Y,FALSE,OE,p,1489,2249191,,,,,,,,,
CVOE_C,91,1,3,90,U 37,Number,N,FALSE,OE,q,1950,2251652,,,,,,,,,
CVOE_C,91,1,3,91,A 56,Letter,Y,TRUE,CV,p,1153,2253322,,,,,,,,,
CVOE_C,91,1,3,92,D 57,Letter,N,TRUE,CV,q,1317,2255153,,,,,,,,,
CVOE_C,91,1,3,93,E 93,Number,Y,FALSE,OE,q,2095,2257764,,,,,,,,,
CVOE_C,91,1,3,94,H 27,Number,N,TRUE,OE,q,1413,2259699,,,,,,,,,
CVOE_C,91,1,3,95,I 35,Letter,Y,FALSE,CV,p,1181,2261401,,,,,,,,,
CVOE_C,91,1,3,96,J 03,Letter,N,TRUE,CV,q,1841,2263761,,,,,,,,,
CVOE_C,91,1,3,97,O 28,Number,Y,TRUE,OE,p,1606,2265876,,,,,,,,,
CVOE_C,91,1,3,98,P 59,Number,N,TRUE,OE,q,1015,2267402,,,,,,,,,
CVOE_C,91,1,3,99,S 77,Letter,Y,TRUE,CV,q,1688,2269608,,,,,,,,,
CVOE_C,91,1,3,100,U 05,Letter,N,FALSE,CV,p,1749,2271869,,,,,,,,,
CVOE_C,91,1,3,101,A 56,Number,Y,TRUE,OE,p,1562,2273949,,,,,,,,,
CVOE_C,91,1,3,102,D 01,Number,N,TRUE,OE,q,971,2275442,,,,,,,,,
CVOE_C,91,1,3,103,E 02,Letter,Y,TRUE,CV,p,932,2276886,,,,,,,,,
CVOE_C,91,1,3,104,H 68,Letter,N,FALSE,CV,q,959,2278363,,,,,,,,,
CVOE_C,91,1,3,105,I 05,Number,Y,FALSE,OE,q,1715,2280586,,,,,,,,,
CVOE_C,91,1,3,106,J 55,Number,N,TRUE,OE,q,1088,2282192,,,,,,,,,
CVOE_C,91,1,3,107,O 73,Letter,Y,FALSE,CV,p,1369,2284073,,,,,,,,,
CVOE_C,91,1,3,108,P 41,Letter,N,TRUE,CV,q,1285,2285873,,,,,,,,,
CVOE_C,91,1,3,109,S 92,Number,Y,FALSE,OE,p,1214,2287602,,,,,,,,,
CVOE_C,91,1,3,110,U 34,Number,N,TRUE,OE,p,1474,2289595,,,,,,,,,
CVOE_C,91,1,3,111,A 09,Letter,Y,FALSE,CV,p,1330,2291435,,,,,,,,,
CVOE_C,91,1,3,112,D 92,Letter,N,FALSE,CV,q,1861,2293816,,,,,,,,,
CVOE_C,91,1,3,113,E 48,Number,Y,TRUE,OE,p,1287,2295626,,,,,,,,,
CVOE_C,91,1,3,114,H 76,Number,N,FALSE,OE,p,1617,2297756,,,,,,,,,
CVOE_C,91,1,3,115,I 44,Letter,Y,TRUE,CV,p,2222,2300494,,,,,,,,,
CVOE_C,91,1,3,116,J 67,Letter,N,TRUE,CV,q,722,2301728,,,,,,,,,
CVOE_C,91,1,3,117,O 48,Number,Y,TRUE,OE,p,1371,2303610,,,,,,,,,
CVOE_C,91,1,3,118,P 22,Number,N,FALSE,OE,p,2868,2306991,,,,,,,,,
CVOE_C,91,1,3,119,S 86,Letter,Y,FALSE,CV,q,1594,2309100,,,,,,,,,
CVOE_C,91,1,3,120,U 35,Letter,N,FALSE,CV,p,1371,2310994,,,,,,,,,
CVOE_C,91,1,3,121,A 91,Number,Y,FALSE,OE,q,1597,2313103,,,,,,,,,
CVOE_C,91,1,3,122,D 78,Number,N,FALSE,OE,p,2181,2315804,,,,,,,,,
CVOE_C,91,1,3,123,E 91,Letter,Y,FALSE,CV,p,1417,2317740,,,,,,,,,
CVOE_C,91,1,3,124,H 54,Letter,N,FALSE,CV,q,1248,2319505,,,,,,,,,
CVOE_C,91,1,3,125,I 65,Number,Y,FALSE,OE,q,1424,2321448,,,,,,,,,
CVOE_C,91,1,3,126,J 52,Number,N,FALSE,OE,p,1798,2323755,,,,,,,,,
CVOE_C,91,1,3,127,O 19,Letter,Y,FALSE,CV,p,1488,2325762,,,,,,,,,
CVOE_C,91,1,3,128,P 48,Letter,N,FALSE,CV,q,1502,2327776,,,,,,,,,
CVOE_C,91,1,3,129,S 45,Number,Y,TRUE,OE,q,2217,2330508,,,,,,,,,
CVOE_C,91,1,3,130,U 26,Number,N,TRUE,OE,p,1167,2332191,,,,,,,,,
CVOE_C,91,1,4,1,U 38,Number,N,TRUE,OE,p,2606,2351798,,,,,,,,,
CVOE_C,91,1,4,2,P 73,Number,N,TRUE,OE,q,1718,2354027,,,,,,,,,
CVOE_C,91,1,4,3,U 95,Letter,Y,FALSE,CV,p,1078,2355621,,,,,,,,,
CVOE_C,91,1,4,4,J 61,Number,Y,TRUE,OE,q,1199,2357342,,,,,,,,,
CVOE_C,91,1,4,5,D 51,Number,N,TRUE,OE,q,1042,2358901,,,,,,,,,
CVOE_C,91,1,4,6,S 28,Number,N,FALSE,OE,p,1047,2360457,,,,,,,,,
CVOE_C,91,1,4,7,A 56,Letter,Y,TRUE,CV,p,770,2361747,,,,,,,,,
CVOE_C,91,1,4,8,H 78,Letter,N,FALSE,CV,q,768,2363028,,,,,,,,,
CVOE_C,91,1,4,9,P 92,Letter,N,FALSE,CV,q,807,2364350,,,,,,,,,
CVOE_C,91,1,4,10,E 05,Number,Y,FALSE,OE,q,1781,2366641,,,,,,,,,
CVOE_C,91,1,4,11,P 57,Letter,Y,TRUE,CV,q,1012,2368172,,,,,,,,,
CVOE_C,91,1,4,12,D 88,Number,Y,FALSE,OE,p,1678,2370371,,,,,,,,,
CVOE_C,91,1,4,13,O 89,Letter,Y,FALSE,CV,p,981,2371875,,,,,,,,,
CVOE_C,91,1,4,14,U 43,Number,Y,FALSE,OE,q,1241,2373635,,,,,,,,,
CVOE_C,91,1,4,15,H 10,Number,N,FALSE,OE,p,1357,2375501,,,,,,,,,
CVOE_C,91,1,4,16,S 07,Letter,Y,TRUE,CV,q,790,2376801,,,,,,,,,
CVOE_C,91,1,4,17,J 10,Letter,N,FALSE,CV,q,675,2377986,,,,,,,,,
CVOE_C,91,1,4,18,H 54,Number,Y,FALSE,OE,p,979,2379473,,,,,,,,,
CVOE_C,91,1,4,19,E 99,Number,N,FALSE,OE,q,1074,2381068,,,,,,,,,
CVOE_C,91,1,4,20,J 36,Letter,Y,FALSE,CV,q,845,2382423,,,,,,,,,
CVOE_C,91,1,4,21,I 94,Letter,N,TRUE,CV,p,1097,2384041,,,,,,,,,
CVOE_C,91,1,4,22,A 82,Letter,N,TRUE,CV,p,751,2385312,,,,,,,,,
CVOE_C,91,1,4,23,H 79,Number,Y,TRUE,OE,q,1549,2387377,,,,,,,,,
CVOE_C,91,1,4,24,J 60,Number,N,FALSE,OE,p,1466,2389361,,,,,,,,,
CVOE_C,91,1,4,25,S 28,Letter,Y,FALSE,CV,q,1171,2391049,,,,,,,,,
CVOE_C,91,1,4,26,P 11,Number,Y,TRUE,OE,q,1228,2392790,,,,,,,,,
CVOE_C,91,1,4,27,D 39,Number,N,TRUE,OE,q,1992,2395304,,,,,,,,,
CVOE_C,91,1,4,28,E 90,Number,N,TRUE,OE,p,1286,2397115,,,,,,,,,
CVOE_C,91,1,4,29,I 38,Number,N,TRUE,OE,p,811,2398440,,,,,,,,,
CVOE_C,91,1,4,30,S 35,Letter,Y,TRUE,CV,q,956,2399918,,,,,,,,,
CVOE_C,91,1,4,31,D 41,Number,Y,TRUE,OE,q,1231,2401660,,,,,,,,,
CVOE_C,91,1,4,32,E 06,Number,N,TRUE,OE,p,1314,2403493,,,,,,,,,
CVOE_C,91,1,4,33,A 27,Number,N,FALSE,OE,q,1335,2405347,,,,,,,,,
CVOE_C,91,1,4,34,U 95,Letter,Y,FALSE,CV,p,1033,2406896,,,,,,,,,
CVOE_C,91,1,4,35,A 53,Letter,N,FALSE,CV,p,1008,2408421,,,,,,,,,
CVOE_C,91,1,4,36,E 43,Letter,N,FALSE,CV,p,904,2409833,,,,,,,,,
CVOE_C,91,1,4,37,P 05,Number,Y,TRUE,OE,q,1089,2411435,,,,,,,,,
CVOE_C,91,1,4,38,O 19,Letter,Y,FALSE,CV,p,1688,2413634,,,,,,,,,
CVOE_C,91,1,4,39,I 96,Number,Y,TRUE,OE,p,1530,2415676,,,,,,,,,
CVOE_C,91,1,4,40,A 88,Number,N,TRUE,OE,p,1149,2417346,,,,,,,,,
CVOE_C,91,1,4,41,I 67,Number,N,FALSE,OE,q,785,2418648,,,,,,,,,
CVOE_C,91,1,4,42,D 40,Number,N,FALSE,OE,p,1033,2420196,,,,,,,,,
CVOE_C,91,1,4,43,P 79,Letter,Y,TRUE,CV,q,1068,2421782,,,,,,,,,
CVOE_C,91,1,4,44,U 24,Number,Y,TRUE,OE,p,929,2423226,,,,,,,,,
CVOE_C,91,1,4,45,P 74,Number,N,FALSE,OE,p,788,2424535,,,,,,,,,
CVOE_C,91,1,4,46,E 70,Number,N,TRUE,OE,p,868,2425915,,,,,,,,,
CVOE_C,91,1,4,47,S 27,Number,N,TRUE,OE,q,954,2427385,,,,,,,,,
CVOE_C,91,1,4,48,E 54,Letter,Y,TRUE,CV,p,1149,2429046,,,,,,,,,
CVOE_C,91,1,4,49,A 53,Letter,N,FALSE,CV,p,2028,2431592,,,,,,,,,
CVOE_C,91,1,4,50,P 34,Letter,N,FALSE,CV,q,2184,2434298,,,,,,,,,
CVOE_C,91,1,4,51,D 74,Number,Y,FALSE,OE,p,1430,2436245,,,,,,,,,
CVOE_C,91,1,4,52,A 03,Letter,Y,FALSE,CV,p,993,2437758,,,,,,,,,
CVOE_C,91,1,4,53,E 24,Number,Y,TRUE,OE,p,896,2439177,,,,,,,,,
CVOE_C,91,1,4,54,I 58,Letter,Y,TRUE,CV,p,889,2440587,,,,,,,,,
CVOE_C,91,1,4,55,D 77,Number,Y,TRUE,OE,q,1213,2442311,,,,,,,,,
CVOE_C,91,1,4,56,S 75,Number,N,TRUE,OE,q,1287,2444119,,,,,,,,,
CVOE_C,91,1,4,57,I 20,Letter,Y,TRUE,CV,p,1030,2445662,,,,,,,,,
CVOE_C,91,1,4,58,J 52,Letter,N,FALSE,CV,q,826,2447008,,,,,,,,,
CVOE_C,91,1,4,59,A 38,Number,Y,TRUE,OE,p,1689,2449221,,,,,,,,,
CVOE_C,91,1,4,60,I 60,Letter,Y,TRUE,CV,p,1315,2451047,,,,,,,,,
CVOE_C,91,1,4,61,S 51,Number,Y,TRUE,OE,q,1220,2452786,,,,,,,,,
CVOE_C,91,1,4,62,D 63,Letter,Y,TRUE,CV,q,1685,2454984,,,,,,,,,
CVOE_C,91,1,4,63,U 27,Letter,N,FALSE,CV,p,1078,2456577,,,,,,,,,
CVOE_C,91,1,4,64,J 77,Letter,N,TRUE,CV,q,730,2457829,,,,,,,,,
CVOE_C,91,1,4,65,O 15,Number,Y,FALSE,OE,p,1058,2459407,,,,,,,,,
CVOE_C,91,1,4,66,J 20,Letter,Y,FALSE,CV,q,1094,2461027,,,,,,,,,
CVOE_C,91,1,4,67,U 97,Number,Y,FALSE,OE,q,1585,2463135,,,,,,,,,
CVOE_C,91,1,4,68,H 03,Number,N,TRUE,OE,q,1090,2464740,,,,,,,,,
CVOE_C,91,1,4,69,O 04,Letter,Y,TRUE,CV,p,1304,2466554,,,,,,,,,
CVOE_C,91,1,4,70,E 10,Letter,N,TRUE,CV,p,1558,2468625,,,,,,,,,
CVOE_C,91,1,4,71,I 52,Letter,N,TRUE,CV,p,863,2469996,,,,,,,,,
CVOE_C,91,1,4,72,H 81,Number,Y,TRUE,OE,q,1026,2471543,,,,,,,,,
CVOE_C,91,1,4,73,I 41,Number,N,FALSE,OE,q,1837,2473904,,,,,,,,,
CVOE_C,91,1,4,74,U 19,Letter,Y,FALSE,CV,p,1412,2475829,,,,,,,,,
CVOE_C,91,1,4,75,O 17,Number,Y,FALSE,OE,q,1541,2477892,,,,,,,,,
CVOE_C,91,1,4,76,A 10,Number,N,TRUE,OE,p,1321,2479722,,,,,,,,,
CVOE_C,91,1,4,77,P 93,Letter,Y,TRUE,CV,q,934,2481168,,,,,,,,,
CVOE_C,91,1,4,78,E 59,Letter,N,FALSE,CV,q,1425,2483109,,,,,,,,,
CVOE_C,91,1,4,79,O 53,Letter,N,FALSE,CV,p,1223,2484841,,,,,,,,,
CVOE_C,91,1,4,80,A 96,Letter,N,TRUE,CV,p,1030,2486381,,,,,,,,,
CVOE_C,91,1,4,81,H 36,Letter,Y,FALSE,CV,q,1592,2488493,,,,,,,,,
CVOE_C,91,1,4,82,A 63,Letter,N,FALSE,CV,p,1368,2490369,,,,,,,,,
CVOE_C,91,1,4,83,I 38,Letter,N,TRUE,CV,p,1023,2491908,,,,,,,,,
CVOE_C,91,1,4,84,O 51,Number,Y,FALSE,OE,q,1714,2494132,,,,,,,,,
CVOE_C,91,1,4,85,J 26,Number,N,FALSE,OE,p,1203,2495855,,,,,,,,,
CVOE_C,91,1,4,86,S 34,Letter,Y,FALSE,CV,q,1158,2497527,,,,,,,,,
CVOE_C,91,1,4,87,U 85,Number,Y,FALSE,OE,q,993,2499028,,,,,,,,,
CVOE_C,91,1,4,88,J 77,Number,N,TRUE,OE,q,908,2500443,,,,,,,,,
CVOE_C,91,1,4,89,I 73,Letter,Y,FALSE,CV,p,899,2501851,,,,,,,,,
CVOE_C,91,1,4,90,H 46,Number,Y,FALSE,OE,p,908,2503277,,,,,,,,,
CVOE_C,91,1,4,91,D 04,Number,N,FALSE,OE,p,790,2504576,,,,,,,,,
CVOE_C,91,1,4,92,P 72,Letter,Y,FALSE,CV,q,794,2505880,,,,,,,,,
CVOE_C,91,1,4,93,D 99,Number,Y,TRUE,OE,q,1092,2507495,,,,,,,,,
CVOE_C,91,1,4,94,U 25,Letter,Y,FALSE,CV,p,980,2508983,,,,,,,,,
CVOE_C,91,1,4,95,O 32,Letter,N,TRUE,CV,p,837,2510340,,,,,,,,,
CVOE_C,91,1,4,96,E 80,Letter,N,TRUE,CV,p,1806,2512659,,,,,,,,,
CVOE_C,91,1,4,97,O 84,Number,Y,TRUE,OE,p,1416,2514586,,,,,,,,,
CVOE_C,91,1,4,98,A 78,Number,N,TRUE,OE,p,3560,2518663,,,,,,,,,
CVOE_C,91,1,4,99,S 05,Number,N,TRUE,OE,q,1459,2520646,,,,,,,,,
CVOE_C,91,1,4,100,U 35,Letter,Y,FALSE,CV,p,1027,2522181,,,,,,,,,
CVOE_C,91,1,4,101,H 14,Letter,N,FALSE,CV,q,917,2523621,,,,,,,,,
CVOE_C,91,1,4,102,U 15,Number,Y,FALSE,OE,q,2265,2526402,,,,,,,,,
CVOE_C,91,1,4,103,E 36,Letter,Y,TRUE,CV,p,975,2527896,,,,,,,,,
CVOE_C,91,1,4,104,P 70,Letter,N,FALSE,CV,q,1774,2530195,,,,,,,,,
CVOE_C,91,1,4,105,O 44,Number,Y,TRUE,OE,p,1703,2532424,,,,,,,,,
CVOE_C,91,1,4,106,S 41,Letter,Y,TRUE,CV,q,1909,2534847,,,,,,,,,
CVOE_C,91,1,4,107,D 83,Letter,N,TRUE,CV,q,1766,2537137,,,,,,,,,
CVOE_C,91,1,4,108,J 39,Letter,N,TRUE,CV,q,644,2538299,,,,,,,,,
CVOE_C,91,1,4,109,S 22,Number,Y,FALSE,OE,p,901,2539722,,,,,,,,,
CVOE_C,91,1,4,110,D 89,Letter,Y,TRUE,CV,q,1342,2541580,,,,,,,,,
CVOE_C,91,1,4,111,P 87,Letter,N,TRUE,CV,q,1016,2543104,,,,,,,,,
CVOE_C,91,1,4,112,H 42,Letter,N,FALSE,CV,q,902,2544524,,,,,,,,,
CVOE_C,91,1,4,113,S 49,Letter,N,TRUE,CV,q,2449,2547488,,,,,,,,,
CVOE_C,91,1,4,114,J 20,Number,Y,FALSE,OE,p,1104,2549109,,,,,,,,,
CVOE_C,91,1,4,115,O 19,Letter,Y,FALSE,CV,p,2086,2551708,,,,,,,,,
CVOE_C,91,1,4,116,H 50,Letter,N,FALSE,CV,q,850,2553072,,,,,,,,,
CVOE_C,91,1,4,117,I 68,Number,Y,TRUE,OE,p,1009,2554598,,,,,,,,,
CVOE_C,91,1,4,118,J 72,Number,N,FALSE,OE,p,735,2555841,,,,,,,,,
CVOE_C,91,1,4,119,O 21,Number,N,FALSE,OE,q,859,2557215,,,,,,,,,
CVOE_C,91,1,4,120,H 22,Number,N,FALSE,OE,p,1149,2558888,,,,,,,,,
CVOE_D,88,1,1,11,A 71,,,FALSE,CV,p,951,1205709,,,,,,,,,
CVOE_D,88,1,1,12,I 66,,,TRUE,CV,p,596,1206821,,,,,,,,,
CVOE_D,88,1,1,13,S 30,,,FALSE,CV,q,503,1207845,,,,,,,,,
CVOE_D,88,1,1,14,D 20,,,FALSE,CV,q,494,1208853,,,,,,,,,
CVOE_D,88,1,1,15,I 31,,,FALSE,CV,p,430,1209805,,,,,,,,,
CVOE_D,88,1,1,16,P 16,,,FALSE,CV,q,432,1210757,,,,,,,,,
CVOE_D,88,1,1,17,A 49,,,FALSE,CV,p,386,1211661,,,,,,,,,
CVOE_D,88,1,1,18,O 64,,,TRUE,CV,p,726,1212901,,,,,,,,,
CVOE_D,88,1,1,19,D 02,,,FALSE,CV,q,548,1213957,,,,,,,,,
CVOE_D,88,1,1,20,P 81,,,TRUE,CV,q,649,1215125,,,,,,,,,
CVOE_D,88,1,1,21,J 58,,,FALSE,CV,q,531,1216173,,,,,,,,,
CVOE_D,88,1,1,22,A 22,,,TRUE,CV,p,489,1217181,,,,,,,,,
CVOE_D,88,1,1,23,J 72,,,FALSE,CV,q,648,1218341,,,,,,,,,
CVOE_D,88,1,1,24,P 91,,,TRUE,CV,q,850,1219709,,,,,,,,,
CVOE_D,88,1,1,25,E 19,,,FALSE,CV,p,459,1220685,,,,,,,,,
CVOE_D,88,1,1,26,I 30,,,TRUE,CV,p,516,1221709,,,,,,,,,
CVOE_D,88,1,1,27,D 91,,,TRUE,CV,q,451,1222677,,,,,,,,,
CVOE_D,88,1,1,28,O 48,,,TRUE,CV,p,428,1223621,,,,,,,,,
CVOE_D,88,1,1,29,A 89,,,FALSE,CV,p,558,1224701,,,,,,,,,
CVOE_D,88,1,1,30,U 11,,,FALSE,CV,p,523,1225733,,,,,,,,,
CVOE_D,88,1,1,31,I 76,,,TRUE,CV,p,482,1226725,,,,,,,,,
CVOE_D,88,1,1,32,U 89,,,FALSE,CV,p,450,1227693,,,,,,,,,
CVOE_D,88,1,1,33,D 63,,,TRUE,CV,q,499,1228709,,,,,,,,,
CVOE_D,88,1,1,34,H 70,,,FALSE,CV,q,466,1229693,,,,,,,,,
CVOE_D,88,1,1,35,D 48,,,FALSE,CV,q,603,1230813,,,,,,,,,
CVOE_D,88,1,1,36,P 56,,,FALSE,CV,q,454,1231781,,,,,,,,,
CVOE_D,88,1,1,37,O 77,,,FALSE,CV,p,647,1232941,,,,,,,,,
CVOE_D,88,1,1,38,P 42,,,FALSE,CV,q,705,1234165,,,,,,,,,
CVOE_D,88,1,1,39,H 22,,,FALSE,CV,q,1032,1235709,,,,,,,,,
CVOE_D,88,1,1,40,E 42,,,TRUE,CV,p,490,1236717,,,,,,,,,
CVOE_D,88,1,1,41,J 28,,,FALSE,CV,q,642,1237869,,,,,,,,,
CVOE_D,88,1,1,42,E 95,,,FALSE,CV,p,540,1238917,,,,,,,,,
CVOE_D,88,1,1,43,S 63,,,TRUE,CV,q,594,1240021,,,,,,,,,
CVOE_D,88,1,1,44,H 50,,,FALSE,CV,q,725,1241269,,,,,,,,,
CVOE_D,88,1,1,45,S 33,,,TRUE,CV,q,459,1242237,,,,,,,,,
CVOE_D,88,1,1,46,P 57,,,TRUE,CV,q,492,1243253,,,,,,,,,
CVOE_D,88,1,1,47,E 23,,,FALSE,CV,p,564,1244325,,,,,,,,,
CVOE_D,88,1,1,48,S 61,,,TRUE,CV,q,1441,1246285,,,,,,,,,
CVOE_D,88,1,1,49,U 67,,,FALSE,CV,p,858,1247653,,,,,,,,,
CVOE_D,88,1,1,50,H 32,,,FALSE,CV,q,692,1248853,,,,,,,,,
CVOE_D,88,1,1,51,U 50,,,TRUE,CV,p,724,1250085,,,,,,,,,
CVOE_D,88,1,1,52,O 49,,,FALSE,CV,p,898,1251493,,,,,,,,,
CVOE_D,88,1,1,53,U 32,,,TRUE,CV,p,825,1252837,,,,,,,,,
CVOE_D,88,1,1,54,J 78,,,FALSE,CV,q,700,1254045,,,,,,,,,
CVOE_D,88,1,1,55,S 54,,,FALSE,CV,q,587,1255149,,,,,,,,,
CVOE_D,88,1,1,56,J 27,,,TRUE,CV,q,655,1256317,,,,,,,,,
CVOE_D,88,1,1,57,S 06,,,FALSE,CV,q,632,1257461,,,,,,,,,
CVOE_D,88,1,1,58,D 67,,,TRUE,CV,q,618,1258597,,,,,,,,,
CVOE_D,88,1,1,59,A 79,,,FALSE,CV,p,653,1259765,,,,,,,,,
CVOE_D,88,1,1,60,S 52,,,FALSE,CV,q,1030,1261309,,,,,,,,,
CVOE_D,88,1,1,61,U 16,,,TRUE,CV,p,560,1262389,,,,,,,,,
CVOE_D,88,1,1,62,O 82,,,TRUE,CV,p,653,1263565,,,,,,,,,
CVOE_D,88,1,1,63,H 87,,,TRUE,CV,q,734,1264813,,,,,,,,,
CVOE_D,88,1,1,64,I 32,,,TRUE,CV,p,468,1265797,,,,,,,,,
CVOE_D,88,1,1,65,U 37,,,FALSE,CV,p,484,1266797,,,,,,,,,
CVOE_D,88,1,1,66,I 42,,,TRUE,CV,p,540,1267853,,,,,,,,,
CVOE_D,88,1,1,67,D 65,,,TRUE,CV,q,594,1268957,,,,,,,,,
CVOE_D,88,1,1,68,U 77,,,FALSE,CV,p,486,1269965,,,,,,,,,
CVOE_D,88,1,1,69,E 12,,,TRUE,CV,p,453,1270933,,,,,,,,,
CVOE_D,88,1,1,70,I 60,,,TRUE,CV,p,503,1271949,,,,,,,,,
CVOE_D,88,1,1,71,J 36,,,FALSE,CV,q,438,1272901,,,,,,,,,
CVOE_D,88,1,1,72,H 75,,,TRUE,CV,q,432,1273845,,,,,,,,,
CVOE_D,88,1,1,73,I 50,,,TRUE,CV,p,586,1274949,,,,,,,,,
CVOE_D,88,1,1,74,E 99,,,FALSE,CV,p,510,1275973,,,,,,,,,
CVOE_D,88,1,1,75,A 86,,,TRUE,CV,p,420,1276917,,,,,,,,,
CVOE_D,88,1,1,76,U 48,,,TRUE,CV,p,423,1277853,,,,,,,,,
CVOE_D,88,1,1,77,E 01,,,FALSE,CV,p,426,1278789,,,,,,,,,
CVOE_D,88,1,1,78,A 78,,,TRUE,CV,p,412,1279709,,,,,,,,,
CVOE_D,88,1,1,79,P 60,,,FALSE,CV,q,479,1280709,,,,,,,,,
CVOE_D,88,1,1,80,E 43,,,FALSE,CV,p,463,1281693,,,,,,,,,
CVOE_D,88,1,1,81,D 69,,,TRUE,CV,q,487,1282701,,,,,,,,,
CVOE_D,88,1,1,82,H 11,,,TRUE,CV,q,599,1283813,,,,,,,,,
CVOE_D,88,1,1,83,P 43,,,TRUE,CV,q,555,1284885,,,,,,,,,
CVOE_D,88,1,1,84,O 67,,,FALSE,CV,p,912,1286309,,,,,,,,,
CVOE_D,88,1,1,85,S 91,,,FALSE,CV,q,1014,1287845,,,,,,,,,
CVOE_D,88,1,1,86,J 68,,,TRUE,CV,q,537,1288901,,,,,,,,,
CVOE_D,88,1,1,87,S 47,,,FALSE,CV,q,431,1289845,,,,,,,,,
CVOE_D,88,1,1,88,I 81,,,TRUE,CV,p,553,1290917,,,,,,,,,
CVOE_D,88,1,1,89,J 39,,,FALSE,CV,q,502,1291933,,,,,,,,,
CVOE_D,88,1,1,90,A 11,,,TRUE,CV,p,485,1292933,,,,,,,,,
CVOE_D,88,1,1,91,O 76,,,FALSE,CV,p,501,1293949,,,,,,,,,
CVOE_D,88,1,1,92,A 62,,,FALSE,CV,p,436,1294901,,,,,,,,,
CVOE_D,88,1,1,93,O 27,,,TRUE,CV,p,486,1295901,,,,,,,,,
CVOE_D,88,1,1,94,E 66,,,FALSE,CV,p,462,1296877,,,,,,,,,
CVOE_D,88,1,1,95,J 62,,,TRUE,CV,q,487,1297885,,,,,,,,,
CVOE_D,88,1,1,96,H 72,,,TRUE,CV,q,1223,1299621,,,,,,,,,
CVOE_D,88,1,1,97,E 49,,,TRUE,CV,p,625,1300757,,,,,,,,,
CVOE_D,88,1,1,98,D 52,,,TRUE,CV,q,452,1301717,,,,,,,,,
CVOE_D,88,1,1,99,H 62,,,TRUE,CV,q,421,1302653,,,,,,,,,
CVOE_D,88,1,1,100,I 11,,,TRUE,CV,p,696,1303861,,,,,,,,,
CVOE_D,88,1,1,101,A 98,,,FALSE,CV,p,535,1304917,,,,,,,,,
CVOE_D,88,1,1,102,H 29,,,FALSE,CV,q,733,1306165,,,,,,,,,
CVOE_D,88,1,1,103,E 83,,,TRUE,CV,p,811,1307493,,,,,,,,,
CVOE_D,88,1,1,104,D 43,,,FALSE,CV,q,814,1308829,,,,,,,,,
CVOE_D,88,1,1,105,P 45,,,TRUE,CV,q,1120,1310469,,,,,,,,,
CVOE_D,88,1,1,106,J 17,,,TRUE,CV,q,775,1311757,,,,,,,,,
CVOE_D,88,1,2,11,A 24,,,TRUE,OE,p,1136,1372773,,,,,,,,,
CVOE_D,88,1,2,12,O 83,,,FALSE,OE,q,806,1374093,,,,,,,,,
CVOE_D,88,1,2,13,H 55,,,TRUE,OE,q,658,1375261,,,,,,,,,
CVOE_D,88,1,2,14,P 10,,,FALSE,OE,p,1195,1376965,,,,,,,,,
CVOE_D,88,1,2,15,D 30,,,FALSE,OE,p,542,1378029,,,,,,,,,
CVOE_D,88,1,2,16,U 62,,,TRUE,OE,p,556,1379093,,,,,,,,,
CVOE_D,88,1,2,17,P 95,,,TRUE,OE,q,513,1380117,,,,,,,,,
CVOE_D,88,1,2,18,U 06,,,TRUE,OE,p,840,1381477,,,,,,,,,
CVOE_D,88,1,2,19,E 75,,,FALSE,OE,q,634,1382621,,,,,,,,,
CVOE_D,88,1,2,20,I 67,,,FALSE,OE,q,1604,1384741,,,,,,,,,
CVOE_D,88,1,2,21,S 13,,,TRUE,OE,q,703,1385957,,,,,,,,,
CVOE_D,88,1,2,22,P 78,,,FALSE,OE,p,750,1387221,,,,,,,,,
CVOE_D,88,1,2,23,I 15,,,FALSE,OE,q,611,1388349,,,,,,,,,
CVOE_D,88,1,2,24,D 27,,,TRUE,OE,q,582,1389453,,,,,,,,,
CVOE_D,88,1,2,25,O 94,,,TRUE,OE,p,930,1390901,,,,,,,,,
CVOE_D,88,1,2,26,A 65,,,FALSE,OE,q,1400,1392821,,,,,,,,,
CVOE_D,88,1,2,27,I 42,,,TRUE,OE,p,587,1393925,,,,,,,,,
CVOE_D,88,1,2,28,E 25,,,FALSE,OE,q,703,1395141,,,,,,,,,
CVOE_D,88,1,2,29,H 49,,,TRUE,OE,q,982,1396637,,,,,,,,,
CVOE_D,88,1,2,30,S 18,,,FALSE,OE,p,802,1397957,,,,,,,,,
CVOE_D,88,1,2,31,H 51,,,TRUE,OE,q,1037,1399509,,,,,,,,,
CVOE_D,88,1,2,32,U 14,,,TRUE,OE,p,983,1401005,,,,,,,,,
CVOE_D,88,1,2,33,E 02,,,TRUE,OE,p,611,1402133,,,,,,,,,
CVOE_D,88,1,2,34,J 26,,,FALSE,OE,p,678,1403333,,,,,,,,,
CVOE_D,88,1,2,35,D 24,,,FALSE,OE,p,470,1404325,,,,,,,,,
CVOE_D,88,1,2,36,O 50,,,TRUE,OE,p,878,1405717,,,,,,,,,
CVOE_D,88,1,2,37,U 16,,,TRUE,OE,p,814,1407053,,,,,,,,,
CVOE_D,88,1,2,38,O 15,,,FALSE,OE,q,697,1408269,,,,,,,,,
CVOE_D,88,1,2,39,D 32,,,FALSE,OE,p,528,1409317,,,,,,,,,
CVOE_D,88,1,2,40,S 67,,,TRUE,OE,q,838,1410677,,,,,,,,,
CVOE_D,88,1,2,41,J 74,,,FALSE,OE,p,640,1411829,,,,,,,,,
CVOE_D,88,1,2,42,D 92,,,FALSE,OE,p,666,1413005,,,,,,,,,
CVOE_D,88,1,2,43,A 65,,,FALSE,OE,q,746,1414269,,,,,,,,,
CVOE_D,88,1,2,44,I 87,,,FALSE,OE,p,752,1415541,,,,,,,,,
CVOE_D,88,1,2,45,H 61,,,TRUE,OE,q,813,1416869,,,,,,,,,
CVOE_D,88,1,2,46,E 59,,,FALSE,OE,q,2727,1420117,,,,,,,,,
CVOE_D,88,1,2,47,I 33,,,FALSE,OE,q,821,1421461,,,,,,,,,
CVOE_D,88,1,2,48,O 90,,,TRUE,OE,p,808,1422781,,,,,,,,,
CVOE_D,88,1,2,49,U 51,,,FALSE,OE,q,1083,1424373,,,,,,,,,
CVOE_D,88,1,2,50,A 10,,,TRUE,OE,p,787,1425677,,,,,,,,,
CVOE_D,88,1,2,51,E 50,,,TRUE,OE,p,647,1426837,,,,,,,,,
CVOE_D,88,1,2,52,D 92,,,FALSE,OE,p,776,1428133,,,,,,,,,
CVOE_D,88,1,2,53,E 60,,,TRUE,OE,p,620,1429277,,,,,,,,,
CVOE_D,88,1,2,54,A 95,,,FALSE,OE,q,998,1430789,,,,,,,,,
CVOE_D,88,1,2,55,E 64,,,TRUE,OE,p,594,1431901,,,,,,,,,
CVOE_D,88,1,2,56,P 20,,,FALSE,OE,q,653,1433077,,,,,,,,,
CVOE_D,88,1,2,57,S 06,,,FALSE,OE,p,3150,1436741,,,,,,,,,
CVOE_D,88,1,2,58,P 64,,,FALSE,OE,p,803,1438061,,,,,,,,,
CVOE_D,88,1,2,59,U 70,,,TRUE,OE,p,711,1439285,,,,,,,,,
CVOE_D,88,1,2,60,S 16,,,FALSE,OE,p,653,1440461,,,,,,,,,
CVOE_D,88,1,2,61,E 35,,,FALSE,OE,q,710,1441685,,,,,,,,,
CVOE_D,88,1,2,62,I 93,,,FALSE,OE,q,853,1443061,,,,,,,,,
CVOE_D,88,1,2,63,D 63,,,TRUE,OE,q,622,1444197,,,,,,,,,
CVOE_D,88,1,2,64,U 89,,,FALSE,OE,q,833,1445541,,,,,,,,,
CVOE_D,88,1,2,65,E 91,,,FALSE,OE,q,827,1446885,,,,,,,,,
CVOE_D,88,1,2,66,A 12,,,TRUE,OE,p,589,1447997,,,,,,,,,
CVOE_D,88,1,2,67,P 56,,,FALSE,OE,p,625,1449133,,,,,,,,,
CVOE_D,88,1,2,68,S 65,,,TRUE,OE,q,635,1450277,,,,,,,,,
CVOE_D,88,1,2,69,P 07,,,TRUE,OE,p,493,1451285,,,,,,,,,
CVOE_D,88,1,2,70,I 77,,,FALSE,OE,q,956,1452765,,,,,,,,,
CVOE_D,88,1,2,71,J 19,,,TRUE,OE,q,626,1453901,,,,,,,,,
CVOE_D,88,1,2,72,O 59,,,FALSE,OE,q,612,1455021,,,,,,,,,
CVOE_D,88,1,2,73,J 15,,,TRUE,OE,q,1071,1456613,,,,,,,,,
CVOE_D,88,1,2,74,I 89,,,FALSE,OE,q,695,1457821,,,,,,,,,
CVOE_D,88,1,2,75,O 97,,,FALSE,OE,q,614,1458957,,,,,,,,,
CVOE_D,88,1,2,76,A 92,,,TRUE,OE,p,625,1460101,,,,,,,,,
CVOE_D,88,1,2,77,J 90,,,FALSE,OE,p,636,1461245,,,,,,,,,
CVOE_D,88,1,2,78,H 65,,,TRUE,OE,q,726,1462485,,,,,,,,,
CVOE_D,88,1,2,79,H 17,,,TRUE,OE,q,804,1463797,,,,,,,,,
CVOE_D,88,1,2,80,S 26,,,FALSE,OE,p,759,1465069,,,,,,,,,
CVOE_D,88,1,2,81,D 56,,,FALSE,OE,p,836,1466429,,,,,,,,,
CVOE_D,88,1,2,82,I 91,,,FALSE,OE,q,718,1467661,,,,,,,,,
CVOE_D,88,1,2,83,J 11,,,TRUE,OE,q,700,1468877,,,,,,,,,
CVOE_D,88,1,2,84,O 28,,,TRUE,OE,p,716,1470109,,,,,,,,,
CVOE_D,88,1,2,85,H 29,,,TRUE,OE,q,754,1471381,,,,,,,,,
CVOE_D,88,1,2,86,J 25,,,TRUE,OE,q,1200,1473093,,,,,,,,,
CVOE_D,88,1,2,87,A 73,,,FALSE,OE,q,899,1474509,,,,,,,,,
CVOE_D,88,1,2,88,J 63,,,TRUE,OE,q,698,1475725,,,,,,,,,
CVOE_D,88,1,2,89,U 84,,,TRUE,OE,p,1313,1477557,,,,,,,,,
CVOE_D,88,1,2,90,A 58,,,TRUE,OE,p,696,1478773,,,,,,,,,
CVOE_D,88,1,2,91,S 43,,,TRUE,OE,q,1623,1480917,,,,,,,,,
CVOE_D,88,1,2,92,H 54,,,FALSE,OE,p,834,1482261,,,,,,,,,
CVOE_D,88,1,2,93,D 4,,,FALSE,OE,p,851,1483629,,,,,,,,,
CVOE_D,88,1,2,94,J 75,,,TRUE,OE,q,845,1484989,,,,,,,,,
CVOE_D,88,1,2,95,D 19,,,TRUE,OE,q,758,1486269,,,,,,,,,
CVOE_D,88,1,2,96,J 38,,,FALSE,OE,p,1603,1488381,,,,,,,,,
CVOE_D,88,1,2,97,I 56,,,TRUE,OE,p,646,1489541,,,,,,,,,
CVOE_D,88,1,2,98,P 87,,,TRUE,OE,q,664,1490725,,,,,,,,,
CVOE_D,88,1,2,99,O 80,,,TRUE,OE,p,656,1491901,,,,,,,,,
CVOE_D,88,1,2,100,U 60,,,TRUE,OE,p,489,1492901,,,,,,,,,
CVOE_D,88,1,2,101,P 48,,,FALSE,OE,p,545,1493957,,,,,,,,,
CVOE_D,88,1,2,102,H 64,,,FALSE,OE,p,607,1495085,,,,,,,,,
CVOE_D,88,1,2,103,A 13,,,FALSE,OE,q,914,1496509,,,,,,,,,
CVOE_D,88,1,2,104,H 68,,,FALSE,OE,p,488,1497517,,,,,,,,,
CVOE_D,88,1,2,105,E 16,,,TRUE,OE,p,456,1498485,,,,,,,,,
CVOE_D,88,1,2,106,S 71,,,TRUE,OE,q,682,1499677,,,,,,,,,
CVOE_D,88,1,3,11,U 38,Number,N,TRUE,OE,p,2524,1596909,,,,,,,,,
CVOE_D,88,1,3,12,P 73,Number,N,TRUE,OE,q,2458,1599877,,,,,,,,,
CVOE_D,88,1,3,13,U 95,Letter,Y,FALSE,CV,p,3579,1603965,,,,,,,,,
CVOE_D,88,1,3,14,J 61,Number,Y,TRUE,OE,q,1679,1606165,,,,,,,,,
CVOE_D,88,1,3,15,D 51,Number,N,TRUE,OE,q,1303,1607989,,,,,,,,,
CVOE_D,88,1,3,16,S 28,Number,N,FALSE,OE,p,1094,1609597,,,,,,,,,
CVOE_D,88,1,3,17,A 56,Letter,Y,TRUE,CV,p,1733,1611853,,,,,,,,,
CVOE_D,88,1,3,18,H 78,Letter,N,FALSE,CV,q,1563,1613933,,,,,,,,,
CVOE_D,88,1,3,19,P 92,Letter,N,FALSE,CV,q,3296,1617749,,,,,,,,,
CVOE_D,88,1,3,20,E 05,Number,Y,FALSE,OE,q,2119,1620389,,,,,,,,,
CVOE_D,88,1,3,21,P 57,Letter,Y,TRUE,CV,q,3653,1624557,,,,,,,,,
CVOE_D,88,1,3,22,D 88,Number,Y,FALSE,OE,p,3094,1628165,,,,,,,,,
CVOE_D,88,1,3,23,O 89,Letter,Y,FALSE,CV,p,2077,1630765,,,,,,,,,
CVOE_D,88,1,3,24,U 43,Number,Y,FALSE,OE,q,1893,1633181,,,,,,,,,
CVOE_D,88,1,3,25,H 10,Number,N,FALSE,OE,p,1668,1635373,,,,,,,,,
CVOE_D,88,1,3,26,S 07,Letter,Y,TRUE,CV,q,1845,1637733,,,,,,,,,
CVOE_D,88,1,3,27,J 10,Letter,N,FALSE,CV,q,1454,1639709,,,,,,,,,
CVOE_D,88,1,3,28,H 54,Number,Y,FALSE,OE,p,1575,1641797,,,,,,,,,
CVOE_D,88,1,3,29,E 99,Number,N,FALSE,OE,q,1924,1644229,,,,,,,,,
CVOE_D,88,1,3,30,J 36,Letter,Y,FALSE,CV,q,1714,1646453,,,,,,,,,
CVOE_D,88,1,3,31,I 94,Letter,N,TRUE,CV,q,2433,1649405,,,,,,,,,
CVOE_D,88,1,3,32,A 82,Letter,N,TRUE,CV,p,1443,1651365,,,,,,,,,
CVOE_D,88,1,3,33,H 79,Number,Y,TRUE,OE,q,3156,1655045,,,,,,,,,
CVOE_D,88,1,3,34,J 60,Number,N,FALSE,OE,p,1153,1656709,,,,,,,,,
CVOE_D,88,1,3,35,S 28,Letter,Y,FALSE,CV,q,1150,1658373,,,,,,,,,
CVOE_D,88,1,3,36,P 11,Number,Y,TRUE,OE,q,2795,1661685,,,,,,,,,
CVOE_D,88,1,3,37,D 39,Number,N,TRUE,OE,q,3158,1665365,,,,,,,,,
CVOE_D,88,1,3,38,E 90,Number,N,TRUE,OE,p,1675,1667549,,,,,,,,,
CVOE_D,88,1,3,39,I 38,Number,N,TRUE,OE,p,1763,1669837,,,,,,,,,
CVOE_D,88,1,3,40,S 35,Letter,Y,TRUE,CV,q,1024,1671381,,,,,,,,,
CVOE_D,88,1,3,41,D 41,Number,Y,TRUE,OE,q,1610,1673501,,,,,,,,,
CVOE_D,88,1,3,42,E 06,Number,N,TRUE,OE,p,1149,1675173,,,,,,,,,
CVOE_D,88,1,3,43,A 27,Number,N,FALSE,OE,q,1114,1676805,,,,,,,,,
CVOE_D,88,1,3,44,U 95,Letter,Y,FALSE,CV,p,1657,1678981,,,,,,,,,
CVOE_D,88,1,3,45,A 53,Letter,N,FALSE,CV,p,1315,1680806,,,,,,,,,
CVOE_D,88,1,3,46,E 43,Letter,N,FALSE,CV,p,1368,1682693,,,,,,,,,
CVOE_D,88,1,3,47,P 05,Number,Y,TRUE,OE,q,1629,1684837,,,,,,,,,
CVOE_D,88,1,3,48,O 19,Letter,Y,FALSE,CV,p,1743,1687101,,,,,,,,,
CVOE_D,88,1,3,49,I 96,Number,Y,TRUE,OE,p,1956,1689581,,,,,,,,,
CVOE_D,88,1,3,50,A 88,Number,N,TRUE,OE,p,1737,1691829,,,,,,,,,
CVOE_D,88,1,3,51,I 67,Number,N,FALSE,OE,q,1935,1694277,,,,,,,,,
CVOE_D,88,1,3,52,D 40,Number,N,FALSE,OE,p,1902,1696694,,,,,,,,,
CVOE_D,88,1,3,53,P 79,Letter,Y,TRUE,CV,q,2124,1699333,,,,,,,,,
CVOE_D,88,1,3,54,U 24,Number,Y,TRUE,OE,p,3626,1703469,,,,,,,,,
CVOE_D,88,1,3,55,P 74,Number,N,FALSE,OE,p,925,1704918,,,,,,,,,
CVOE_D,88,1,3,56,E 70,Number,N,TRUE,OE,p,739,1706165,,,,,,,,,
CVOE_D,88,1,3,57,S 27,Number,N,TRUE,OE,q,841,1707517,,,,,,,,,
CVOE_D,88,1,3,58,E 54,Letter,Y,TRUE,CV,p,1179,1709205,,,,,,,,,
CVOE_D,88,1,3,59,A 53,Letter,N,FALSE,CV,p,1014,1710741,,,,,,,,,
CVOE_D,88,1,3,60,P 34,Letter,N,FALSE,CV,q,809,1712069,,,,,,,,,
CVOE_D,88,1,3,61,D 74,Number,Y,FALSE,OE,p,1492,1714085,,,,,,,,,
CVOE_D,88,1,3,62,A 03,Letter,Y,FALSE,CV,p,2267,1716861,,,,,,,,,
CVOE_D,88,1,3,63,E 24,Number,Y,TRUE,OE,p,3117,1720494,,,,,,,,,
CVOE_D,88,1,3,64,I 58,Letter,Y,TRUE,CV,p,2491,1723502,,,,,,,,,
CVOE_D,88,1,3,65,D 77,Number,Y,TRUE,OE,q,1602,1725613,,,,,,,,,
CVOE_D,88,1,3,66,S 75,Number,N,TRUE,OE,q,2157,1728285,,,,,,,,,
CVOE_D,88,1,3,67,I 20,Letter,Y,TRUE,CV,p,4691,1733486,,,,,,,,,
CVOE_D,88,1,3,68,J 52,Letter,N,FALSE,CV,q,4275,1738270,,,,,,,,,
CVOE_D,88,1,3,69,A 38,Number,Y,TRUE,OE,p,2675,1741454,,,,,,,,,
CVOE_D,88,1,3,70,I 60,Letter,Y,TRUE,CV,p,4180,1746142,,,,,,,,,
CVOE_D,88,1,3,71,S 51,Number,Y,TRUE,OE,q,1928,1748590,,,,,,,,,
CVOE_D,88,1,3,72,D 63,Letter,Y,TRUE,CV,q,1661,1750774,,,,,,,,,
CVOE_D,88,1,3,73,U 27,Letter,N,FALSE,CV,p,1374,1752670,,,,,,,,,
CVOE_D,88,1,3,74,J 77,Letter,N,TRUE,CV,q,1010,1754190,,,,,,,,,
CVOE_D,88,1,3,75,O 15,Number,Y,FALSE,OE,q,1821,1756534,,,,,,,,,
CVOE_D,88,1,3,76,J 20,Letter,Y,FALSE,CV,q,1512,1758558,,,,,,,,,
CVOE_D,88,1,3,77,U 97,Number,Y,FALSE,OE,q,1558,1760638,,,,,,,,,
CVOE_D,88,1,3,78,H 03,Number,N,TRUE,OE,q,1451,1762598,,,,,,,,,
CVOE_D,88,1,3,79,O 04,Letter,Y,TRUE,CV,p,1724,1764838,,,,,,,,,
CVOE_D,88,1,3,80,E 10,Letter,N,TRUE,CV,p,1139,1766486,,,,,,,,,
CVOE_D,88,1,3,81,I 52,Letter,N,TRUE,CV,p,713,1767710,,,,,,,,,
CVOE_D,88,1,3,82,H 81,Number,Y,TRUE,OE,q,2247,1770478,,,,,,,,,
CVOE_D,88,1,3,83,I 41,Number,N,FALSE,OE,q,1577,1772574,,,,,,,,,
CVOE_D,88,1,3,84,U 19,Letter,Y,FALSE,CV,p,1220,1774318,,,,,,,,,
CVOE_D,88,1,3,85,O 17,Number,Y,FALSE,OE,q,1567,1776398,,,,,,,,,
CVOE_D,88,1,3,86,A 10,Number,N,TRUE,OE,p,4547,1781462,,,,,,,,,
CVOE_D,88,1,3,87,P 93,Letter,Y,TRUE,CV,q,4696,1786678,,,,,,,,,
CVOE_D,88,1,3,88,E 59,Letter,N,FALSE,CV,p,1111,1788310,,,,,,,,,
CVOE_D,88,1,3,89,O 53,Letter,N,FALSE,CV,p,630,1789462,,,,,,,,,
CVOE_D,88,1,3,90,A 96,Letter,N,TRUE,CV,p,656,1790638,,,,,,,,,
CVOE_D,88,1,3,91,H 36,Letter,Y,FALSE,CV,p,553,1791702,,,,,,,,,
CVOE_D,88,1,3,92,A 63,Letter,N,FALSE,CV,p,662,1792878,,,,,,,,,
CVOE_D,88,1,3,93,I 38,Letter,N,TRUE,CV,p,663,1794062,,,,,,,,,
CVOE_D,88,1,3,94,O 51,Number,Y,FALSE,OE,q,1696,1796278,,,,,,,,,
CVOE_D,88,1,3,95,J 26,Number,N,FALSE,OE,p,7247,1804046,,,,,,,,,
CVOE_D,88,1,3,96,S 34,Letter,Y,FALSE,CV,q,1560,1806126,,,,,,,,,
CVOE_D,88,1,3,97,U 85,Number,Y,FALSE,OE,q,1828,1808478,,,,,,,,,
CVOE_D,88,1,3,98,J 77,Number,N,TRUE,OE,q,1406,1810406,,,,,,,,,
CVOE_D,88,1,3,99,I 73,Letter,Y,FALSE,CV,q,673,1811590,,,,,,,,,
CVOE_D,88,1,3,100,H 46,Number,Y,FALSE,OE,p,1666,1813766,,,,,,,,,
CVOE_D,88,1,3,101,D 04,Number,N,FALSE,OE,p,1074,1815358,,,,,,,,,
CVOE_D,88,1,3,102,P 72,Letter,Y,FALSE,CV,q,1427,1817294,,,,,,,,,
CVOE_D,88,1,3,103,D 99,Number,Y,TRUE,OE,q,1565,1819382,,,,,,,,,
CVOE_D,88,1,3,104,U 25,Letter,Y,FALSE,CV,p,1385,1821286,,,,,,,,,
CVOE_D,88,1,3,105,O 32,Letter,N,TRUE,CV,p,877,1822678,,,,,,,,,
CVOE_D,88,1,3,106,E 80,Letter,N,TRUE,CV,p,3269,1826470,,,,,,,,,
CVOE_D,88,1,3,107,O 84,Number,Y,TRUE,OE,p,1821,1828806,,,,,,,,,
CVOE_D,88,1,3,108,A 78,Number,N,TRUE,OE,p,808,1830126,,,,,,,,,
CVOE_D,88,1,3,109,S 05,Number,N,TRUE,OE,q,867,1831502,,,,,,,,,
CVOE_D,88,1,3,110,U 35,Letter,Y,FALSE,CV,p,1732,1833750,,,,,,,,,
CVOE_D,88,1,3,111,H 14,Letter,N,FALSE,CV,q,1162,1835430,,,,,,,,,
CVOE_D,88,1,3,112,U 15,Number,Y,FALSE,OE,p,814,1836766,,,,,,,,,
CVOE_D,88,1,3,113,E 36,Letter,Y,TRUE,CV,p,2945,1840230,,,,,,,,,
CVOE_D,88,1,3,114,P 70,Letter,N,FALSE,CV,q,1158,1841910,,,,,,,,,
CVOE_D,88,1,3,115,O 44,Number,Y,TRUE,OE,q,1323,1843742,,,,,,,,,
CVOE_D,88,1,3,116,S 41,Letter,Y,TRUE,CV,q,2713,1846966,,,,,,,,,
CVOE_D,88,1,3,117,D 83,Letter,N,TRUE,CV,q,3848,1851334,,,,,,,,,
CVOE_D,88,1,3,118,J 39,Letter,N,TRUE,CV,q,961,1852814,,,,,,,,,
CVOE_D,88,1,3,119,S 22,Number,Y,FALSE,OE,p,2406,1855742,,,,,,,,,
CVOE_D,88,1,3,120,D 89,Letter,Y,TRUE,CV,q,1657,1857910,,,,,,,,,
CVOE_D,88,1,3,121,P 87,Letter,N,TRUE,CV,q,1346,1859766,,,,,,,,,
CVOE_D,88,1,3,122,H 42,Letter,N,FALSE,CV,q,767,1861054,,,,,,,,,
CVOE_D,88,1,3,123,S 49,Letter,N,TRUE,CV,q,1116,1862686,,,,,,,,,
CVOE_D,88,1,3,124,J 20,Number,Y,FALSE,OE,p,1466,1864670,,,,,,,,,
CVOE_D,88,1,3,125,O 19,Letter,Y,FALSE,CV,q,1315,1866502,,,,,,,,,
CVOE_D,88,1,3,126,H 50,Letter,N,FALSE,CV,q,857,1867878,,,,,,,,,
CVOE_D,88,1,3,127,I 68,Number,Y,TRUE,OE,p,1530,1869918,,,,,,,,,
CVOE_D,88,1,3,128,J 72,Number,N,FALSE,OE,p,2304,1872742,,,,,,,,,
CVOE_D,88,1,3,129,O 21,Number,N,FALSE,OE,q,1439,1874694,,,,,,,,,
CVOE_D,88,1,3,130,H 22,Number,N,FALSE,OE,p,929,1876134,,,,,,,,,
CVOE_D,88,1,4,1,A 44,Letter,N,TRUE,CV,p,1967,1894790,,,,,,,,,
CVOE_D,88,1,4,2,D 94,Letter,N,FALSE,CV,q,1628,1896934,,,,,,,,,
CVOE_D,88,1,4,3,E 75,Number,Y,FALSE,OE,q,1398,1898854,,,,,,,,,
CVOE_D,88,1,4,4,H 81,Number,N,TRUE,OE,q,2241,1901614,,,,,,,,,
CVOE_D,88,1,4,5,I 64,Letter,Y,TRUE,CV,p,1931,1904054,,,,,,,,,
CVOE_D,88,1,4,6,J 54,Letter,N,FALSE,CV,q,1457,1906030,,,,,,,,,
CVOE_D,88,1,4,7,O 23,Number,Y,FALSE,OE,q,2682,1909222,,,,,,,,,
CVOE_D,88,1,4,8,P 05,Number,N,TRUE,OE,q,3746,1913486,,,,,,,,,
CVOE_D,88,1,4,9,S 34,Letter,Y,FALSE,CV,q,2271,1916278,,,,,,,,,
CVOE_D,88,1,4,10,U 88,Letter,N,TRUE,CV,p,1103,1917894,,,,,,,,,
CVOE_D,88,1,4,11,A 70,Number,Y,TRUE,OE,p,1678,1920086,,,,,,,,,
CVOE_D,88,1,4,12,D 12,Number,N,FALSE,OE,q,2014,1922622,,,,,,,,,
CVOE_D,88,1,4,13,E 79,Letter,Y,FALSE,CV,p,3353,1926494,,,,,,,,,
CVOE_D,88,1,4,14,H 72,Letter,N,FALSE,CV,q,1382,1928390,,,,,,,,,
CVOE_D,88,1,4,15,I 41,Number,Y,FALSE,OE,q,1994,1930902,,,,,,,,,
CVOE_D,88,1,4,16,J 63,Number,N,TRUE,OE,q,1373,1932798,,,,,,,,,
CVOE_D,88,1,4,17,O 03,Letter,Y,FALSE,CV,p,1417,1934726,,,,,,,,,
CVOE_D,88,1,4,18,P 75,Letter,N,TRUE,CV,q,1036,1936278,,,,,,,,,
CVOE_D,88,1,4,19,S 61,Number,Y,TRUE,OE,q,1190,1937982,,,,,,,,,
