ExperimentName,Subject,Group,Block,Trial,STIM,TASK,Switch,Congruent,CVOE,Response,RT,block_type
CVOE updated,89,1,1,11,A 71,,,FALSE,CV,p,2002,cv
CVOE updated,89,1,1,12,I 66,,,TRUE,CV,p,646,cv
CVOE updated,89,1,1,13,S 30,,,FALSE,CV,q,543,cv
CVOE updated,89,1,1,14,D 20,,,FALSE,CV,q,620,cv
CVOE updated,89,1,1,15,I 31,,,FALSE,CV,p,551,cv
CVOE updated,89,1,1,16,P 16,,,FALSE,CV,q,452,cv
CVOE updated,89,1,1,17,A 49,,,FALSE,CV,p,573,cv
CVOE updated,89,1,1,18,O 64,,,TRUE,CV,p,498,cv
CVOE updated,89,1,1,19,D 02,,,FALSE,CV,q,529,cv
CVOE updated,89,1,1,20,P 81,,,TRUE,CV,q,463,cv
CVOE updated,89,1,1,21,J 58,,,FALSE,CV,q,600,cv
CVOE updated,89,1,1,22,A 22,,,TRUE,CV,p,491,cv
CVOE updated,89,1,1,23,J 72,,,FALSE,CV,q,467,cv
CVOE updated,89,1,1,24,P 91,,,TRUE,CV,p,339,cv
CVOE updated,89,1,1,25,E 19,,,FALSE,CV,p,681,cv
CVOE updated,89,1,1,26,I 30,,,TRUE,CV,p,561,cv
CVOE updated,89,1,1,27,D 91,,,TRUE,CV,q,526,cv
CVOE updated,89,1,1,28,O 48,,,TRUE,CV,p,540,cv
CVOE updated,89,1,1,29,A 89,,,FALSE,CV,p,778,cv
CVOE updated,89,1,1,30,U 11,,,FALSE,CV,p,558,cv
CVOE updated,89,1,1,31,I 76,,,TRUE,CV,p,515,cv
CVOE updated,89,1,1,32,U 89,,,FALSE,CV,p,657,cv
CVOE updated,89,1,1,33,D 63,,,TRUE,CV,q,539,cv
CVOE updated,89,1,1,34,H 70,,,FALSE,CV,q,553,cv
CVOE updated,89,1,1,35,D 48,,,FALSE,CV,q,502,cv
CVOE updated,89,1,1,36,P 56,,,FALSE,CV,q,581,cv
CVOE updated,89,1,1,37,O 77,,,FALSE,CV,p,537,cv
CVOE updated,89,1,1,38,P 42,,,FALSE,CV,q,503,cv
CVOE updated,89,1,1,39,H 22,,,FALSE,CV,q,510,cv
CVOE updated,89,1,1,40,E 42,,,TRUE,CV,p,669,cv
CVOE updated,89,1,1,41,J 28,,,FALSE,CV,q,493,cv
CVOE updated,89,1,1,42,E 95,,,FALSE,CV,p,541,cv
CVOE updated,89,1,1,43,S 63,,,TRUE,CV,q,555,cv
CVOE updated,89,1,1,44,H 50,,,FALSE,CV,q,584,cv
CVOE updated,89,1,1,45,S 33,,,TRUE,CV,q,556,cv
CVOE updated,89,1,1,46,P 57,,,TRUE,CV,q,593,cv
CVOE updated,89,1,1,47,E 23,,,FALSE,CV,p,484,cv
CVOE updated,89,1,1,48,S 61,,,TRUE,CV,q,500,cv
CVOE updated,89,1,1,49,U 67,,,FALSE,CV,p,555,cv
CVOE updated,89,1,1,50,H 32,,,FALSE,CV,q,473,cv
CVOE updated,89,1,1,51,U 50,,,TRUE,CV,p,529,cv
CVOE updated,89,1,1,52,O 49,,,FALSE,CV,p,535,cv
CVOE updated,89,1,1,53,U 32,,,TRUE,CV,p,477,cv
CVOE updated,89,1,1,54,J 78,,,FALSE,CV,q,453,cv
CVOE updated,89,1,1,55,S 54,,,FALSE,CV,q,470,cv
CVOE updated,89,1,1,56,J 27,,,TRUE,CV,q,511,cv
CVOE updated,89,1,1,57,S 06,,,FALSE,CV,q,414,cv
CVOE updated,89,1,1,58,D 67,,,TRUE,CV,q,912,cv
CVOE updated,89,1,1,59,A 79,,,FALSE,CV,p,711,cv
CVOE updated,89,1,1,60,S 52,,,FALSE,CV,q,741,cv
CVOE updated,89,1,1,61,U 16,,,TRUE,CV,p,539,cv
CVOE updated,89,1,1,62,O 82,,,TRUE,CV,p,1041,cv
CVOE updated,89,1,1,63,H 87,,,TRUE,CV,q,555,cv
CVOE updated,89,1,1,64,I 32,,,TRUE,CV,p,600,cv
CVOE updated,89,1,1,65,U 37,,,FALSE,CV,p,540,cv
CVOE updated,89,1,1,66,I 42,,,TRUE,CV,p,489,cv
CVOE updated,89,1,1,67,D 65,,,TRUE,CV,q,553,cv
CVOE updated,89,1,1,68,U 77,,,FALSE,CV,p,567,cv
CVOE updated,89,1,1,69,E 12,,,TRUE,CV,p,579,cv
CVOE updated,89,1,1,70,I 60,,,TRUE,CV,p,391,cv
CVOE updated,89,1,1,71,J 36,,,FALSE,CV,q,507,cv
CVOE updated,89,1,1,72,H 75,,,TRUE,CV,q,810,cv
CVOE updated,89,1,1,73,I 50,,,TRUE,CV,p,469,cv
CVOE updated,89,1,1,74,E 99,,,FALSE,CV,p,1086,cv
CVOE updated,89,1,1,75,A 86,,,TRUE,CV,p,605,cv
CVOE updated,89,1,1,76,U 48,,,TRUE,CV,p,585,cv
CVOE updated,89,1,1,77,E 01,,,FALSE,CV,p,605,cv
CVOE updated,89,1,1,78,A 78,,,TRUE,CV,p,536,cv
CVOE updated,89,1,1,79,P 60,,,FALSE,CV,q,542,cv
CVOE updated,89,1,1,80,E 43,,,FALSE,CV,p,684,cv
CVOE updated,89,1,1,81,D 69,,,TRUE,CV,q,508,cv
CVOE updated,89,1,1,82,H 11,,,TRUE,CV,q,627,cv
CVOE updated,89,1,1,83,P 43,,,TRUE,CV,q,573,cv
CVOE updated,89,1,1,84,O 67,,,FALSE,CV,p,505,cv
CVOE updated,89,1,1,85,S 91,,,FALSE,CV,q,601,cv
CVOE updated,89,1,1,86,J 68,,,TRUE,CV,q,628,cv
CVOE updated,89,1,1,87,S 47,,,FALSE,CV,q,486,cv
CVOE updated,89,1,1,88,I 81,,,TRUE,CV,p,1118,cv
CVOE updated,89,1,1,89,J 39,,,FALSE,CV,q,980,cv
CVOE updated,89,1,1,90,A 11,,,TRUE,CV,p,584,cv
CVOE updated,89,1,1,91,O 76,,,FALSE,CV,p,604,cv
CVOE updated,89,1,1,92,A 62,,,FALSE,CV,p,479,cv
CVOE updated,89,1,1,93,O 27,,,TRUE,CV,p,615,cv
CVOE updated,89,1,1,94,E 66,,,FALSE,CV,p,650,cv
CVOE updated,89,1,1,95,J 62,,,TRUE,CV,q,611,cv
CVOE updated,89,1,1,96,H 72,,,TRUE,CV,q,582,cv
CVOE updated,89,1,1,97,E 49,,,TRUE,CV,p,626,cv
CVOE updated,89,1,1,98,D 52,,,TRUE,CV,q,3668,cv
CVOE updated,89,1,1,99,H 62,,,TRUE,CV,q,532,cv
CVOE updated,89,1,1,100,I 11,,,TRUE,CV,p,514,cv
CVOE updated,89,1,1,101,A 98,,,FALSE,CV,p,673,cv
CVOE updated,89,1,1,102,H 29,,,FALSE,CV,q,585,cv
CVOE updated,89,1,1,103,E 83,,,TRUE,CV,p,573,cv
CVOE updated,89,1,1,104,D 43,,,FALSE,CV,q,530,cv
CVOE updated,89,1,1,105,P 45,,,TRUE,CV,q,504,cv
CVOE updated,89,1,1,106,J 17,,,TRUE,CV,q,599,cv
CVOE updated,89,1,2,11,A 24,,,TRUE,OE,p,1671,oe
CVOE updated,89,1,2,12,O 83,,,FALSE,OE,q,751,oe
CVOE updated,89,1,2,13,H 55,,,TRUE,OE,q,572,oe
CVOE updated,89,1,2,14,P 10,,,FALSE,OE,p,649,oe
CVOE updated,89,1,2,15,D 30,,,FALSE,OE,p,650,oe
CVOE updated,89,1,2,16,U 62,,,TRUE,OE,p,491,oe
CVOE updated,89,1,2,17,P 95,,,TRUE,OE,q,547,oe
CVOE updated,89,1,2,18,U 06,,,TRUE,OE,p,537,oe
CVOE updated,89,1,2,19,E 75,,,FALSE,OE,q,471,oe
CVOE updated,89,1,2,20,I 67,,,FALSE,OE,q,719,oe
CVOE updated,89,1,2,21,S 13,,,TRUE,OE,q,702,oe
CVOE updated,89,1,2,22,P 78,,,FALSE,OE,p,621,oe
CVOE updated,89,1,2,23,I 15,,,FALSE,OE,q,560,oe
CVOE updated,89,1,2,24,D 27,,,TRUE,OE,q,524,oe
CVOE updated,89,1,2,25,O 94,,,TRUE,OE,p,627,oe
CVOE updated,89,1,2,26,A 65,,,FALSE,OE,q,485,oe
CVOE updated,89,1,2,27,I 42,,,TRUE,OE,p,589,oe
CVOE updated,89,1,2,28,E 25,,,FALSE,OE,q,497,oe
CVOE updated,89,1,2,29,H 49,,,TRUE,OE,q,624,oe
CVOE updated,89,1,2,30,S 18,,,FALSE,OE,p,602,oe
CVOE updated,89,1,2,31,H 51,,,TRUE,OE,q,614,oe
CVOE updated,89,1,2,32,U 14,,,TRUE,OE,p,464,oe
CVOE updated,89,1,2,33,E 02,,,TRUE,OE,p,545,oe
CVOE updated,89,1,2,34,J 26,,,FALSE,OE,p,558,oe
CVOE updated,89,1,2,35,D 24,,,FALSE,OE,p,611,oe
CVOE updated,89,1,2,36,O 50,,,TRUE,OE,p,566,oe
CVOE updated,89,1,2,37,U 16,,,TRUE,OE,p,435,oe
CVOE updated,89,1,2,38,O 15,,,FALSE,OE,q,468,oe
CVOE updated,89,1,2,39,D 32,,,FALSE,OE,p,461,oe
CVOE updated,89,1,2,40,S 67,,,TRUE,OE,q,486,oe
CVOE updated,89,1,2,41,J 74,,,FALSE,OE,p,710,oe
CVOE updated,89,1,2,42,D 92,,,FALSE,OE,p,772,oe
CVOE updated,89,1,2,43,A 65,,,FALSE,OE,q,481,oe
CVOE updated,89,1,2,44,I 87,,,FALSE,OE,q,681,oe
CVOE updated,89,1,2,45,H 61,,,TRUE,OE,q,593,oe
CVOE updated,89,1,2,46,E 59,,,FALSE,OE,q,444,oe
CVOE updated,89,1,2,47,I 33,,,FALSE,OE,q,565,oe
CVOE updated,89,1,2,48,O 90,,,TRUE,OE,p,634,oe
CVOE updated,89,1,2,49,U 51,,,FALSE,OE,q,636,oe
CVOE updated,89,1,2,50,A 10,,,TRUE,OE,p,598,oe
CVOE updated,89,1,2,51,E 50,,,TRUE,OE,p,385,oe
CVOE updated,89,1,2,52,D 92,,,FALSE,OE,p,517,oe
CVOE updated,89,1,2,53,E 60,,,TRUE,OE,p,435,oe
CVOE updated,89,1,2,54,A 95,,,FALSE,OE,q,549,oe
CVOE updated,89,1,2,55,E 64,,,TRUE,OE,p,523,oe
CVOE updated,89,1,2,56,P 20,,,FALSE,OE,p,481,oe
CVOE updated,89,1,2,57,S 06,,,FALSE,OE,p,545,oe
CVOE updated,89,1,2,58,P 64,,,FALSE,OE,p,582,oe
CVOE updated,89,1,2,59,U 70,,,TRUE,OE,p,554,oe
CVOE updated,89,1,2,60,S 16,,,FALSE,OE,p,512,oe
CVOE updated,89,1,2,61,E 35,,,FALSE,OE,q,590,oe
CVOE updated,89,1,2,62,I 93,,,FALSE,OE,q,874,oe
CVOE updated,89,1,2,63,D 63,,,TRUE,OE,q,483,oe
CVOE updated,89,1,2,64,U 89,,,FALSE,OE,q,643,oe
CVOE updated,89,1,2,65,E 91,,,FALSE,OE,q,516,oe
CVOE updated,89,1,2,66,A 12,,,TRUE,OE,p,538,oe
CVOE updated,89,1,2,67,P 56,,,FALSE,OE,p,608,oe
CVOE updated,89,1,2,68,S 65,,,TRUE,OE,q,564,oe
CVOE updated,89,1,2,69,P 07,,,TRUE,OE,q,688,oe
CVOE updated,89,1,2,70,I 77,,,FALSE,OE,q,560,oe
CVOE updated,89,1,2,71,J 19,,,TRUE,OE,q,733,oe
CVOE updated,89,1,2,72,O 59,,,FALSE,OE,q,491,oe
CVOE updated,89,1,2,73,J 15,,,TRUE,OE,q,891,oe
CVOE updated,89,1,2,74,I 89,,,FALSE,OE,q,546,oe
CVOE updated,89,1,2,75,O 97,,,FALSE,OE,q,1128,oe
CVOE updated,89,1,2,76,A 92,,,TRUE,OE,p,542,oe
CVOE updated,89,1,2,77,J 90,,,FALSE,OE,p,620,oe
CVOE updated,89,1,2,78,H 65,,,TRUE,OE,q,566,oe
CVOE updated,89,1,2,79,H 17,,,TRUE,OE,q,603,oe
CVOE updated,89,1,2,80,S 26,,,FALSE,OE,q,830,oe
CVOE updated,89,1,2,81,D 56,,,FALSE,OE,p,600,oe
CVOE updated,89,1,2,82,I 91,,,FALSE,OE,q,547,oe
CVOE updated,89,1,2,83,J 11,,,TRUE,OE,q,512,oe
CVOE updated,89,1,2,84,O 28,,,TRUE,OE,p,503,oe
CVOE updated,89,1,2,85,H 29,,,TRUE,OE,q,646,oe
CVOE updated,89,1,2,86,J 25,,,TRUE,OE,q,527,oe
CVOE updated,89,1,2,87,A 73,,,FALSE,OE,q,1205,oe
CVOE updated,89,1,2,88,J 63,,,TRUE,OE,q,473,oe
CVOE updated,89,1,2,89,U 84,,,TRUE,OE,p,425,oe
CVOE updated,89,1,2,90,A 58,,,TRUE,OE,p,485,oe
CVOE updated,89,1,2,91,S 43,,,TRUE,OE,q,516,oe
CVOE updated,89,1,2,92,H 54,,,FALSE,OE,q,578,oe
CVOE updated,89,1,2,93,D 4,,,FALSE,OE,p,518,oe
CVOE updated,89,1,2,94,J 75,,,TRUE,OE,q,621,oe
CVOE updated,89,1,2,95,D 19,,,TRUE,OE,p,503,oe
CVOE updated,89,1,2,96,J 38,,,FALSE,OE,p,1559,oe
CVOE updated,89,1,2,97,I 56,,,TRUE,OE,p,2388,oe
CVOE updated,89,1,2,98,P 87,,,TRUE,OE,q,1016,oe
CVOE updated,89,1,2,99,O 80,,,TRUE,OE,p,1386,oe
CVOE updated,89,1,2,100,U 60,,,TRUE,OE,p,590,oe
CVOE updated,89,1,2,101,P 48,,,FALSE,OE,p,1114,oe
CVOE updated,89,1,2,102,H 64,,,FALSE,OE,p,937,oe
CVOE updated,89,1,2,103,A 13,,,FALSE,OE,q,935,oe
CVOE updated,89,1,2,104,H 68,,,FALSE,OE,p,900,oe
CVOE updated,89,1,2,105,E 16,,,TRUE,OE,p,1444,oe
CVOE updated,89,1,2,106,S 71,,,TRUE,OE,q,965,oe
CVOE updated,89,1,3,11,A 44,Letter,N,TRUE,CV,p,4508,alt
CVOE updated,89,1,3,12,D 94,Letter,N,FALSE,CV,q,1299,alt
CVOE updated,89,1,3,13,E 75,Number,Y,FALSE,OE,q,1579,alt
CVOE updated,89,1,3,14,H 81,Number,N,TRUE,OE,q,2054,alt
CVOE updated,89,1,3,15,I 64,Letter,Y,TRUE,CV,p,1304,alt
CVOE updated,89,1,3,16,J 54,Letter,N,FALSE,CV,q,943,alt
CVOE updated,89,1,3,17,O 23,Number,Y,FALSE,OE,q,2013,alt
CVOE updated,89,1,3,18,P 05,Number,N,TRUE,OE,q,951,alt
CVOE updated,89,1,3,19,S 34,Letter,Y,FALSE,CV,q,852,alt
CVOE updated,89,1,3,20,U 88,Letter,N,TRUE,CV,p,886,alt
CVOE updated,89,1,3,21,A 70,Number,Y,TRUE,OE,p,1206,alt
CVOE updated,89,1,3,22,D 12,Number,N,FALSE,OE,p,1289,alt
CVOE updated,89,1,3,23,E 79,Letter,Y,FALSE,CV,p,1017,alt
CVOE updated,89,1,3,24,H 72,Letter,N,FALSE,CV,q,883,alt
CVOE updated,89,1,3,25,I 41,Number,Y,FALSE,OE,q,1467,alt
CVOE updated,89,1,3,26,J 63,Number,N,TRUE,OE,q,2908,alt
CVOE updated,89,1,3,27,O 03,Letter,Y,FALSE,CV,p,1771,alt
CVOE updated,89,1,3,28,P 75,Letter,N,TRUE,CV,q,1607,alt
CVOE updated,89,1,3,29,S 61,Number,Y,TRUE,OE,q,4210,alt
CVOE updated,89,1,3,30,U 28,Number,N,TRUE,OE,p,1229,alt
CVOE updated,89,1,3,31,A 21,Letter,Y,FALSE,CV,p,1119,alt
CVOE updated,89,1,3,32,D 18,Letter,N,FALSE,CV,q,813,alt
CVOE updated,89,1,3,33,E 35,Number,Y,FALSE,OE,q,1440,alt
CVOE updated,89,1,3,34,H 62,Number,N,FALSE,OE,p,2442,alt
CVOE updated,89,1,3,35,I 82,Letter,Y,TRUE,CV,p,1027,alt
CVOE updated,89,1,3,36,J 78,Letter,N,FALSE,CV,q,773,alt
CVOE updated,89,1,3,37,O 12,Number,Y,TRUE,OE,p,1386,alt
CVOE updated,89,1,3,38,P 13,Number,N,TRUE,OE,q,798,alt
CVOE updated,89,1,3,39,S 07,Letter,Y,TRUE,CV,q,1705,alt
CVOE updated,89,1,3,40,U 36,Letter,N,TRUE,CV,q,896,alt
CVOE updated,89,1,3,41,A 96,Number,Y,TRUE,OE,p,2639,alt
CVOE updated,89,1,3,42,D 04,Number,N,FALSE,OE,p,929,alt
CVOE updated,89,1,3,43,E 60,Letter,Y,TRUE,CV,p,887,alt
CVOE updated,89,1,3,44,H 83,Letter,N,TRUE,CV,q,767,alt
CVOE updated,89,1,3,45,I 64,Number,Y,TRUE,OE,p,1588,alt
CVOE updated,89,1,3,46,J 76,Number,N,FALSE,OE,p,2527,alt
CVOE updated,89,1,3,47,O 78,Letter,Y,TRUE,CV,p,1261,alt
CVOE updated,89,1,3,48,P 09,Letter,N,TRUE,CV,q,822,alt
CVOE updated,89,1,3,49,S 72,Number,Y,FALSE,OE,p,1480,alt
CVOE updated,89,1,3,50,U 47,Number,N,FALSE,OE,q,1960,alt
CVOE updated,89,1,3,51,A 31,Letter,Y,FALSE,CV,p,1381,alt
CVOE updated,89,1,3,52,D 96,Letter,N,FALSE,CV,q,1017,alt
CVOE updated,89,1,3,53,E 40,Number,Y,TRUE,OE,p,1331,alt
CVOE updated,89,1,3,54,H 79,Number,N,TRUE,OE,q,953,alt
CVOE updated,89,1,3,55,I 15,Letter,Y,FALSE,CV,p,1206,alt
CVOE updated,89,1,3,56,J 07,Letter,N,TRUE,CV,q,737,alt
CVOE updated,89,1,3,57,O 61,Number,Y,FALSE,OE,q,1199,alt
CVOE updated,89,1,3,58,P 58,Number,N,FALSE,OE,p,2291,alt
CVOE updated,89,1,3,59,S 37,Letter,Y,TRUE,CV,q,1242,alt
CVOE updated,89,1,3,60,U 61,Letter,N,FALSE,CV,p,940,alt
CVOE updated,89,1,3,61,A 17,Number,Y,FALSE,OE,q,1498,alt
CVOE updated,89,1,3,62,D 85,Number,N,TRUE,OE,q,5385,alt
CVOE updated,89,1,3,63,E 20,Letter,Y,TRUE,CV,p,725,alt
CVOE updated,89,1,3,64,H 86,Letter,N,FALSE,CV,q,3764,alt
CVOE updated,89,1,3,65,I 21,Number,Y,FALSE,OE,q,1344,alt
CVOE updated,89,1,3,66,J 29,Number,N,TRUE,OE,q,869,alt
CVOE updated,89,1,3,67,O 13,Letter,Y,FALSE,CV,p,694,alt
CVOE updated,89,1,3,68,P 82,Letter,N,FALSE,CV,q,1397,alt
CVOE updated,89,1,3,69,S 72,Number,Y,FALSE,OE,p,2360,alt
CVOE updated,89,1,3,70,U 84,Number,N,TRUE,OE,p,837,alt
CVOE updated,89,1,3,71,A 49,Letter,Y,FALSE,CV,p,1047,alt
CVOE updated,89,1,3,72,D 91,Letter,N,TRUE,CV,q,1624,alt
CVOE updated,89,1,3,73,E 99,Number,Y,FALSE,OE,q,1258,alt
CVOE updated,89,1,3,74,H 16,Number,N,FALSE,OE,p,1299,alt
CVOE updated,89,1,3,75,I 45,Letter,Y,FALSE,CV,p,1403,alt
CVOE updated,89,1,3,76,J 70,Letter,N,FALSE,CV,q,1838,alt
CVOE updated,89,1,3,77,O 22,Number,Y,TRUE,OE,p,952,alt
CVOE updated,89,1,3,78,P 41,Number,N,TRUE,OE,q,877,alt
CVOE updated,89,1,3,79,S 93,Letter,Y,TRUE,CV,q,853,alt
CVOE updated,89,1,3,80,U 70,Letter,N,TRUE,CV,p,1046,alt
CVOE updated,89,1,3,81,A 42,Number,Y,TRUE,OE,p,743,alt
CVOE updated,89,1,3,82,D 85,Number,N,TRUE,OE,q,765,alt
CVOE updated,89,1,3,83,E 68,Letter,Y,TRUE,CV,p,929,alt
CVOE updated,89,1,3,84,H 17,Letter,N,TRUE,CV,q,855,alt
CVOE updated,89,1,3,85,I 70,Number,Y,TRUE,OE,p,1048,alt
CVOE updated,89,1,3,86,J 88,Number,N,FALSE,OE,p,1114,alt
CVOE updated,89,1,3,87,O 32,Letter,Y,TRUE,CV,p,1304,alt
CVOE updated,89,1,3,88,P 95,Letter,N,TRUE,CV,q,991,alt
CVOE updated,89,1,3,89,S 98,Number,Y,FALSE,OE,p,1059,alt
CVOE updated,89,1,3,90,U 37,Number,N,FALSE,OE,q,1060,alt
CVOE updated,89,1,3,91,A 56,Letter,Y,TRUE,CV,p,844,alt
CVOE updated,89,1,3,92,D 57,Letter,N,TRUE,CV,q,686,alt
CVOE updated,89,1,3,93,E 93,Number,Y,FALSE,OE,p,693,alt
CVOE updated,89,1,3,94,H 27,Number,N,TRUE,OE,q,5421,alt
CVOE updated,89,1,3,95,I 35,Letter,Y,FALSE,CV,p,943,alt
CVOE updated,89,1,3,96,J 03,Letter,N,TRUE,CV,q,1220,alt
CVOE updated,89,1,3,97,O 28,Number,Y,TRUE,OE,p,1063,alt
CVOE updated,89,1,3,98,P 59,Number,N,TRUE,OE,q,1199,alt
CVOE updated,89,1,3,99,S 77,Letter,Y,TRUE,CV,q,1843,alt
CVOE updated,89,1,3,100,U 05,Letter,N,FALSE,CV,p,1452,alt
CVOE updated,89,1,3,101,A 56,Number,Y,TRUE,OE,p,1694,alt
CVOE updated,89,1,3,102,D 01,Number,N,TRUE,OE,q,869,alt
CVOE updated,89,1,3,103,E 02,Letter,Y,TRUE,CV,p,1141,alt
CVOE updated,89,1,3,104,H 68,Letter,N,FALSE,CV,q,2923,alt
CVOE updated,89,1,3,105,I 05,Number,Y,FALSE,OE,q,1226,alt
CVOE updated,89,1,3,106,J 55,Number,N,TRUE,OE,q,780,alt
CVOE updated,89,1,3,107,O 73,Letter,Y,FALSE,CV,q,904,alt
CVOE updated,89,1,3,108,P 41,Letter,N,TRUE,CV,q,2903,alt
CVOE updated,89,1,3,109,S 92,Number,Y,FALSE,OE,p,1302,alt
CVOE updated,89,1,3,110,U 34,Number,N,TRUE,OE,p,1158,alt
CVOE updated,89,1,3,111,A 09,Letter,Y,FALSE,CV,q,1115,alt
CVOE updated,89,1,3,112,D 92,Letter,N,FALSE,CV,q,3321,alt
CVOE updated,89,1,3,113,E 48,Number,Y,TRUE,OE,p,1304,alt
CVOE updated,89,1,3,114,H 76,Number,N,FALSE,OE,p,855,alt
CVOE updated,89,1,3,115,I 44,Letter,Y,TRUE,CV,p,1768,alt
CVOE updated,89,1,3,116,J 67,Letter,N,TRUE,CV,q,741,alt
CVOE updated,89,1,3,117,O 48,Number,Y,TRUE,OE,p,955,alt
CVOE updated,89,1,3,118,P 22,Number,N,FALSE,OE,p,832,alt
CVOE updated,89,1,3,119,S 86,Letter,Y,FALSE,CV,q,1370,alt
CVOE updated,89,1,3,120,U 35,Letter,N,FALSE,CV,p,3094,alt
CVOE updated,89,1,3,121,A 91,Number,Y,FALSE,OE,q,1397,alt
CVOE updated,89,1,3,122,D 78,Number,N,FALSE,OE,p,2521,alt
CVOE updated,89,1,3,123,E 91,Letter,Y,FALSE,CV,p,1959,alt
CVOE updated,89,1,3,124,H 54,Letter,N,FALSE,CV,q,1660,alt
CVOE updated,89,1,3,125,I 65,Number,Y,FALSE,OE,q,1781,alt
CVOE updated,89,1,3,126,J 52,Number,N,FALSE,OE,q,1953,alt
CVOE updated,89,1,3,127,O 19,Letter,Y,FALSE,CV,p,2606,alt
CVOE updated,89,1,3,128,P 48,Letter,N,FALSE,CV,q,1313,alt
CVOE updated,89,1,3,129,S 45,Number,Y,TRUE,OE,q,1831,alt
CVOE updated,89,1,3,130,U 26,Number,N,TRUE,OE,p,1169,alt
CVOE updated,89,1,4,1,U 38,Number,N,TRUE,OE,p,3006,shuf
CVOE updated,89,1,4,2,P 73,Number,N,TRUE,OE,q,1145,shuf
CVOE updated,89,1,4,3,U 95,Letter,Y,FALSE,CV,p,1126,shuf
CVOE updated,89,1,4,4,J 61,Number,Y,TRUE,OE,q,948,shuf
CVOE updated,89,1,4,5,D 51,Number,N,TRUE,OE,q,1065,shuf
CVOE updated,89,1,4,6,S 28,Number,N,FALSE,OE,p,1314,shuf
CVOE updated,89,1,4,7,A 56,Letter,Y,TRUE,CV,p,841,shuf
CVOE updated,89,1,4,8,H 78,Letter,N,FALSE,CV,q,802,shuf
CVOE updated,89,1,4,9,P 92,Letter,N,FALSE,CV,q,878,shuf
CVOE updated,89,1,4,10,E 05,Number,Y,FALSE,OE,p,686,shuf
CVOE updated,89,1,4,11,P 57,Letter,Y,TRUE,CV,q,2446,shuf
CVOE updated,89,1,4,12,D 88,Number,Y,FALSE,OE,p,1335,shuf
CVOE updated,89,1,4,13,O 89,Letter,Y,FALSE,CV,q,1085,shuf
CVOE updated,89,1,4,14,U 43,Number,Y,FALSE,OE,q,2628,shuf
CVOE updated,89,1,4,15,H 10,Number,N,FALSE,OE,p,1158,shuf
CVOE updated,89,1,4,16,S 07,Letter,Y,TRUE,CV,q,1283,shuf
CVOE updated,89,1,4,17,J 10,Letter,N,FALSE,CV,q,1091,shuf
CVOE updated,89,1,4,18,H 54,Number,Y,FALSE,OE,p,899,shuf
CVOE updated,89,1,4,19,E 99,Number,N,FALSE,OE,q,2130,shuf
CVOE updated,89,1,4,20,J 36,Letter,Y,FALSE,CV,q,1312,shuf
CVOE updated,89,1,4,21,I 94,Letter,N,TRUE,CV,p,2119,shuf
CVOE updated,89,1,4,22,A 82,Letter,N,TRUE,CV,p,781,shuf
CVOE updated,89,1,4,23,H 79,Number,Y,TRUE,OE,q,1497,shuf
CVOE updated,89,1,4,24,J 60,Number,N,FALSE,OE,p,1472,shuf
CVOE updated,89,1,4,25,S 28,Letter,Y,FALSE,CV,q,2841,shuf
CVOE updated,89,1,4,26,P 11,Number,Y,TRUE,OE,q,2699,shuf
CVOE updated,89,1,4,27,D 39,Number,N,TRUE,OE,q,1290,shuf
CVOE updated,89,1,4,28,E 90,Number,N,TRUE,OE,p,842,shuf
CVOE updated,89,1,4,29,I 38,Number,N,TRUE,OE,p,907,shuf
CVOE updated,89,1,4,30,S 35,Letter,Y,TRUE,CV,q,1107,shuf
CVOE updated,89,1,4,31,D 41,Number,Y,TRUE,OE,q,1250,shuf
CVOE updated,89,1,4,32,E 06,Number,N,TRUE,OE,p,819,shuf
CVOE updated,89,1,4,33,A 27,Number,N,FALSE,OE,q,1006,shuf
CVOE updated,89,1,4,34,U 95,Letter,Y,FALSE,CV,p,1257,shuf
CVOE updated,89,1,4,35,A 53,Letter,N,FALSE,CV,p,882,shuf
CVOE updated,89,1,4,36,E 43,Letter,N,FALSE,CV,p,914,shuf
CVOE updated,89,1,4,37,P 05,Number,Y,TRUE,OE,q,1089,shuf
CVOE updated,89,1,4,38,O 19,Letter,Y,FALSE,CV,p,1705,shuf
CVOE updated,89,1,4,39,I 96,Number,Y,TRUE,OE,p,1416,shuf
CVOE updated,89,1,4,40,A 88,Number,N,TRUE,OE,p,1266,shuf
CVOE updated,89,1,4,41,I 67,Number,N,FALSE,OE,q,787,shuf
CVOE updated,89,1,4,42,D 40,Number,N,FALSE,OE,p,1471,shuf
CVOE updated,89,1,4,43,P 79,Letter,Y,TRUE,CV,q,975,shuf
CVOE updated,89,1,4,44,U 24,Number,Y,TRUE,OE,p,1396,shuf
CVOE updated,89,1,4,45,P 74,Number,N,FALSE,OE,p,951,shuf
CVOE updated,89,1,4,46,E 70,Number,N,TRUE,OE,p,836,shuf
CVOE updated,89,1,4,47,S 27,Number,N,TRUE,OE,q,1070,shuf
CVOE updated,89,1,4,48,E 54,Letter,Y,TRUE,CV,p,1407,shuf
CVOE updated,89,1,4,49,A 53,Letter,N,FALSE,CV,p,730,shuf
CVOE updated,89,1,4,50,P 34,Letter,N,FALSE,CV,q,1008,shuf
CVOE updated,89,1,4,51,D 74,Number,Y,FALSE,OE,p,899,shuf
CVOE updated,89,1,4,52,A 03,Letter,Y,FALSE,CV,p,1570,shuf
CVOE updated,89,1,4,53,E 24,Number,Y,TRUE,OE,p,1295,shuf
CVOE updated,89,1,4,54,I 58,Letter,Y,TRUE,CV,p,2110,shuf
CVOE updated,89,1,4,55,D 77,Number,Y,TRUE,OE,q,1061,shuf
CVOE updated,89,1,4,56,S 75,Number,N,TRUE,OE,q,2493,shuf
CVOE updated,89,1,4,57,I 20,Letter,Y,TRUE,CV,p,1036,shuf
CVOE updated,89,1,4,58,J 52,Letter,N,FALSE,CV,q,1158,shuf
CVOE updated,89,1,4,59,A 38,Number,Y,TRUE,OE,p,1755,shuf
CVOE updated,89,1,4,60,I 60,Letter,Y,TRUE,CV,p,1360,shuf
CVOE updated,89,1,4,61,S 51,Number,Y,TRUE,OE,q,1357,shuf
CVOE updated,89,1,4,62,D 63,Letter,Y,TRUE,CV,q,1210,shuf
CVOE updated,89,1,4,63,U 27,Letter,N,FALSE,CV,p,901,shuf
CVOE updated,89,1,4,64,J 77,Letter,N,TRUE,CV,q,740,shuf
CVOE updated,89,1,4,65,O 15,Number,Y,FALSE,OE,q,1682,shuf
CVOE updated,89,1,4,66,J 20,Letter,Y,FALSE,CV,q,2466,shuf
CVOE updated,89,1,4,67,U 97,Number,Y,FALSE,OE,q,1034,shuf
CVOE updated,89,1,4,68,H 03,Number,N,TRUE,OE,q,1556,shuf
CVOE updated,89,1,4,69,O 04,Letter,Y,TRUE,CV,p,1113,shuf
CVOE updated,89,1,4,70,E 10,Letter,N,TRUE,CV,p,1376,shuf
CVOE updated,89,1,4,71,I 52,Letter,N,TRUE,CV,p,1532,shuf
CVOE updated,89,1,4,72,H 81,Number,Y,TRUE,OE,q,1146,shuf
CVOE updated,89,1,4,73,I 41,Number,N,FALSE,OE,q,991,shuf
CVOE updated,89,1,4,74,U 19,Letter,Y,FALSE,CV,p,1483,shuf
CVOE updated,89,1,4,75,O 17,Number,Y,FALSE,OE,q,2075,shuf
CVOE updated,89,1,4,76,A 10,Number,N,TRUE,OE,p,1299,shuf
CVOE updated,89,1,4,77,P 93,Letter,Y,TRUE,CV,q,930,shuf
CVOE updated,89,1,4,78,E 59,Letter,N,FALSE,CV,p,4672,shuf
CVOE updated,89,1,4,79,O 53,Letter,N,FALSE,CV,p,848,shuf
CVOE updated,89,1,4,80,A 96,Letter,N,TRUE,CV,p,858,shuf
CVOE updated,89,1,4,81,H 36,Letter,Y,FALSE,CV,q,939,shuf
CVOE updated,89,1,4,82,A 63,Letter,N,FALSE,CV,p,1225,shuf
CVOE updated,89,1,4,83,I 38,Letter,N,TRUE,CV,q,763,shuf
CVOE updated,89,1,4,84,O 51,Number,Y,FALSE,OE,p,1216,shuf
CVOE updated,89,1,4,85,J 26,Number,N,FALSE,OE,q,731,shuf
CVOE updated,89,1,4,86,S 34,Letter,Y,FALSE,CV,q,864,shuf
CVOE updated,89,1,4,87,U 85,Number,Y,FALSE,OE,q,969,shuf
CVOE updated,89,1,4,88,J 77,Number,N,TRUE,OE,q,902,shuf
CVOE updated,89,1,4,89,I 73,Letter,Y,FALSE,CV,p,1437,shuf
CVOE updated,89,1,4,90,H 46,Number,Y,FALSE,OE,q,863,shuf
CVOE updated,89,1,4,91,D 04,Number,N,FALSE,OE,p,1463,shuf
CVOE updated,89,1,4,92,P 72,Letter,Y,FALSE,CV,q,1440,shuf
CVOE updated,89,1,4,93,D 99,Number,Y,TRUE,OE,q,866,shuf
CVOE updated,89,1,4,94,U 25,Letter,Y,FALSE,CV,p,1034,shuf
CVOE updated,89,1,4,95,O 32,Letter,N,TRUE,CV,p,1900,shuf
CVOE updated,89,1,4,96,E 80,Letter,N,TRUE,CV,p,1371,shuf
CVOE updated,89,1,4,97,O 84,Number,Y,TRUE,OE,p,1552,shuf
CVOE updated,89,1,4,98,A 78,Number,N,TRUE,OE,p,797,shuf
CVOE updated,89,1,4,99,S 05,Number,N,TRUE,OE,q,752,shuf
CVOE updated,89,1,4,100,U 35,Letter,Y,FALSE,CV,p,1046,shuf
CVOE updated,89,1,4,101,H 14,Letter,N,FALSE,CV,q,775,shuf
CVOE updated,89,1,4,102,U 15,Number,Y,FALSE,OE,q,827,shuf
CVOE updated,89,1,4,103,E 36,Letter,Y,TRUE,CV,p,997,shuf
CVOE updated,89,1,4,104,P 70,Letter,N,FALSE,CV,q,1432,shuf
CVOE updated,89,1,4,105,O 44,Number,Y,TRUE,OE,p,1146,shuf
CVOE updated,89,1,4,106,S 41,Letter,Y,TRUE,CV,q,967,shuf
CVOE updated,89,1,4,107,D 83,Letter,N,TRUE,CV,q,1580,shuf
CVOE updated,89,1,4,108,J 39,Letter,N,TRUE,CV,q,872,shuf
CVOE updated,89,1,4,109,S 22,Number,Y,FALSE,OE,q,777,shuf
CVOE updated,89,1,4,110,D 89,Letter,Y,TRUE,CV,q,580,shuf
CVOE updated,89,1,4,111,P 87,Letter,N,TRUE,CV,q,640,shuf
CVOE updated,89,1,4,112,H 42,Letter,N,FALSE,CV,q,538,shuf
CVOE updated,89,1,4,113,S 49,Letter,N,TRUE,CV,q,576,shuf
CVOE updated,89,1,4,114,J 20,Number,Y,FALSE,OE,p,1396,shuf
CVOE updated,89,1,4,115,O 19,Letter,Y,FALSE,CV,p,1375,shuf
CVOE updated,89,1,4,116,H 50,Letter,N,FALSE,CV,q,1123,shuf
CVOE updated,89,1,4,117,I 68,Number,Y,TRUE,OE,p,962,shuf
CVOE updated,89,1,4,118,J 72,Number,N,FALSE,OE,p,830,shuf
CVOE updated,89,1,4,119,O 21,Number,N,FALSE,OE,p,640,shuf
CVOE updated,89,1,4,120,H 22,Number,N,FALSE,OE,p,802,shuf
CVOE_B,90,1,1,11,A 24,,,TRUE,OE,p,1565,oe
CVOE_B,90,1,1,12,O 83,,,FALSE,OE,q,546,oe
CVOE_B,90,1,1,13,H 55,,,TRUE,OE,q,439,oe
CVOE_B,90,1,1,14,P 10,,,FALSE,OE,p,497,oe
CVOE_B,90,1,1,15,D 30,,,FALSE,OE,p,360,oe
CVOE_B,90,1,1,16,U 62,,,TRUE,OE,p,405,oe
CVOE_B,90,1,1,17,P 95,,,TRUE,OE,q,488,oe
CVOE_B,90,1,1,18,U 06,,,TRUE,OE,p,448,oe
CVOE_B,90,1,1,19,E 75,,,FALSE,OE,q,569,oe
CVOE_B,90,1,1,20,I 67,,,FALSE,OE,q,422,oe
CVOE_B,90,1,1,21,S 13,,,TRUE,OE,q,464,oe
CVOE_B,90,1,1,22,P 78,,,FALSE,OE,p,457,oe
CVOE_B,90,1,1,23,I 15,,,FALSE,OE,q,410,oe
CVOE_B,90,1,1,24,D 27,,,TRUE,OE,q,389,oe
CVOE_B,90,1,1,25,O 94,,,TRUE,OE,p,489,oe
CVOE_B,90,1,1,26,A 65,,,FALSE,OE,q,561,oe
CVOE_B,90,1,1,27,I 42,,,TRUE,OE,p,469,oe
CVOE_B,90,1,1,28,E 25,,,FALSE,OE,q,566,oe
CVOE_B,90,1,1,29,H 49,,,TRUE,OE,p,459,oe
CVOE_B,90,1,1,30,S 18,,,FALSE,OE,p,804,oe
CVOE_B,90,1,1,31,H 51,,,TRUE,OE,q,559,oe
CVOE_B,90,1,1,32,U 14,,,TRUE,OE,p,652,oe
CVOE_B,90,1,1,33,E 02,,,TRUE,OE,p,461,oe
CVOE_B,90,1,1,34,J 26,,,FALSE,OE,p,685,oe
CVOE_B,90,1,1,35,D 24,,,FALSE,OE,p,429,oe
CVOE_B,90,1,1,36,O 50,,,TRUE,OE,p,559,oe
CVOE_B,90,1,1,37,U 16,,,TRUE,OE,p,468,oe
CVOE_B,90,1,1,38,O 15,,,FALSE,OE,q,525,oe
CVOE_B,90,1,1,39,D 32,,,FALSE,OE,q,467,oe
CVOE_B,90,1,1,40,S 67,,,TRUE,OE,q,620,oe
CVOE_B,90,1,1,41,J 74,,,FALSE,OE,p,582,oe
CVOE_B,90,1,1,42,D 92,,,FALSE,OE,p,386,oe
CVOE_B,90,1,1,43,A 65,,,FALSE,OE,q,622,oe
CVOE_B,90,1,1,44,I 87,,,FALSE,OE,q,521,oe
CVOE_B,90,1,1,45,H 61,,,TRUE,OE,q,639,oe
CVOE_B,90,1,1,46,E 59,,,FALSE,OE,q,545,oe
CVOE_B,90,1,1,47,I 33,,,FALSE,OE,q,1487,oe
CVOE_B,90,1,1,48,O 90,,,TRUE,OE,p,686,oe
CVOE_B,90,1,1,49,U 51,,,FALSE,OE,q,750,oe
CVOE_B,90,1,1,50,A 10,,,TRUE,OE,p,868,oe
CVOE_B,90,1,1,51,E 50,,,TRUE,OE,p,1668,oe
CVOE_B,90,1,1,52,D 92,,,FALSE,OE,p,685,oe
CVOE_B,90,1,1,53,E 60,,,TRUE,OE,p,517,oe
CVOE_B,90,1,1,54,A 95,,,FALSE,OE,q,851,oe
CVOE_B,90,1,1,55,E 64,,,TRUE,OE,p,604,oe
CVOE_B,90,1,1,56,P 20,,,FALSE,OE,p,1192,oe
CVOE_B,90,1,1,57,S 06,,,FALSE,OE,p,652,oe
CVOE_B,90,1,1,58,P 64,,,FALSE,OE,p,637,oe
CVOE_B,90,1,1,59,U 70,,,TRUE,OE,p,615,oe
CVOE_B,90,1,1,60,S 16,,,FALSE,OE,p,457,oe
CVOE_B,90,1,1,61,E 35,,,FALSE,OE,q,563,oe
CVOE_B,90,1,1,62,I 93,,,FALSE,OE,q,535,oe
CVOE_B,90,1,1,63,D 63,,,TRUE,OE,q,517,oe
CVOE_B,90,1,1,64,U 89,,,FALSE,OE,q,460,oe
CVOE_B,90,1,1,65,E 91,,,FALSE,OE,q,524,oe
CVOE_B,90,1,1,66,A 12,,,TRUE,OE,p,507,oe
CVOE_B,90,1,1,67,P 56,,,FALSE,OE,p,474,oe
CVOE_B,90,1,1,68,S 65,,,TRUE,OE,q,835,oe
CVOE_B,90,1,1,69,P 07,,,TRUE,OE,q,413,oe
CVOE_B,90,1,1,70,I 77,,,FALSE,OE,q,447,oe
CVOE_B,90,1,1,71,J 19,,,TRUE,OE,q,457,oe
CVOE_B,90,1,1,72,O 59,,,FALSE,OE,q,594,oe
CVOE_B,90,1,1,73,J 15,,,TRUE,OE,q,581,oe
CVOE_B,90,1,1,74,I 89,,,FALSE,OE,q,617,oe
CVOE_B,90,1,1,75,O 97,,,FALSE,OE,q,884,oe
CVOE_B,90,1,1,76,A 92,,,TRUE,OE,p,899,oe
CVOE_B,90,1,1,77,J 90,,,FALSE,OE,p,603,oe
CVOE_B,90,1,1,78,H 65,,,TRUE,OE,q,494,oe
CVOE_B,90,1,1,79,H 17,,,TRUE,OE,q,485,oe
CVOE_B,90,1,1,80,S 26,,,FALSE,OE,p,501,oe
CVOE_B,90,1,1,81,D 56,,,FALSE,OE,p,540,oe
CVOE_B,90,1,1,82,I 91,,,FALSE,OE,q,426,oe
CVOE_B,90,1,1,83,J 11,,,TRUE,OE,q,452,oe
CVOE_B,90,1,1,84,O 28,,,TRUE,OE,p,462,oe
CVOE_B,90,1,1,85,H 29,,,TRUE,OE,q,518,oe
CVOE_B,90,1,1,86,J 25,,,TRUE,OE,q,1110,oe
CVOE_B,90,1,1,87,A 73,,,FALSE,OE,q,875,oe
CVOE_B,90,1,1,88,J 63,,,TRUE,OE,q,467,oe
CVOE_B,90,1,1,89,U 84,,,TRUE,OE,p,516,oe
CVOE_B,90,1,1,90,A 58,,,TRUE,OE,p,475,oe
CVOE_B,90,1,1,91,S 43,,,TRUE,OE,q,531,oe
CVOE_B,90,1,1,92,H 54,,,FALSE,OE,q,513,oe
CVOE_B,90,1,1,93,D 4,,,FALSE,OE,p,824,oe
CVOE_B,90,1,1,94,J 75,,,TRUE,OE,q,626,oe
CVOE_B,90,1,1,95,D 19,,,TRUE,OE,q,444,oe
CVOE_B,90,1,1,96,J 38,,,FALSE,OE,p,637,oe
CVOE_B,90,1,1,97,I 56,,,TRUE,OE,p,519,oe
CVOE_B,90,1,1,98,P 87,,,TRUE,OE,q,566,oe
CVOE_B,90,1,1,99,O 80,,,TRUE,OE,p,618,oe
CVOE_B,90,1,1,100,U 60,,,TRUE,OE,p,421,oe
CVOE_B,90,1,1,101,P 48,,,FALSE,OE,p,624,oe
CVOE_B,90,1,1,102,H 64,,,FALSE,OE,p,626,oe
CVOE_B,90,1,1,103,A 13,,,FALSE,OE,q,652,oe
CVOE_B,90,1,1,104,H 68,,,FALSE,OE,p,646,oe
CVOE_B,90,1,1,105,E 16,,,TRUE,OE,p,591,oe
CVOE_B,90,1,1,106,S 71,,,TRUE,OE,q,675,oe
CVOE_B,90,1,2,11,A 71,,,FALSE,CV,p,1601,cv
CVOE_B,90,1,2,12,I 66,,,TRUE,CV,p,411,cv
CVOE_B,90,1,2,13,S 30,,,FALSE,CV,q,534,cv
CVOE_B,90,1,2,14,D 20,,,FALSE,CV,q,932,cv
CVOE_B,90,1,2,15,I 31,,,FALSE,CV,p,698,cv
CVOE_B,90,1,2,16,P 16,,,FALSE,CV,q,2321,cv
CVOE_B,90,1,2,17,A 49,,,FALSE,CV,p,432,cv
CVOE_B,90,1,2,18,O 64,,,TRUE,CV,p,610,cv
CVOE_B,90,1,2,19,D 02,,,FALSE,CV,p,356,cv
CVOE_B,90,1,2,20,P 81,,,TRUE,CV,q,610,cv
CVOE_B,90,1,2,21,J 58,,,FALSE,CV,q,364,cv
CVOE_B,90,1,2,22,A 22,,,TRUE,CV,p,433,cv
CVOE_B,90,1,2,23,J 72,,,FALSE,CV,q,530,cv
CVOE_B,90,1,2,24,P 91,,,TRUE,CV,q,529,cv
CVOE_B,90,1,2,25,E 19,,,FALSE,CV,p,671,cv
CVOE_B,90,1,2,26,I 30,,,TRUE,CV,p,495,cv
CVOE_B,90,1,2,27,D 91,,,TRUE,CV,q,463,cv
CVOE_B,90,1,2,28,O 48,,,TRUE,CV,p,415,cv
CVOE_B,90,1,2,29,A 89,,,FALSE,CV,p,482,cv
CVOE_B,90,1,2,30,U 11,,,FALSE,CV,q,634,cv
CVOE_B,90,1,2,31,I 76,,,TRUE,CV,p,1188,cv
CVOE_B,90,1,2,32,U 89,,,FALSE,CV,p,575,cv
CVOE_B,90,1,2,33,D 63,,,TRUE,CV,q,628,cv
CVOE_B,90,1,2,34,H 70,,,FALSE,CV,q,622,cv
CVOE_B,90,1,2,35,D 48,,,FALSE,CV,q,361,cv
CVOE_B,90,1,2,36,P 56,,,FALSE,CV,q,429,cv
CVOE_B,90,1,2,37,O 77,,,FALSE,CV,p,399,cv
CVOE_B,90,1,2,38,P 42,,,FALSE,CV,q,402,cv
CVOE_B,90,1,2,39,H 22,,,FALSE,CV,q,414,cv
CVOE_B,90,1,2,40,E 42,,,TRUE,CV,p,424,cv
CVOE_B,90,1,2,41,J 28,,,FALSE,CV,q,339,cv
CVOE_B,90,1,2,42,E 95,,,FALSE,CV,q,481,cv
CVOE_B,90,1,2,43,S 63,,,TRUE,CV,q,609,cv
CVOE_B,90,1,2,44,H 50,,,FALSE,CV,q,420,cv
CVOE_B,90,1,2,45,S 33,,,TRUE,CV,q,423,cv
CVOE_B,90,1,2,46,P 57,,,TRUE,CV,q,401,cv
CVOE_B,90,1,2,47,E 23,,,FALSE,CV,p,596,cv
CVOE_B,90,1,2,48,S 61,,,TRUE,CV,q,464,cv
CVOE_B,90,1,2,49,U 67,,,FALSE,CV,p,504,cv
CVOE_B,90,1,2,50,H 32,,,FALSE,CV,q,1096,cv
CVOE_B,90,1,2,51,U 50,,,TRUE,CV,p,583,cv
CVOE_B,90,1,2,52,O 49,,,FALSE,CV,p,475,cv
CVOE_B,90,1,2,53,U 32,,,TRUE,CV,p,875,cv
CVOE_B,90,1,2,54,J 78,,,FALSE,CV,q,492,cv
CVOE_B,90,1,2,55,S 54,,,FALSE,CV,q,476,cv
CVOE_B,90,1,2,56,J 27,,,TRUE,CV,q,404,cv
CVOE_B,90,1,2,57,S 06,,,FALSE,CV,q,376,cv
CVOE_B,90,1,2,58,D 67,,,TRUE,CV,q,516,cv
CVOE_B,90,1,2,59,A 79,,,FALSE,CV,p,834,cv
CVOE_B,90,1,2,60,S 52,,,FALSE,CV,q,428,cv
CVOE_B,90,1,2,61,U 16,,,TRUE,CV,p,382,cv
CVOE_B,90,1,2,62,O 82,,,TRUE,CV,p,386,cv
CVOE_B,90,1,2,63,H 87,,,TRUE,CV,q,526,cv
CVOE_B,90,1,2,64,I 32,,,TRUE,CV,p,932,cv
CVOE_B,90,1,2,65,U 37,,,FALSE,CV,p,586,cv
CVOE_B,90,1,2,66,I 42,,,TRUE,CV,p,830,cv
CVOE_B,90,1,2,67,D 65,,,TRUE,CV,q,624,cv
CVOE_B,90,1,2,68,U 77,,,FALSE,CV,p,682,cv
CVOE_B,90,1,2,69,E 12,,,TRUE,CV,p,866,cv
CVOE_B,90,1,2,70,I 60,,,TRUE,CV,p,419,cv
CVOE_B,90,1,2,71,J 36,,,FALSE,CV,q,469,cv
CVOE_B,90,1,2,72,H 75,,,TRUE,CV,q,518,cv
CVOE_B,90,1,2,73,I 50,,,TRUE,CV,p,812,cv
CVOE_B,90,1,2,74,E 99,,,FALSE,CV,p,543,cv
CVOE_B,90,1,2,75,A 86,,,TRUE,CV,p,740,cv
CVOE_B,90,1,2,76,U 48,,,TRUE,CV,p,522,cv
CVOE_B,90,1,2,77,E 01,,,FALSE,CV,p,457,cv
CVOE_B,90,1,2,78,A 78,,,TRUE,CV,p,394,cv
CVOE_B,90,1,2,79,P 60,,,FALSE,CV,q,517,cv
CVOE_B,90,1,2,80,E 43,,,FALSE,CV,p,404,cv
CVOE_B,90,1,2,81,D 69,,,TRUE,CV,q,503,cv
CVOE_B,90,1,2,82,H 11,,,TRUE,CV,q,678,cv
CVOE_B,90,1,2,83,P 43,,,TRUE,CV,q,374,cv
CVOE_B,90,1,2,84,O 67,,,FALSE,CV,p,515,cv
CVOE_B,90,1,2,85,S 91,,,FALSE,CV,q,642,cv
CVOE_B,90,1,2,86,J 68,,,TRUE,CV,q,380,cv
CVOE_B,90,1,2,87,S 47,,,FALSE,CV,q,391,cv
CVOE_B,90,1,2,88,I 81,,,TRUE,CV,p,611,cv
CVOE_B,90,1,2,89,J 39,,,FALSE,CV,q,638,cv
CVOE_B,90,1,2,90,A 11,,,TRUE,CV,p,624,cv
CVOE_B,90,1,2,91,O 76,,,FALSE,CV,p,706,cv
CVOE_B,90,1,2,92,A 62,,,FALSE,CV,p,1074,cv
CVOE_B,90,1,2,93,O 27,,,TRUE,CV,p,442,cv
CVOE_B,90,1,2,94,E 66,,,FALSE,CV,p,348,cv
CVOE_B,90,1,2,95,J 62,,,TRUE,CV,q,618,cv
CVOE_B,90,1,2,96,H 72,,,TRUE,CV,q,636,cv
CVOE_B,90,1,2,97,E 49,,,TRUE,CV,p,806,cv
CVOE_B,90,1,2,98,D 52,,,TRUE,CV,q,3617,cv
CVOE_B,90,1,2,99,H 62,,,TRUE,CV,q,892,cv
CVOE_B,90,1,2,100,I 11,,,TRUE,CV,q,340,cv
CVOE_B,90,1,2,101,A 98,,,FALSE,CV,p,530,cv
CVOE_B,90,1,2,102,H 29,,,FALSE,CV,q,495,cv
CVOE_B,90,1,2,103,E 83,,,TRUE,CV,p,455,cv
CVOE_B,90,1,2,104,D 43,,,FALSE,CV,q,440,cv
CVOE_B,90,1,2,105,P 45,,,TRUE,CV,q,362,cv
CVOE_B,90,1,2,106,J 17,,,TRUE,CV,q,447,cv
CVOE_B,90,1,3,11,U 38,Number,N,TRUE,OE,p,2214,shuf
CVOE_B,90,1,3,12,P 73,Number,N,TRUE,OE,q,904,shuf
CVOE_B,90,1,3,13,U 95,Letter,Y,FALSE,CV,p,848,shuf
CVOE_B,90,1,3,14,J 61,Number,Y,TRUE,OE,q,1849,shuf
CVOE_B,90,1,3,15,D 51,Number,N,TRUE,OE,q,954,shuf
CVOE_B,90,1,3,16,S 28,Number,N,FALSE,OE,p,951,shuf
CVOE_B,90,1,3,17,A 56,Letter,Y,TRUE,CV,p,1804,shuf
CVOE_B,90,1,3,18,H 78,Letter,N,FALSE,CV,q,1448,shuf
CVOE_B,90,1,3,19,P 92,Letter,N,FALSE,CV,q,681,shuf
CVOE_B,90,1,3,20,E 05,Number,Y,FALSE,OE,q,1017,shuf
CVOE_B,90,1,3,21,P 57,Letter,Y,TRUE,CV,q,923,shuf
CVOE_B,90,1,3,22,D 88,Number,Y,FALSE,OE,p,2090,shuf
CVOE_B,90,1,3,23,O 89,Letter,Y,FALSE,CV,p,1978,shuf
CVOE_B,90,1,3,24,U 43,Number,Y,FALSE,OE,q,957,shuf
CVOE_B,90,1,3,25,H 10,Number,N,FALSE,OE,p,1147,shuf
CVOE_B,90,1,3,26,S 07,Letter,Y,TRUE,CV,q,1880,shuf
CVOE_B,90,1,3,27,J 10,Letter,N,FALSE,CV,q,840,shuf
CVOE_B,90,1,3,28,H 54,Number,Y,FALSE,OE,p,1122,shuf
CVOE_B,90,1,3,29,E 99,Number,N,FALSE,OE,q,872,shuf
CVOE_B,90,1,3,30,J 36,Letter,Y,FALSE,CV,q,1217,shuf
CVOE_B,90,1,3,31,I 94,Letter,N,TRUE,CV,p,899,shuf
CVOE_B,90,1,3,32,A 82,Letter,N,TRUE,CV,p,1067,shuf
CVOE_B,90,1,3,33,H 79,Number,Y,TRUE,OE,q,867,shuf
CVOE_B,90,1,3,34,J 60,Number,N,FALSE,OE,p,884,shuf
CVOE_B,90,1,3,35,S 28,Letter,Y,FALSE,CV,p,868,shuf
CVOE_B,90,1,3,36,P 11,Number,Y,TRUE,OE,q,2996,shuf
CVOE_B,90,1,3,37,D 39,Number,N,TRUE,OE,q,1023,shuf
CVOE_B,90,1,3,38,E 90,Number,N,TRUE,OE,p,1354,shuf
CVOE_B,90,1,3,39,I 38,Number,N,TRUE,OE,p,1111,shuf
CVOE_B,90,1,3,40,S 35,Letter,Y,TRUE,CV,q,614,shuf
CVOE_B,90,1,3,41,D 41,Number,Y,TRUE,OE,q,1176,shuf
CVOE_B,90,1,3,42,E 06,Number,N,TRUE,OE,p,1100,shuf
CVOE_B,90,1,3,43,A 27,Number,N,FALSE,OE,q,1139,shuf
CVOE_B,90,1,3,44,U 95,Letter,Y,FALSE,CV,p,2369,shuf
CVOE_B,90,1,3,45,A 53,Letter,N,FALSE,CV,p,654,shuf
CVOE_B,90,1,3,46,E 43,Letter,N,FALSE,CV,p,671,shuf
CVOE_B,90,1,3,47,P 05,Number,Y,TRUE,OE,q,999,shuf
CVOE_B,90,1,3,48,O 19,Letter,Y,FALSE,CV,p,1243,shuf
CVOE_B,90,1,3,49,I 96,Number,Y,TRUE,OE,p,1436,shuf
CVOE_B,90,1,3,50,A 88,Number,N,TRUE,OE,p,1142,shuf
CVOE_B,90,1,3,51,I 67,Number,N,FALSE,OE,q,1036,shuf
CVOE_B,90,1,3,52,D 40,Number,N,FALSE,OE,p,973,shuf
CVOE_B,90,1,3,53,P 79,Letter,Y,TRUE,CV,q,1138,shuf
CVOE_B,90,1,3,54,U 24,Number,Y,TRUE,OE,p,1120,shuf
CVOE_B,90,1,3,55,P 74,Number,N,FALSE,OE,p,1879,shuf
CVOE_B,90,1,3,56,E 70,Number,N,TRUE,OE,p,830,shuf
CVOE_B,90,1,3,57,S 27,Number,N,TRUE,OE,q,704,shuf
CVOE_B,90,1,3,58,E 54,Letter,Y,TRUE,CV,q,1104,shuf
CVOE_B,90,1,3,59,A 53,Letter,N,FALSE,CV,p,1239,shuf
CVOE_B,90,1,3,60,P 34,Letter,N,FALSE,CV,q,673,shuf
CVOE_B,90,1,3,61,D 74,Number,Y,FALSE,OE,p,1057,shuf
CVOE_B,90,1,3,62,A 03,Letter,Y,FALSE,CV,p,2042,shuf
CVOE_B,90,1,3,63,E 24,Number,Y,TRUE,OE,q,1276,shuf
CVOE_B,90,1,3,64,I 58,Letter,Y,TRUE,CV,p,2380,shuf
CVOE_B,90,1,3,65,D 77,Number,Y,TRUE,OE,q,1056,shuf
CVOE_B,90,1,3,66,S 75,Number,N,TRUE,OE,q,1073,shuf
CVOE_B,90,1,3,67,I 20,Letter,Y,TRUE,CV,p,1194,shuf
CVOE_B,90,1,3,68,J 52,Letter,N,FALSE,CV,q,1013,shuf
CVOE_B,90,1,3,69,A 38,Number,Y,TRUE,OE,p,1311,shuf
CVOE_B,90,1,3,70,I 60,Letter,Y,TRUE,CV,p,1470,shuf
CVOE_B,90,1,3,71,S 51,Number,Y,TRUE,OE,q,1167,shuf
CVOE_B,90,1,3,72,D 63,Letter,Y,TRUE,CV,q,1395,shuf
CVOE_B,90,1,3,73,U 27,Letter,N,FALSE,CV,p,1678,shuf
CVOE_B,90,1,3,74,J 77,Letter,N,TRUE,CV,q,1350,shuf
CVOE_B,90,1,3,75,O 15,Number,Y,FALSE,OE,q,1003,shuf
CVOE_B,90,1,3,76,J 20,Letter,Y,FALSE,CV,q,1399,shuf
CVOE_B,90,1,3,77,U 97,Number,Y,FALSE,OE,q,1418,shuf
CVOE_B,90,1,3,78,H 03,Number,N,TRUE,OE,q,1116,shuf
CVOE_B,90,1,3,79,O 04,Letter,Y,TRUE,CV,p,955,shuf
CVOE_B,90,1,3,80,E 10,Letter,N,TRUE,CV,p,896,shuf
CVOE_B,90,1,3,81,I 52,Letter,N,TRUE,CV,p,687,shuf
CVOE_B,90,1,3,82,H 81,Number,Y,TRUE,OE,q,1503,shuf
CVOE_B,90,1,3,83,I 41,Number,N,FALSE,OE,q,686,shuf
CVOE_B,90,1,3,84,U 19,Letter,Y,FALSE,CV,p,870,shuf
CVOE_B,90,1,3,85,O 17,Number,Y,FALSE,OE,q,919,shuf
CVOE_B,90,1,3,86,A 10,Number,N,TRUE,OE,p,1294,shuf
CVOE_B,90,1,3,87,P 93,Letter,Y,TRUE,CV,q,2165,shuf
CVOE_B,90,1,3,88,E 59,Letter,N,FALSE,CV,p,809,shuf
CVOE_B,90,1,3,89,O 53,Letter,N,FALSE,CV,p,812,shuf
CVOE_B,90,1,3,90,A 96,Letter,N,TRUE,CV,p,646,shuf
CVOE_B,90,1,3,91,H 36,Letter,Y,FALSE,CV,q,808,shuf
CVOE_B,90,1,3,92,A 63,Letter,N,FALSE,CV,p,955,shuf
CVOE_B,90,1,3,93,I 38,Letter,N,TRUE,CV,p,1208,shuf
CVOE_B,90,1,3,94,O 51,Number,Y,FALSE,OE,q,1259,shuf
CVOE_B,90,1,3,95,J 26,Number,N,FALSE,OE,p,804,shuf
CVOE_B,90,1,3,96,S 34,Letter,Y,FALSE,CV,q,903,shuf
CVOE_B,90,1,3,97,U 85,Number,Y,FALSE,OE,q,1102,shuf
CVOE_B,90,1,3,98,J 77,Number,N,TRUE,OE,q,1070,shuf
CVOE_B,90,1,3,99,I 73,Letter,Y,FALSE,CV,p,1126,shuf
CVOE_B,90,1,3,100,H 46,Number,Y,FALSE,OE,p,1508,shuf
CVOE_B,90,1,3,101,D 04,Number,N,FALSE,OE,p,1923,shuf
CVOE_B,90,1,3,102,P 72,Letter,Y,FALSE,CV,q,1074,shuf
CVOE_B,90,1,3,103,D 99,Number,Y,TRUE,OE,p,1010,shuf
CVOE_B,90,1,3,104,U 25,Letter,Y,FALSE,CV,p,1965,shuf
CVOE_B,90,1,3,105,O 32,Letter,N,TRUE,CV,p,1321,shuf
CVOE_B,90,1,3,106,E 80,Letter,N,TRUE,CV,p,800,shuf
CVOE_B,90,1,3,107,O 84,Number,Y,TRUE,OE,p,1307,shuf
CVOE_B,90,1,3,108,A 78,Number,N,TRUE,OE,p,898,shuf
CVOE_B,90,1,3,109,S 05,Number,N,TRUE,OE,q,970,shuf
CVOE_B,90,1,3,110,U 35,Letter,Y,FALSE,CV,p,1694,shuf
CVOE_B,90,1,3,111,H 14,Letter,N,FALSE,CV,q,1301,shuf
CVOE_B,90,1,3,112,U 15,Number,Y,FALSE,OE,q,1540,shuf
CVOE_B,90,1,3,113,E 36,Letter,Y,TRUE,CV,p,1290,shuf
CVOE_B,90,1,3,114,P 70,Letter,N,FALSE,CV,q,1498,shuf
CVOE_B,90,1,3,115,O 44,Number,Y,TRUE,OE,p,849,shuf
CVOE_B,90,1,3,116,S 41,Letter,Y,TRUE,CV,q,859,shuf
CVOE_B,90,1,3,117,D 83,Letter,N,TRUE,CV,q,908,shuf
CVOE_B,90,1,3,118,J 39,Letter,N,TRUE,CV,q,651,shuf
CVOE_B,90,1,3,119,S 22,Number,Y,FALSE,OE,p,1076,shuf
CVOE_B,90,1,3,120,D 89,Letter,Y,TRUE,CV,q,988,shuf
CVOE_B,90,1,3,121,P 87,Letter,N,TRUE,CV,q,960,shuf
CVOE_B,90,1,3,122,H 42,Letter,N,FALSE,CV,q,1157,shuf
CVOE_B,90,1,3,123,S 49,Letter,N,TRUE,CV,q,754,shuf
CVOE_B,90,1,3,124,J 20,Number,Y,FALSE,OE,p,1127,shuf
CVOE_B,90,1,3,125,O 19,Letter,Y,FALSE,CV,p,1141,shuf
CVOE_B,90,1,3,126,H 50,Letter,N,FALSE,CV,q,787,shuf
CVOE_B,90,1,3,127,I 68,Number,Y,TRUE,OE,p,1111,shuf
CVOE_B,90,1,3,128,J 72,Number,N,FALSE,OE,p,1389,shuf
CVOE_B,90,1,3,129,O 21,Number,N,FALSE,OE,q,1905,shuf
CVOE_B,90,1,3,130,H 22,Number,N,FALSE,OE,q,840,shuf
CVOE_B,90,1,4,1,A 44,Letter,N,TRUE,CV,p,3913,alt
CVOE_B,90,1,4,2,D 94,Letter,N,FALSE,CV,q,760,alt
CVOE_B,90,1,4,3,E 75,Number,Y,FALSE,OE,q,996,alt
CVOE_B,90,1,4,4,H 81,Number,N,TRUE,OE,q,751,alt
CVOE_B,90,1,4,5,I 64,Letter,Y,TRUE,CV,p,949,alt
CVOE_B,90,1,4,6,J 54,Letter,N,FALSE,CV,p,882,alt
CVOE_B,90,1,4,7,O 23,Number,Y,FALSE,OE,q,1850,alt
CVOE_B,90,1,4,8,P 05,Number,N,TRUE,OE,q,1595,alt
CVOE_B,90,1,4,9,S 34,Letter,Y,FALSE,CV,q,1070,alt
CVOE_B,90,1,4,10,U 88,Letter,N,TRUE,CV,p,895,alt
CVOE_B,90,1,4,11,A 70,Number,Y,TRUE,OE,p,1494,alt
CVOE_B,90,1,4,12,D 12,Number,N,FALSE,OE,p,965,alt
CVOE_B,90,1,4,13,E 79,Letter,Y,FALSE,CV,p,874,alt
CVOE_B,90,1,4,14,H 72,Letter,N,FALSE,CV,q,690,alt
CVOE_B,90,1,4,15,I 41,Number,Y,FALSE,OE,q,858,alt
CVOE_B,90,1,4,16,J 63,Number,N,TRUE,OE,q,843,alt
CVOE_B,90,1,4,17,O 03,Letter,Y,FALSE,CV,p,1245,alt
CVOE_B,90,1,4,18,P 75,Letter,N,TRUE,CV,q,1214,alt
CVOE_B,90,1,4,19,S 61,Number,Y,TRUE,OE,q,1008,alt
CVOE_B,90,1,4,20,U 28,Number,N,TRUE,OE,p,740,alt
CVOE_B,90,1,4,21,A 21,Letter,Y,FALSE,CV,p,1090,alt
CVOE_B,90,1,4,22,D 18,Letter,N,FALSE,CV,q,754,alt
CVOE_B,90,1,4,23,E 35,Number,Y,FALSE,OE,p,1087,alt
CVOE_B,90,1,4,24,H 62,Number,N,FALSE,OE,p,2935,alt
CVOE_B,90,1,4,25,I 82,Letter,Y,TRUE,CV,p,1476,alt
CVOE_B,90,1,4,26,J 78,Letter,N,FALSE,CV,q,748,alt
CVOE_B,90,1,4,27,O 12,Number,Y,TRUE,OE,p,1082,alt
CVOE_B,90,1,4,28,P 13,Number,N,TRUE,OE,q,1001,alt
CVOE_B,90,1,4,29,S 07,Letter,Y,TRUE,CV,q,1533,alt
CVOE_B,90,1,4,30,U 36,Letter,N,TRUE,CV,p,866,alt
CVOE_B,90,1,4,31,A 96,Number,Y,TRUE,OE,p,1203,alt
CVOE_B,90,1,4,32,D 04,Number,N,FALSE,OE,p,742,alt
CVOE_B,90,1,4,33,E 60,Letter,Y,TRUE,CV,p,884,alt
CVOE_B,90,1,4,34,H 83,Letter,N,TRUE,CV,q,707,alt
CVOE_B,90,1,4,35,I 64,Number,Y,TRUE,OE,p,899,alt
CVOE_B,90,1,4,36,J 76,Number,N,FALSE,OE,p,714,alt
CVOE_B,90,1,4,37,O 78,Letter,Y,TRUE,CV,q,1144,alt
CVOE_B,90,1,4,38,P 09,Letter,N,TRUE,CV,q,638,alt
CVOE_B,90,1,4,39,S 72,Number,Y,FALSE,OE,p,904,alt
CVOE_B,90,1,4,40,U 47,Number,N,FALSE,OE,q,743,alt
CVOE_B,90,1,4,41,A 31,Letter,Y,FALSE,CV,p,708,alt
CVOE_B,90,1,4,42,D 96,Letter,N,FALSE,CV,q,867,alt
CVOE_B,90,1,4,43,E 40,Number,Y,TRUE,OE,p,1796,alt
CVOE_B,90,1,4,44,H 79,Number,N,TRUE,OE,q,1783,alt
CVOE_B,90,1,4,45,I 15,Letter,Y,FALSE,CV,p,2547,alt
CVOE_B,90,1,4,46,J 07,Letter,N,TRUE,CV,q,800,alt
CVOE_B,90,1,4,47,O 61,Number,Y,FALSE,OE,q,1611,alt
CVOE_B,90,1,4,48,P 58,Number,N,FALSE,OE,p,886,alt
CVOE_B,90,1,4,49,S 37,Letter,Y,TRUE,CV,q,1838,alt
CVOE_B,90,1,4,50,U 61,Letter,N,FALSE,CV,q,4568,alt
CVOE_B,90,1,4,51,A 17,Number,Y,FALSE,OE,q,1348,alt
CVOE_B,90,1,4,52,D 85,Number,N,TRUE,OE,q,985,alt
CVOE_B,90,1,4,53,E 20,Letter,Y,TRUE,CV,p,981,alt
CVOE_B,90,1,4,54,H 86,Letter,N,FALSE,CV,q,785,alt
CVOE_B,90,1,4,55,I 21,Number,Y,FALSE,OE,q,973,alt
CVOE_B,90,1,4,56,J 29,Number,N,TRUE,OE,q,721,alt
CVOE_B,90,1,4,57,O 13,Letter,Y,FALSE,CV,p,1336,alt
CVOE_B,90,1,4,58,P 82,Letter,N,FALSE,CV,q,838,alt
CVOE_B,90,1,4,59,S 72,Number,Y,FALSE,OE,p,1120,alt
CVOE_B,90,1,4,60,U 84,Number,N,TRUE,OE,p,734,alt
CVOE_B,90,1,4,61,A 49,Letter,Y,FALSE,CV,p,1340,alt
CVOE_B,90,1,4,62,D 91,Letter,N,TRUE,CV,q,730,alt
CVOE_B,90,1,4,63,E 99,Number,Y,FALSE,OE,q,2176,alt
CVOE_B,90,1,4,64,H 16,Number,N,FALSE,OE,p,796,alt
CVOE_B,90,1,4,65,I 45,Letter,Y,FALSE,CV,p,1519,alt
CVOE_B,90,1,4,66,J 70,Letter,N,FALSE,CV,q,1110,alt
CVOE_B,90,1,4,67,O 22,Number,Y,TRUE,OE,p,1564,alt
CVOE_B,90,1,4,68,P 41,Number,N,TRUE,OE,q,705,alt
CVOE_B,90,1,4,69,S 93,Letter,Y,TRUE,CV,q,1672,alt
CVOE_B,90,1,4,70,U 70,Letter,N,TRUE,CV,p,704,alt
CVOE_B,90,1,4,71,A 42,Number,Y,TRUE,OE,p,2208,alt
CVOE_B,90,1,4,72,D 85,Number,N,TRUE,OE,q,1083,alt
CVOE_B,90,1,4,73,E 68,Letter,Y,TRUE,CV,p,603,alt
CVOE_B,90,1,4,74,H 17,Letter,N,TRUE,CV,q,694,alt
CVOE_B,90,1,4,75,I 70,Number,Y,TRUE,OE,p,701,alt
CVOE_B,90,1,4,76,J 88,Number,N,FALSE,OE,p,572,alt
CVOE_B,90,1,4,77,O 32,Letter,Y,TRUE,CV,p,1089,alt
CVOE_B,90,1,4,78,P 95,Letter,N,TRUE,CV,q,825,alt
CVOE_B,90,1,4,79,S 98,Number,Y,FALSE,OE,p,707,alt
CVOE_B,90,1,4,80,U 37,Number,N,FALSE,OE,q,531,alt
CVOE_B,90,1,4,81,A 56,Letter,Y,TRUE,CV,p,753,alt
CVOE_B,90,1,4,82,D 57,Letter,N,TRUE,CV,q,446,alt
CVOE_B,90,1,4,83,E 93,Number,Y,FALSE,OE,q,1159,alt
CVOE_B,90,1,4,84,H 27,Number,N,TRUE,OE,q,620,alt
CVOE_B,90,1,4,85,I 35,Letter,Y,FALSE,CV,p,614,alt
CVOE_B,90,1,4,86,J 03,Letter,N,TRUE,CV,q,545,alt
CVOE_B,90,1,4,87,O 28,Number,Y,TRUE,OE,p,894,alt
CVOE_B,90,1,4,88,P 59,Number,N,TRUE,OE,q,869,alt
CVOE_B,90,1,4,89,S 77,Letter,Y,TRUE,CV,q,1142,alt
CVOE_B,90,1,4,90,U 05,Letter,N,FALSE,CV,p,668,alt
CVOE_B,90,1,4,91,A 56,Number,Y,TRUE,OE,p,1588,alt
CVOE_B,90,1,4,92,D 01,Number,N,TRUE,OE,q,632,alt
CVOE_B,90,1,4,93,E 02,Letter,Y,TRUE,CV,p,1146,alt
CVOE_B,90,1,4,94,H 68,Letter,N,FALSE,CV,q,615,alt
CVOE_B,90,1,4,95,I 05,Number,Y,FALSE,OE,q,1298,alt
CVOE_B,90,1,4,96,J 55,Number,N,TRUE,OE,q,609,alt
CVOE_B,90,1,4,97,O 73,Letter,Y,FALSE,CV,p,516,alt
CVOE_B,90,1,4,98,P 41,Letter,N,TRUE,CV,q,483,alt
CVOE_B,90,1,4,99,S 92,Number,Y,FALSE,OE,q,571,alt
CVOE_B,90,1,4,100,U 34,Number,N,TRUE,OE,p,695,alt
CVOE_B,90,1,4,101,A 09,Letter,Y,FALSE,CV,p,1511,alt
CVOE_B,90,1,4,102,D 92,Letter,N,FALSE,CV,q,645,alt
CVOE_B,90,1,4,103,E 48,Number,Y,TRUE,OE,p,710,alt
CVOE_B,90,1,4,104,H 76,Number,N,FALSE,OE,p,621,alt
CVOE_B,90,1,4,105,I 44,Letter,Y,TRUE,CV,q,695,alt
CVOE_B,90,1,4,106,J 67,Letter,N,TRUE,CV,p,846,alt
CVOE_B,90,1,4,107,O 48,Number,Y,TRUE,OE,p,1304,alt
CVOE_B,90,1,4,108,P 22,Number,N,FALSE,OE,p,863,alt
CVOE_B,90,1,4,109,S 86,Letter,Y,FALSE,CV,q,631,alt
CVOE_B,90,1,4,110,U 35,Letter,N,FALSE,CV,p,473,alt
CVOE_B,90,1,4,111,A 91,Number,Y,FALSE,OE,q,610,alt
CVOE_B,90,1,4,112,D 78,Number,N,FALSE,OE,p,516,alt
CVOE_B,90,1,4,113,E 91,Letter,Y,FALSE,CV,p,531,alt
CVOE_B,90,1,4,114,H 54,Letter,N,FALSE,CV,q,610,alt
CVOE_B,90,1,4,115,I 65,Number,Y,FALSE,OE,q,972,alt
CVOE_B,90,1,4,116,J 52,Number,N,FALSE,OE,p,1128,alt
CVOE_B,90,1,4,117,O 19,Letter,Y,FALSE,CV,p,1102,alt
CVOE_B,90,1,4,118,P 48,Letter,N,FALSE,CV,p,845,alt
CVOE_B,90,1,4,119,S 45,Number,Y,TRUE,OE,q,1063,alt
CVOE_B,90,1,4,120,U 26,Number,N,TRUE,OE,p,719,alt
CVOE_C,91,1,1,11,A 24,,,TRUE,OE,p,1272,oe
CVOE_C,91,1,1,12,O 83,,,FALSE,OE,q,541,oe
CVOE_C,91,1,1,13,H 55,,,TRUE,OE,q,505,oe
CVOE_C,91,1,1,14,P 10,,,FALSE,OE,p,540,oe
CVOE_C,91,1,1,15,D 30,,,FALSE,OE,p,525,oe
CVOE_C,91,1,1,16,U 62,,,TRUE,OE,p,530,oe
CVOE_C,91,1,1,17,P 95,,,TRUE,OE,q,484,oe
CVOE_C,91,1,1,18,U 06,,,TRUE,OE,p,554,oe
CVOE_C,91,1,1,19,E 75,,,FALSE,OE,q,511,oe
CVOE_C,91,1,1,20,I 67,,,FALSE,OE,q,541,oe
CVOE_C,91,1,1,21,S 13,,,TRUE,OE,q,513,oe
CVOE_C,91,1,1,22,P 78,,,FALSE,OE,p,519,oe
CVOE_C,91,1,1,23,I 15,,,FALSE,OE,q,547,oe
CVOE_C,91,1,1,24,D 27,,,TRUE,OE,q,688,oe
CVOE_C,91,1,1,25,O 94,,,TRUE,OE,p,783,oe
CVOE_C,91,1,1,26,A 65,,,FALSE,OE,q,571,oe
CVOE_C,91,1,1,27,I 42,,,TRUE,OE,p,703,oe
CVOE_C,91,1,1,28,E 25,,,FALSE,OE,q,635,oe
CVOE_C,91,1,1,29,H 49,,,TRUE,OE,q,505,oe
CVOE_C,91,1,1,30,S 18,,,FALSE,OE,p,597,oe
CVOE_C,91,1,1,31,H 51,,,TRUE,OE,q,718,oe
CVOE_C,91,1,1,32,U 14,,,TRUE,OE,p,683,oe
CVOE_C,91,1,1,33,E 02,,,TRUE,OE,p,628,oe
CVOE_C,91,1,1,34,J 26,,,FALSE,OE,p,537,oe
CVOE_C,91,1,1,35,D 24,,,FALSE,OE,p,612,oe
CVOE_C,91,1,1,36,O 50,,,TRUE,OE,p,647,oe
CVOE_C,91,1,1,37,U 16,,,TRUE,OE,p,572,oe
CVOE_C,91,1,1,38,O 15,,,FALSE,OE,q,479,oe
CVOE_C,91,1,1,39,D 32,,,FALSE,OE,p,593,oe
CVOE_C,91,1,1,40,S 67,,,TRUE,OE,q,640,oe
CVOE_C,91,1,1,41,J 74,,,FALSE,OE,p,633,oe
CVOE_C,91,1,1,42,D 92,,,FALSE,OE,p,593,oe
CVOE_C,91,1,1,43,A 65,,,FALSE,OE,q,681,oe
CVOE_C,91,1,1,44,I 87,,,FALSE,OE,q,1184,oe
CVOE_C,91,1,1,45,H 61,,,TRUE,OE,q,615,oe
CVOE_C,91,1,1,46,E 59,,,FALSE,OE,q,631,oe
CVOE_C,91,1,1,47,I 33,,,FALSE,OE,q,486,oe
CVOE_C,91,1,1,48,O 90,,,TRUE,OE,p,593,oe
CVOE_C,91,1,1,49,U 51,,,FALSE,OE,q,540,oe
CVOE_C,91,1,1,50,A 10,,,TRUE,OE,p,531,oe
CVOE_C,91,1,1,51,E 50,,,TRUE,OE,p,611,oe
CVOE_C,91,1,1,52,D 92,,,FALSE,OE,p,565,oe
CVOE_C,91,1,1,53,E 60,,,TRUE,OE,p,538,oe
CVOE_C,91,1,1,54,A 95,,,FALSE,OE,q,662,oe
CVOE_C,91,1,1,55,E 64,,,TRUE,OE,p,591,oe
CVOE_C,91,1,1,56,P 20,,,FALSE,OE,p,473,oe
CVOE_C,91,1,1,57,S 06,,,FALSE,OE,p,507,oe
CVOE_C,91,1,1,58,P 64,,,FALSE,OE,p,430,oe
CVOE_C,91,1,1,59,U 70,,,TRUE,OE,p,568,oe
CVOE_C,91,1,1,60,S 16,,,FALSE,OE,p,391,oe
CVOE_C,91,1,1,61,E 35,,,FALSE,OE,q,496,oe
CVOE_C,91,1,1,62,I 93,,,FALSE,OE,q,440,oe
CVOE_C,91,1,1,63,D 63,,,TRUE,OE,q,488,oe
CVOE_C,91,1,1,64,U 89,,,FALSE,OE,q,466,oe
CVOE_C,91,1,1,65,E 91,,,FALSE,OE,q,491,oe
CVOE_C,91,1,1,66,A 12,,,TRUE,OE,p,515,oe
CVOE_C,91,1,1,67,P 56,,,FALSE,OE,p,624,oe
CVOE_C,91,1,1,68,S 65,,,TRUE,OE,q,487,oe
CVOE_C,91,1,1,69,P 07,,,TRUE,OE,q,755,oe
CVOE_C,91,1,1,70,I 77,,,FALSE,OE,q,529,oe
CVOE_C,91,1,1,71,J 19,,,TRUE,OE,q,435,oe
CVOE_C,91,1,1,72,O 59,,,FALSE,OE,q,381,oe
CVOE_C,91,1,1,73,J 15,,,TRUE,OE,q,429,oe
CVOE_C,91,1,1,74,I 89,,,FALSE,OE,q,502,oe
CVOE_C,91,1,1,75,O 97,,,FALSE,OE,q,428,oe
CVOE_C,91,1,1,76,A 92,,,TRUE,OE,p,561,oe
CVOE_C,91,1,1,77,J 90,,,FALSE,OE,p,462,oe
CVOE_C,91,1,1,78,H 65,,,TRUE,OE,q,458,oe
CVOE_C,91,1,1,79,H 17,,,TRUE,OE,q,412,oe
CVOE_C,91,1,1,80,S 26,,,FALSE,OE,p,474,oe
CVOE_C,91,1,1,81,D 56,,,FALSE,OE,p,565,oe
CVOE_C,91,1,1,82,I 91,,,FALSE,OE,q,539,oe
CVOE_C,91,1,1,83,J 11,,,TRUE,OE,q,621,oe
CVOE_C,91,1,1,84,O 28,,,TRUE,OE,q,327,oe
CVOE_C,91,1,1,85,H 29,,,TRUE,OE,q,653,oe
CVOE_C,91,1,1,86,J 25,,,TRUE,OE,q,743,oe
CVOE_C,91,1,1,87,A 73,,,FALSE,OE,q,522,oe
CVOE_C,91,1,1,88,J 63,,,TRUE,OE,q,553,oe
CVOE_C,91,1,1,89,U 84,,,TRUE,OE,p,460,oe
CVOE_C,91,1,1,90,A 58,,,TRUE,OE,p,547,oe
CVOE_C,91,1,1,91,S 43,,,TRUE,OE,q,1050,oe
CVOE_C,91,1,1,92,H 54,,,FALSE,OE,p,493,oe
CVOE_C,91,1,1,93,D 4,,,FALSE,OE,p,624,oe
CVOE_C,91,1,1,94,J 75,,,TRUE,OE,q,809,oe
CVOE_C,91,1,1,95,D 19,,,TRUE,OE,q,1059,oe
CVOE_C,91,1,1,96,J 38,,,FALSE,OE,p,582,oe
CVOE_C,91,1,1,97,I 56,,,TRUE,OE,p,600,oe
CVOE_C,91,1,1,98,P 87,,,TRUE,OE,q,644,oe
CVOE_C,91,1,1,99,O 80,,,TRUE,OE,p,968,oe
CVOE_C,91,1,1,100,U 60,,,TRUE,OE,p,514,oe
CVOE_C,91,1,1,101,P 48,,,FALSE,OE,p,822,oe
CVOE_C,91,1,1,102,H 64,,,FALSE,OE,p,573,oe
CVOE_C,91,1,1,103,A 13,,,FALSE,OE,q,488,oe
CVOE_C,91,1,1,104,H 68,,,FALSE,OE,p,709,oe
CVOE_C,91,1,1,105,E 16,,,TRUE,OE,p,709,oe
CVOE_C,91,1,1,106,S 71,,,TRUE,OE,q,471,oe
CVOE_C,91,1,2,11,A 71,,,FALSE,CV,p,1686,cv
CVOE_C,91,1,2,12,I 66,,,TRUE,CV,p,456,cv
CVOE_C,91,1,2,13,S 30,,,FALSE,CV,q,423,cv
CVOE_C,91,1,2,14,D 20,,,FALSE,CV,q,510,cv
CVOE_C,91,1,2,15,I 31,,,FALSE,CV,p,493,cv
CVOE_C,91,1,2,16,P 16,,,FALSE,CV,q,459,cv
CVOE_C,91,1,2,17,A 49,,,FALSE,CV,p,606,cv
CVOE_C,91,1,2,18,O 64,,,TRUE,CV,p,469,cv
CVOE_C,91,1,2,19,D 02,,,FALSE,CV,q,434,cv
CVOE_C,91,1,2,20,P 81,,,TRUE,CV,q,502,cv
CVOE_C,91,1,2,21,J 58,,,FALSE,CV,q,432,cv
CVOE_C,91,1,2,22,A 22,,,TRUE,CV,p,446,cv
CVOE_C,91,1,2,23,J 72,,,FALSE,CV,q,444,cv
CVOE_C,91,1,2,24,P 91,,,TRUE,CV,q,609,cv
CVOE_C,91,1,2,25,E 19,,,FALSE,CV,p,503,cv
CVOE_C,91,1,2,26,I 30,,,TRUE,CV,p,702,cv
CVOE_C,91,1,2,27,D 91,,,TRUE,CV,q,460,cv
CVOE_C,91,1,2,28,O 48,,,TRUE,CV,p,475,cv
CVOE_C,91,1,2,29,A 89,,,FALSE,CV,p,451,cv
CVOE_C,91,1,2,30,U 11,,,FALSE,CV,p,374,cv
CVOE_C,91,1,2,31,I 76,,,TRUE,CV,p,436,cv
CVOE_C,91,1,2,32,U 89,,,FALSE,CV,p,411,cv
CVOE_C,91,1,2,33,D 63,,,TRUE,CV,q,480,cv
CVOE_C,91,1,2,34,H 70,,,FALSE,CV,q,563,cv
CVOE_C,91,1,2,35,D 48,,,FALSE,CV,q,450,cv
CVOE_C,91,1,2,36,P 56,,,FALSE,CV,q,426,cv
CVOE_C,91,1,2,37,O 77,,,FALSE,CV,p,551,cv
CVOE_C,91,1,2,38,P 42,,,FALSE,CV,q,488,cv
CVOE_C,91,1,2,39,H 22,,,FALSE,CV,q,415,cv
CVOE_C,91,1,2,40,E 42,,,TRUE,CV,p,439,cv
CVOE_C,91,1,2,41,J 28,,,FALSE,CV,q,430,cv
CVOE_C,91,1,2,42,E 95,,,FALSE,CV,p,418,cv
CVOE_C,91,1,2,43,S 63,,,TRUE,CV,q,463,cv
CVOE_C,91,1,2,44,H 50,,,FALSE,CV,q,481,cv
CVOE_C,91,1,2,45,S 33,,,TRUE,CV,q,488,cv
CVOE_C,91,1,2,46,P 57,,,TRUE,CV,q,379,cv
CVOE_C,91,1,2,47,E 23,,,FALSE,CV,p,456,cv
CVOE_C,91,1,2,48,S 61,,,TRUE,CV,q,444,cv
CVOE_C,91,1,2,49,U 67,,,FALSE,CV,p,409,cv
CVOE_C,91,1,2,50,H 32,,,FALSE,CV,q,408,cv
CVOE_C,91,1,2,51,U 50,,,TRUE,CV,p,631,cv
CVOE_C,91,1,2,52,O 49,,,FALSE,CV,p,431,cv
CVOE_C,91,1,2,53,U 32,,,TRUE,CV,p,581,cv
CVOE_C,91,1,2,54,J 78,,,FALSE,CV,q,489,cv
CVOE_C,91,1,2,55,S 54,,,FALSE,CV,q,575,cv
CVOE_C,91,1,2,56,J 27,,,TRUE,CV,q,390,cv
CVOE_C,91,1,2,57,S 06,,,FALSE,CV,q,403,cv
CVOE_C,91,1,2,58,D 67,,,TRUE,CV,q,613,cv
CVOE_C,91,1,2,59,A 79,,,FALSE,CV,p,436,cv
CVOE_C,91,1,2,60,S 52,,,FALSE,CV,q,470,cv
CVOE_C,91,1,2,61,U 16,,,TRUE,CV,p,427,cv
CVOE_C,91,1,2,62,O 82,,,TRUE,CV,p,547,cv
CVOE_C,91,1,2,63,H 87,,,TRUE,CV,q,428,cv
CVOE_C,91,1,2,64,I 32,,,TRUE,CV,p,407,cv
CVOE_C,91,1,2,65,U 37,,,FALSE,CV,p,700,cv
CVOE_C,91,1,2,66,I 42,,,TRUE,CV,p,481,cv
CVOE_C,91,1,2,67,D 65,,,TRUE,CV,q,632,cv
CVOE_C,91,1,2,68,U 77,,,FALSE,CV,p,583,cv
CVOE_C,91,1,2,69,E 12,,,TRUE,CV,p,454,cv
CVOE_C,91,1,2,70,I 60,,,TRUE,CV,p,348,cv
CVOE_C,91,1,2,71,J 36,,,FALSE,CV,q,513,cv
CVOE_C,91,1,2,72,H 75,,,TRUE,CV,q,502,cv
CVOE_C,91,1,2,73,I 50,,,TRUE,CV,p,428,cv
CVOE_C,91,1,2,74,E 99,,,FALSE,CV,p,383,cv
CVOE_C,91,1,2,75,A 86,,,TRUE,CV,p,321,cv
CVOE_C,91,1,2,76,U 48,,,TRUE,CV,p,406,cv
CVOE_C,91,1,2,77,E 01,,,FALSE,CV,p,313,cv
CVOE_C,91,1,2,78,A 78,,,TRUE,CV,p,309,cv
CVOE_C,91,1,2,79,P 60,,,FALSE,CV,q,476,cv
CVOE_C,91,1,2,80,E 43,,,FALSE,CV,p,450,cv
CVOE_C,91,1,2,81,D 69,,,TRUE,CV,q,453,cv
CVOE_C,91,1,2,82,H 11,,,TRUE,CV,q,489,cv
CVOE_C,91,1,2,83,P 43,,,TRUE,CV,q,411,cv
CVOE_C,91,1,2,84,O 67,,,FALSE,CV,p,448,cv
CVOE_C,91,1,2,85,S 91,,,FALSE,CV,q,370,cv
CVOE_C,91,1,2,86,J 68,,,TRUE,CV,q,366,cv
CVOE_C,91,1,2,87,S 47,,,FALSE,CV,q,332,cv
CVOE_C,91,1,2,88,I 81,,,TRUE,CV,p,473,cv
CVOE_C,91,1,2,89,J 39,,,FALSE,CV,q,466,cv
CVOE_C,91,1,2,90,A 11,,,TRUE,CV,p,451,cv
CVOE_C,91,1,2,91,O 76,,,FALSE,CV,p,533,cv
CVOE_C,91,1,2,92,A 62,,,FALSE,CV,p,440,cv
CVOE_C,91,1,2,93,O 27,,,TRUE,CV,p,399,cv
CVOE_C,91,1,2,94,E 66,,,FALSE,CV,p,318,cv
CVOE_C,91,1,2,95,J 62,,,TRUE,CV,q,483,cv
CVOE_C,91,1,2,96,H 72,,,TRUE,CV,q,522,cv
CVOE_C,91,1,2,97,E 49,,,TRUE,CV,p,378,cv
CVOE_C,91,1,2,98,D 52,,,TRUE,CV,q,533,cv
CVOE_C,91,1,2,99,H 62,,,TRUE,CV,q,390,cv
CVOE_C,91,1,2,100,I 11,,,TRUE,CV,p,452,cv
CVOE_C,91,1,2,101,A 98,,,FALSE,CV,p,429,cv
CVOE_C,91,1,2,102,H 29,,,FALSE,CV,q,427,cv
CVOE_C,91,1,2,103,E 83,,,TRUE,CV,p,466,cv
CVOE_C,91,1,2,104,D 43,,,FALSE,CV,q,433,cv
CVOE_C,91,1,2,105,P 45,,,TRUE,CV,q,382,cv
CVOE_C,91,1,2,106,J 17,,,TRUE,CV,q,463,cv
CVOE_C,91,1,3,11,A 44,Letter,N,TRUE,CV,p,1594,alt
CVOE_C,91,1,3,12,D 94,Letter,N,FALSE,CV,q,1348,alt
CVOE_C,91,1,3,13,E 75,Number,Y,FALSE,OE,q,1600,alt
CVOE_C,91,1,3,14,H 81,Number,N,TRUE,OE,q,1625,alt
CVOE_C,91,1,3,15,I 64,Letter,Y,TRUE,CV,p,1348,alt
CVOE_C,91,1,3,16,J 54,Letter,N,FALSE,CV,q,1042,alt
CVOE_C,91,1,3,17,O 23,Number,Y,FALSE,OE,q,1232,alt
CVOE_C,91,1,3,18,P 05,Number,N,TRUE,OE,q,1707,alt
CVOE_C,91,1,3,19,S 34,Letter,Y,FALSE,CV,q,1795,alt
CVOE_C,91,1,3,20,U 88,Letter,N,TRUE,CV,p,1084,alt
CVOE_C,91,1,3,21,A 70,Number,Y,TRUE,OE,p,1790,alt
CVOE_C,91,1,3,22,D 12,Number,N,FALSE,OE,p,2108,alt
CVOE_C,91,1,3,23,E 79,Letter,Y,FALSE,CV,q,1650,alt
CVOE_C,91,1,3,24,H 72,Letter,N,FALSE,CV,q,2627,alt
CVOE_C,91,1,3,25,I 41,Number,Y,FALSE,OE,q,1450,alt
CVOE_C,91,1,3,26,J 63,Number,N,TRUE,OE,q,1827,alt
CVOE_C,91,1,3,27,O 03,Letter,Y,FALSE,CV,p,1445,alt
CVOE_C,91,1,3,28,P 75,Letter,N,TRUE,CV,q,1584,alt
CVOE_C,91,1,3,29,S 61,Number,Y,TRUE,OE,q,1202,alt
CVOE_C,91,1,3,30,U 28,Number,N,TRUE,OE,p,1406,alt
CVOE_C,91,1,3,31,A 21,Letter,Y,FALSE,CV,p,1848,alt
CVOE_C,91,1,3,32,D 18,Letter,N,FALSE,CV,q,1429,alt
CVOE_C,91,1,3,33,E 35,Number,Y,FALSE,OE,q,1340,alt
CVOE_C,91,1,3,34,H 62,Number,N,FALSE,OE,p,1126,alt
CVOE_C,91,1,3,35,I 82,Letter,Y,TRUE,CV,p,1208,alt
CVOE_C,91,1,3,36,J 78,Letter,N,FALSE,CV,q,776,alt
CVOE_C,91,1,3,37,O 12,Number,Y,TRUE,OE,p,1135,alt
CVOE_C,91,1,3,38,P 13,Number,N,TRUE,OE,q,786,alt
CVOE_C,91,1,3,39,S 07,Letter,Y,TRUE,CV,q,852,alt
CVOE_C,91,1,3,40,U 36,Letter,N,TRUE,CV,p,1105,alt
CVOE_C,91,1,3,41,A 96,Number,Y,TRUE,OE,p,1018,alt
CVOE_C,91,1,3,42,D 04,Number,N,FALSE,OE,p,876,alt
CVOE_C,91,1,3,43,E 60,Letter,Y,TRUE,CV,p,2658,alt
CVOE_C,91,1,3,44,H 83,Letter,N,TRUE,CV,q,1179,alt
CVOE_C,91,1,3,45,I 64,Number,Y,TRUE,OE,p,873,alt
CVOE_C,91,1,3,46,J 76,Number,N,FALSE,OE,p,1350,alt
CVOE_C,91,1,3,47,O 78,Letter,Y,TRUE,CV,p,1138,alt
CVOE_C,91,1,3,48,P 09,Letter,N,TRUE,CV,q,883,alt
CVOE_C,91,1,3,49,S 72,Number,Y,FALSE,OE,p,1416,alt
CVOE_C,91,1,3,50,U 47,Number,N,FALSE,OE,q,1590,alt
CVOE_C,91,1,3,51,A 31,Letter,Y,FALSE,CV,p,1047,alt
CVOE_C,91,1,3,52,D 96,Letter,N,FALSE,CV,q,926,alt
CVOE_C,91,1,3,53,E 40,Number,Y,TRUE,OE,p,1624,alt
CVOE_C,91,1,3,54,H 79,Number,N,TRUE,OE,q,1432,alt
CVOE_C,91,1,3,55,I 15,Letter,Y,FALSE,CV,p,1385,alt
CVOE_C,91,1,3,56,J 07,Letter,N,TRUE,CV,q,967,alt
CVOE_C,91,1,3,57,O 61,Number,Y,FALSE,OE,q,1607,alt
CVOE_C,91,1,3,58,P 58,Number,N,FALSE,OE,p,1600,alt
CVOE_C,91,1,3,59,S 37,Letter,Y,TRUE,CV,q,1232,alt
CVOE_C,91,1,3,60,U 61,Letter,N,FALSE,CV,p,855,alt
CVOE_C,91,1,3,61,A 17,Number,Y,FALSE,OE,q,1123,alt
CVOE_C,91,1,3,62,D 85,Number,N,TRUE,OE,q,1224,alt
CVOE_C,91,1,3,63,E 20,Letter,Y,TRUE,CV,p,2272,alt
CVOE_C,91,1,3,64,H 86,Letter,N,FALSE,CV,q,1243,alt
CVOE_C,91,1,3,65,I 21,Number,Y,FALSE,OE,q,991,alt
CVOE_C,91,1,3,66,J 29,Number,N,TRUE,OE,q,1025,alt
CVOE_C,91,1,3,67,O 13,Letter,Y,FALSE,CV,q,992,alt
CVOE_C,91,1,3,68,P 82,Letter,N,FALSE,CV,q,1867,alt
CVOE_C,91,1,3,69,S 72,Number,Y,FALSE,OE,p,1321,alt
CVOE_C,91,1,3,70,U 84,Number,N,TRUE,OE,p,1504,alt
CVOE_C,91,1,3,71,A 49,Letter,Y,FALSE,CV,p,1236,alt
CVOE_C,91,1,3,72,D 91,Letter,N,TRUE,CV,q,797,alt
CVOE_C,91,1,3,73,E 99,Number,Y,FALSE,OE,q,1425,alt
CVOE_C,91,1,3,74,H 16,Number,N,FALSE,OE,p,1259,alt
CVOE_C,91,1,3,75,I 45,Letter,Y,FALSE,CV,p,922,alt
CVOE_C,91,1,3,76,J 70,Letter,N,FALSE,CV,q,940,alt
CVOE_C,91,1,3,77,O 22,Number,Y,TRUE,OE,p,1527,alt
CVOE_C,91,1,3,78,P 41,Number,N,TRUE,OE,q,1427,alt
CVOE_C,91,1,3,79,S 93,Letter,Y,TRUE,CV,q,950,alt
CVOE_C,91,1,3,80,U 70,Letter,N,TRUE,CV,p,941,alt
CVOE_C,91,1,3,81,A 42,Number,Y,TRUE,OE,p,1538,alt
CVOE_C,91,1,3,82,D 85,Number,N,TRUE,OE,q,1078,alt
CVOE_C,91,1,3,83,E 68,Letter,Y,TRUE,CV,p,859,alt
CVOE_C,91,1,3,84,H 17,Letter,N,TRUE,CV,q,1232,alt
CVOE_C,91,1,3,85,I 70,Number,Y,TRUE,OE,p,1808,alt
CVOE_C,91,1,3,86,J 88,Number,N,FALSE,OE,p,2080,alt
CVOE_C,91,1,3,87,O 32,Letter,Y,TRUE,CV,p,1089,alt
CVOE_C,91,1,3,88,P 95,Letter,N,TRUE,CV,q,607,alt
CVOE_C,91,1,3,89,S 98,Number,Y,FALSE,OE,p,1489,alt
CVOE_C,91,1,3,90,U 37,Number,N,FALSE,OE,q,1950,alt
CVOE_C,91,1,3,91,A 56,Letter,Y,TRUE,CV,p,1153,alt
CVOE_C,91,1,3,92,D 57,Letter,N,TRUE,CV,q,1317,alt
CVOE_C,91,1,3,93,E 93,Number,Y,FALSE,OE,q,2095,alt
CVOE_C,91,1,3,94,H 27,Number,N,TRUE,OE,q,1413,alt
CVOE_C,91,1,3,95,I 35,Letter,Y,FALSE,CV,p,1181,alt
CVOE_C,91,1,3,96,J 03,Letter,N,TRUE,CV,q,1841,alt
CVOE_C,91,1,3,97,O 28,Number,Y,TRUE,OE,p,1606,alt
CVOE_C,91,1,3,98,P 59,Number,N,TRUE,OE,q,1015,alt
CVOE_C,91,1,3,99,S 77,Letter,Y,TRUE,CV,q,1688,alt
CVOE_C,91,1,3,100,U 05,Letter,N,FALSE,CV,p,1749,alt
CVOE_C,91,1,3,101,A 56,Number,Y,TRUE,OE,p,1562,alt
CVOE_C,91,1,3,102,D 01,Number,N,TRUE,OE,q,971,alt
CVOE_C,91,1,3,103,E 02,Letter,Y,TRUE,CV,p,932,alt
CVOE_C,91,1,3,104,H 68,Letter,N,FALSE,CV,q,959,alt
CVOE_C,91,1,3,105,I 05,Number,Y,FALSE,OE,q,1715,alt
CVOE_C,91,1,3,106,J 55,Number,N,TRUE,OE,q,1088,alt
CVOE_C,91,1,3,107,O 73,Letter,Y,FALSE,CV,p,1369,alt
CVOE_C,91,1,3,108,P 41,Letter,N,TRUE,CV,q,1285,alt
CVOE_C,91,1,3,109,S 92,Number,Y,FALSE,OE,p,1214,alt
CVOE_C,91,1,3,110,U 34,Number,N,TRUE,OE,p,1474,alt
CVOE_C,91,1,3,111,A 09,Letter,Y,FALSE,CV,p,1330,alt
CVOE_C,91,1,3,112,D 92,Letter,N,FALSE,CV,q,1861,alt
CVOE_C,91,1,3,113,E 48,Number,Y,TRUE,OE,p,1287,alt
CVOE_C,91,1,3,114,H 76,Number,N,FALSE,OE,p,1617,alt
CVOE_C,91,1,3,115,I 44,Letter,Y,TRUE,CV,p,2222,alt
CVOE_C,91,1,3,116,J 67,Letter,N,TRUE,CV,q,722,alt
CVOE_C,91,1,3,117,O 48,Number,Y,TRUE,OE,p,1371,alt
CVOE_C,91,1,3,118,P 22,Number,N,FALSE,OE,p,2868,alt
CVOE_C,91,1,3,119,S 86,Letter,Y,FALSE,CV,q,1594,alt
CVOE_C,91,1,3,120,U 35,Letter,N,FALSE,CV,p,1371,alt
CVOE_C,91,1,3,121,A 91,Number,Y,FALSE,OE,q,1597,alt
CVOE_C,91,1,3,122,D 78,Number,N,FALSE,OE,p,2181,alt
CVOE_C,91,1,3,123,E 91,Letter,Y,FALSE,CV,p,1417,alt
CVOE_C,91,1,3,124,H 54,Letter,N,FALSE,CV,q,1248,alt
CVOE_C,91,1,3,125,I 65,Number,Y,FALSE,OE,q,1424,alt
CVOE_C,91,1,3,126,J 52,Number,N,FALSE,OE,p,1798,alt
CVOE_C,91,1,3,127,O 19,Letter,Y,FALSE,CV,p,1488,alt
CVOE_C,91,1,3,128,P 48,Letter,N,FALSE,CV,q,1502,alt
CVOE_C,91,1,3,129,S 45,Number,Y,TRUE,OE,q,2217,alt
CVOE_C,91,1,3,130,U 26,Number,N,TRUE,OE,p,1167,alt
CVOE_C,91,1,4,1,U 38,Number,N,TRUE,OE,p,2606,shuf
CVOE_C,91,1,4,2,P 73,Number,N,TRUE,OE,q,1718,shuf
CVOE_C,91,1,4,3,U 95,Letter,Y,FALSE,CV,p,1078,shuf
CVOE_C,91,1,4,4,J 61,Number,Y,TRUE,OE,q,1199,shuf
CVOE_C,91,1,4,5,D 51,Number,N,TRUE,OE,q,1042,shuf
CVOE_C,91,1,4,6,S 28,Number,N,FALSE,OE,p,1047,shuf
CVOE_C,91,1,4,7,A 56,Letter,Y,TRUE,CV,p,770,shuf
CVOE_C,91,1,4,8,H 78,Letter,N,FALSE,CV,q,768,shuf
CVOE_C,91,1,4,9,P 92,Letter,N,FALSE,CV,q,807,shuf
CVOE_C,91,1,4,10,E 05,Number,Y,FALSE,OE,q,1781,shuf
CVOE_C,91,1,4,11,P 57,Letter,Y,TRUE,CV,q,1012,shuf
CVOE_C,91,1,4,12,D 88,Number,Y,FALSE,OE,p,1678,shuf
CVOE_C,91,1,4,13,O 89,Letter,Y,FALSE,CV,p,981,shuf
CVOE_C,91,1,4,14,U 43,Number,Y,FALSE,OE,q,1241,shuf
CVOE_C,91,1,4,15,H 10,Number,N,FALSE,OE,p,1357,shuf
CVOE_C,91,1,4,16,S 07,Letter,Y,TRUE,CV,q,790,shuf
CVOE_C,91,1,4,17,J 10,Letter,N,FALSE,CV,q,675,shuf
CVOE_C,91,1,4,18,H 54,Number,Y,FALSE,OE,p,979,shuf
CVOE_C,91,1,4,19,E 99,Number,N,FALSE,OE,q,1074,shuf
CVOE_C,91,1,4,20,J 36,Letter,Y,FALSE,CV,q,845,shuf
CVOE_C,91,1,4,21,I 94,Letter,N,TRUE,CV,p,1097,shuf
CVOE_C,91,1,4,22,A 82,Letter,N,TRUE,CV,p,751,shuf
CVOE_C,91,1,4,23,H 79,Number,Y,TRUE,OE,q,1549,shuf
CVOE_C,91,1,4,24,J 60,Number,N,FALSE,OE,p,1466,shuf
CVOE_C,91,1,4,25,S 28,Letter,Y,FALSE,CV,q,1171,shuf
CVOE_C,91,1,4,26,P 11,Number,Y,TRUE,OE,q,1228,shuf
CVOE_C,91,1,4,27,D 39,Number,N,TRUE,OE,q,1992,shuf
CVOE_C,91,1,4,28,E 90,Number,N,TRUE,OE,p,1286,shuf
CVOE_C,91,1,4,29,I 38,Number,N,TRUE,OE,p,811,shuf
CVOE_C,91,1,4,30,S 35,Letter,Y,TRUE,CV,q,956,shuf
CVOE_C,91,1,4,31,D 41,Number,Y,TRUE,OE,q,1231,shuf
CVOE_C,91,1,4,32,E 06,Number,N,TRUE,OE,p,1314,shuf
CVOE_C,91,1,4,33,A 27,Number,N,FALSE,OE,q,1335,shuf
CVOE_C,91,1,4,34,U 95,Letter,Y,FALSE,CV,p,1033,shuf
CVOE_C,91,1,4,35,A 53,Letter,N,FALSE,CV,p,1008,shuf
CVOE_C,91,1,4,36,E 43,Letter,N,FALSE,CV,p,904,shuf
CVOE_C,91,1,4,37,P 05,Number,Y,TRUE,OE,q,1089,shuf
CVOE_C,91,1,4,38,O 19,Letter,Y,FALSE,CV,p,1688,shuf
CVOE_C,91,1,4,39,I 96,Number,Y,TRUE,OE,p,1530,shuf
CVOE_C,91,1,4,40,A 88,Number,N,TRUE,OE,p,1149,shuf
CVOE_C,91,1,4,41,I 67,Number,N,FALSE,OE,q,785,shuf
CVOE_C,91,1,4,42,D 40,Number,N,FALSE,OE,p,1033,shuf
CVOE_C,91,1,4,43,P 79,Letter,Y,TRUE,CV,q,1068,shuf
CVOE_C,91,1,4,44,U 24,Number,Y,TRUE,OE,p,929,shuf
CVOE_C,91,1,4,45,P 74,Number,N,FALSE,OE,p,788,shuf
CVOE_C,91,1,4,46,E 70,Number,N,TRUE,OE,p,868,shuf
CVOE_C,91,1,4,47,S 27,Number,N,TRUE,OE,q,954,shuf
CVOE_C,91,1,4,48,E 54,Letter,Y,TRUE,CV,p,1149,shuf
CVOE_C,91,1,4,49,A 53,Letter,N,FALSE,CV,p,2028,shuf
CVOE_C,91,1,4,50,P 34,Letter,N,FALSE,CV,q,2184,shuf
CVOE_C,91,1,4,51,D 74,Number,Y,FALSE,OE,p,1430,shuf
CVOE_C,91,1,4,52,A 03,Letter,Y,FALSE,CV,p,993,shuf
CVOE_C,91,1,4,53,E 24,Number,Y,TRUE,OE,p,896,shuf
CVOE_C,91,1,4,54,I 58,Letter,Y,TRUE,CV,p,889,shuf
CVOE_C,91,1,4,55,D 77,Number,Y,TRUE,OE,q,1213,shuf
CVOE_C,91,1,4,56,S 75,Number,N,TRUE,OE,q,1287,shuf
CVOE_C,91,1,4,57,I 20,Letter,Y,TRUE,CV,p,1030,shuf
CVOE_C,91,1,4,58,J 52,Letter,N,FALSE,CV,q,826,shuf
CVOE_C,91,1,4,59,A 38,Number,Y,TRUE,OE,p,1689,shuf
CVOE_C,91,1,4,60,I 60,Letter,Y,TRUE,CV,p,1315,shuf
CVOE_C,91,1,4,61,S 51,Number,Y,TRUE,OE,q,1220,shuf
CVOE_C,91,1,4,62,D 63,Letter,Y,TRUE,CV,q,1685,shuf
CVOE_C,91,1,4,63,U 27,Letter,N,FALSE,CV,p,1078,shuf
CVOE_C,91,1,4,64,J 77,Letter,N,TRUE,CV,q,730,shuf
CVOE_C,91,1,4,65,O 15,Number,Y,FALSE,OE,p,1058,shuf
CVOE_C,91,1,4,66,J 20,Letter,Y,FALSE,CV,q,1094,shuf
CVOE_C,91,1,4,67,U 97,Number,Y,FALSE,OE,q,1585,shuf
CVOE_C,91,1,4,68,H 03,Number,N,TRUE,OE,q,1090,shuf
CVOE_C,91,1,4,69,O 04,Letter,Y,TRUE,CV,p,1304,shuf
CVOE_C,91,1,4,70,E 10,Letter,N,TRUE,CV,p,1558,shuf
CVOE_C,91,1,4,71,I 52,Letter,N,TRUE,CV,p,863,shuf
CVOE_C,91,1,4,72,H 81,Number,Y,TRUE,OE,q,1026,shuf
CVOE_C,91,1,4,73,I 41,Number,N,FALSE,OE,q,1837,shuf
CVOE_C,91,1,4,74,U 19,Letter,Y,FALSE,CV,p,1412,shuf
CVOE_C,91,1,4,75,O 17,Number,Y,FALSE,OE,q,1541,shuf
CVOE_C,91,1,4,76,A 10,Number,N,TRUE,OE,p,1321,shuf
CVOE_C,91,1,4,77,P 93,Letter,Y,TRUE,CV,q,934,shuf
CVOE_C,91,1,4,78,E 59,Letter,N,FALSE,CV,q,1425,shuf
CVOE_C,91,1,4,79,O 53,Letter,N,FALSE,CV,p,1223,shuf
CVOE_C,91,1,4,80,A 96,Letter,N,TRUE,CV,p,1030,shuf
CVOE_C,91,1,4,81,H 36,Letter,Y,FALSE,CV,q,1592,shuf
CVOE_C,91,1,4,82,A 63,Letter,N,FALSE,CV,p,1368,shuf
CVOE_C,91,1,4,83,I 38,Letter,N,TRUE,CV,p,1023,shuf
CVOE_C,91,1,4,84,O 51,Number,Y,FALSE,OE,q,1714,shuf
CVOE_C,91,1,4,85,J 26,Number,N,FALSE,OE,p,1203,shuf
CVOE_C,91,1,4,86,S 34,Letter,Y,FALSE,CV,q,1158,shuf
CVOE_C,91,1,4,87,U 85,Number,Y,FALSE,OE,q,993,shuf
CVOE_C,91,1,4,88,J 77,Number,N,TRUE,OE,q,908,shuf
CVOE_C,91,1,4,89,I 73,Letter,Y,FALSE,CV,p,899,shuf
CVOE_C,91,1,4,90,H 46,Number,Y,FALSE,OE,p,908,shuf
CVOE_C,91,1,4,91,D 04,Number,N,FALSE,OE,p,790,shuf
CVOE_C,91,1,4,92,P 72,Letter,Y,FALSE,CV,q,794,shuf
CVOE_C,91,1,4,93,D 99,Number,Y,TRUE,OE,q,1092,shuf
CVOE_C,91,1,4,94,U 25,Letter,Y,FALSE,CV,p,980,shuf
CVOE_C,91,1,4,95,O 32,Letter,N,TRUE,CV,p,837,shuf
CVOE_C,91,1,4,96,E 80,Letter,N,TRUE,CV,p,1806,shuf
CVOE_C,91,1,4,97,O 84,Number,Y,TRUE,OE,p,1416,shuf
CVOE_C,91,1,4,98,A 78,Number,N,TRUE,OE,p,3560,shuf
CVOE_C,91,1,4,99,S 05,Number,N,TRUE,OE,q,1459,shuf
CVOE_C,91,1,4,100,U 35,Letter,Y,FALSE,CV,p,1027,shuf
CVOE_C,91,1,4,101,H 14,Letter,N,FALSE,CV,q,917,shuf
CVOE_C,91,1,4,102,U 15,Number,Y,FALSE,OE,q,2265,shuf
CVOE_C,91,1,4,103,E 36,Letter,Y,TRUE,CV,p,975,shuf
CVOE_C,91,1,4,104,P 70,Letter,N,FALSE,CV,q,1774,shuf
CVOE_C,91,1,4,105,O 44,Number,Y,TRUE,OE,p,1703,shuf
CVOE_C,91,1,4,106,S 41,Letter,Y,TRUE,CV,q,1909,shuf
CVOE_C,91,1,4,107,D 83,Letter,N,TRUE,CV,q,1766,shuf
CVOE_C,91,1,4,108,J 39,Letter,N,TRUE,CV,q,644,shuf
CVOE_C,91,1,4,109,S 22,Number,Y,FALSE,OE,p,901,shuf
CVOE_C,91,1,4,110,D 89,Letter,Y,TRUE,CV,q,1342,shuf
CVOE_C,91,1,4,111,P 87,Letter,N,TRUE,CV,q,1016,shuf
CVOE_C,91,1,4,112,H 42,Letter,N,FALSE,CV,q,902,shuf
CVOE_C,91,1,4,113,S 49,Letter,N,TRUE,CV,q,2449,shuf
CVOE_C,91,1,4,114,J 20,Number,Y,FALSE,OE,p,1104,shuf
CVOE_C,91,1,4,115,O 19,Letter,Y,FALSE,CV,p,2086,shuf
CVOE_C,91,1,4,116,H 50,Letter,N,FALSE,CV,q,850,shuf
CVOE_C,91,1,4,117,I 68,Number,Y,TRUE,OE,p,1009,shuf
CVOE_C,91,1,4,118,J 72,Number,N,FALSE,OE,p,735,shuf
CVOE_C,91,1,4,119,O 21,Number,N,FALSE,OE,q,859,shuf
CVOE_C,91,1,4,120,H 22,Number,N,FALSE,OE,p,1149,shuf
CVOE_D,88,1,1,11,A 71,,,FALSE,CV,p,951,cv
CVOE_D,88,1,1,12,I 66,,,TRUE,CV,p,596,cv
CVOE_D,88,1,1,13,S 30,,,FALSE,CV,q,503,cv
CVOE_D,88,1,1,14,D 20,,,FALSE,CV,q,494,cv
CVOE_D,88,1,1,15,I 31,,,FALSE,CV,p,430,cv
CVOE_D,88,1,1,16,P 16,,,FALSE,CV,q,432,cv
CVOE_D,88,1,1,17,A 49,,,FALSE,CV,p,386,cv
CVOE_D,88,1,1,18,O 64,,,TRUE,CV,p,726,cv
CVOE_D,88,1,1,19,D 02,,,FALSE,CV,q,548,cv
CVOE_D,88,1,1,20,P 81,,,TRUE,CV,q,649,cv
CVOE_D,88,1,1,21,J 58,,,FALSE,CV,q,531,cv
CVOE_D,88,1,1,22,A 22,,,TRUE,CV,p,489,cv
CVOE_D,88,1,1,23,J 72,,,FALSE,CV,q,648,cv
CVOE_D,88,1,1,24,P 91,,,TRUE,CV,q,850,cv
CVOE_D,88,1,1,25,E 19,,,FALSE,CV,p,459,cv
CVOE_D,88,1,1,26,I 30,,,TRUE,CV,p,516,cv
CVOE_D,88,1,1,27,D 91,,,TRUE,CV,q,451,cv
CVOE_D,88,1,1,28,O 48,,,TRUE,CV,p,428,cv
CVOE_D,88,1,1,29,A 89,,,FALSE,CV,p,558,cv
CVOE_D,88,1,1,30,U 11,,,FALSE,CV,p,523,cv
CVOE_D,88,1,1,31,I 76,,,TRUE,CV,p,482,cv
CVOE_D,88,1,1,32,U 89,,,FALSE,CV,p,450,cv
CVOE_D,88,1,1,33,D 63,,,TRUE,CV,q,499,cv
CVOE_D,88,1,1,34,H 70,,,FALSE,CV,q,466,cv
CVOE_D,88,1,1,35,D 48,,,FALSE,CV,q,603,cv
CVOE_D,88,1,1,36,P 56,,,FALSE,CV,q,454,cv
CVOE_D,88,1,1,37,O 77,,,FALSE,CV,p,647,cv
CVOE_D,88,1,1,38,P 42,,,FALSE,CV,q,705,cv
CVOE_D,88,1,1,39,H 22,,,FALSE,CV,q,1032,cv
CVOE_D,88,1,1,40,E 42,,,TRUE,CV,p,490,cv
CVOE_D,88,1,1,41,J 28,,,FALSE,CV,q,642,cv
CVOE_D,88,1,1,42,E 95,,,FALSE,CV,p,540,cv
CVOE_D,88,1,1,43,S 63,,,TRUE,CV,q,594,cv
CVOE_D,88,1,1,44,H 50,,,FALSE,CV,q,725,cv
CVOE_D,88,1,1,45,S 33,,,TRUE,CV,q,459,cv
CVOE_D,88,1,1,46,P 57,,,TRUE,CV,q,492,cv
CVOE_D,88,1,1,47,E 23,,,FALSE,CV,p,564,cv
CVOE_D,88,1,1,48,S 61,,,TRUE,CV,q,1441,cv
CVOE_D,88,1,1,49,U 67,,,FALSE,CV,p,858,cv
CVOE_D,88,1,1,50,H 32,,,FALSE,CV,q,692,cv
CVOE_D,88,1,1,51,U 50,,,TRUE,CV,p,724,cv
CVOE_D,88,1,1,52,O 49,,,FALSE,CV,p,898,cv
CVOE_D,88,1,1,53,U 32,,,TRUE,CV,p,825,cv
CVOE_D,88,1,1,54,J 78,,,FALSE,CV,q,700,cv
CVOE_D,88,1,1,55,S 54,,,FALSE,CV,q,587,cv
CVOE_D,88,1,1,56,J 27,,,TRUE,CV,q,655,cv
CVOE_D,88,1,1,57,S 06,,,FALSE,CV,q,632,cv
CVOE_D,88,1,1,58,D 67,,,TRUE,CV,q,618,cv
CVOE_D,88,1,1,59,A 79,,,FALSE,CV,p,653,cv
CVOE_D,88,1,1,60,S 52,,,FALSE,CV,q,1030,cv
CVOE_D,88,1,1,61,U 16,,,TRUE,CV,p,560,cv
CVOE_D,88,1,1,62,O 82,,,TRUE,CV,p,653,cv
CVOE_D,88,1,1,63,H 87,,,TRUE,CV,q,734,cv
CVOE_D,88,1,1,64,I 32,,,TRUE,CV,p,468,cv
CVOE_D,88,1,1,65,U 37,,,FALSE,CV,p,484,cv
CVOE_D,88,1,1,66,I 42,,,TRUE,CV,p,540,cv
CVOE_D,88,1,1,67,D 65,,,TRUE,CV,q,594,cv
CVOE_D,88,1,1,68,U 77,,,FALSE,CV,p,486,cv
CVOE_D,88,1,1,69,E 12,,,TRUE,CV,p,453,cv
CVOE_D,88,1,1,70,I 60,,,TRUE,CV,p,503,cv
CVOE_D,88,1,1,71,J 36,,,FALSE,CV,q,438,cv
CVOE_D,88,1,1,72,H 75,,,TRUE,CV,q,432,cv
CVOE_D,88,1,1,73,I 50,,,TRUE,CV,p,586,cv
CVOE_D,88,1,1,74,E 99,,,FALSE,CV,p,510,cv
CVOE_D,88,1,1,75,A 86,,,TRUE,CV,p,420,cv
CVOE_D,88,1,1,76,U 48,,,TRUE,CV,p,423,cv
CVOE_D,88,1,1,77,E 01,,,FALSE,CV,p,426,cv
CVOE_D,88,1,1,78,A 78,,,TRUE,CV,p,412,cv
CVOE_D,88,1,1,79,P 60,,,FALSE,CV,q,479,cv
CVOE_D,88,1,1,80,E 43,,,FALSE,CV,p,463,cv
CVOE_D,88,1,1,81,D 69,,,TRUE,CV,q,487,cv
CVOE_D,88,1,1,82,H 11,,,TRUE,CV,q,599,cv
CVOE_D,88,1,1,83,P 43,,,TRUE,CV,q,555,cv
CVOE_D,88,1,1,84,O 67,,,FALSE,CV,p,912,cv
CVOE_D,88,1,1,85,S 91,,,FALSE,CV,q,1014,cv
CVOE_D,88,1,1,86,J 68,,,TRUE,CV,q,537,cv
CVOE_D,88,1,1,87,S 47,,,FALSE,CV,q,431,cv
CVOE_D,88,1,1,88,I 81,,,TRUE,CV,p,553,cv
CVOE_D,88,1,1,89,J 39,,,FALSE,CV,q,502,cv
CVOE_D,88,1,1,90,A 11,,,TRUE,CV,p,485,cv
CVOE_D,88,1,1,91,O 76,,,FALSE,CV,p,501,cv
CVOE_D,88,1,1,92,A 62,,,FALSE,CV,p,436,cv
CVOE_D,88,1,1,93,O 27,,,TRUE,CV,p,486,cv
CVOE_D,88,1,1,94,E 66,,,FALSE,CV,p,462,cv
CVOE_D,88,1,1,95,J 62,,,TRUE,CV,q,487,cv
CVOE_D,88,1,1,96,H 72,,,TRUE,CV,q,1223,cv
CVOE_D,88,1,1,97,E 49,,,TRUE,CV,p,625,cv
CVOE_D,88,1,1,98,D 52,,,TRUE,CV,q,452,cv
CVOE_D,88,1,1,99,H 62,,,TRUE,CV,q,421,cv
CVOE_D,88,1,1,100,I 11,,,TRUE,CV,p,696,cv
CVOE_D,88,1,1,101,A 98,,,FALSE,CV,p,535,cv
CVOE_D,88,1,1,102,H 29,,,FALSE,CV,q,733,cv
CVOE_D,88,1,1,103,E 83,,,TRUE,CV,p,811,cv
CVOE_D,88,1,1,104,D 43,,,FALSE,CV,q,814,cv
CVOE_D,88,1,1,105,P 45,,,TRUE,CV,q,1120,cv
CVOE_D,88,1,1,106,J 17,,,TRUE,CV,q,775,cv
CVOE_D,88,1,2,11,A 24,,,TRUE,OE,p,1136,oe
CVOE_D,88,1,2,12,O 83,,,FALSE,OE,q,806,oe
CVOE_D,88,1,2,13,H 55,,,TRUE,OE,q,658,oe
CVOE_D,88,1,2,14,P 10,,,FALSE,OE,p,1195,oe
CVOE_D,88,1,2,15,D 30,,,FALSE,OE,p,542,oe
CVOE_D,88,1,2,16,U 62,,,TRUE,OE,p,556,oe
CVOE_D,88,1,2,17,P 95,,,TRUE,OE,q,513,oe
CVOE_D,88,1,2,18,U 06,,,TRUE,OE,p,840,oe
CVOE_D,88,1,2,19,E 75,,,FALSE,OE,q,634,oe
CVOE_D,88,1,2,20,I 67,,,FALSE,OE,q,1604,oe
CVOE_D,88,1,2,21,S 13,,,TRUE,OE,q,703,oe
CVOE_D,88,1,2,22,P 78,,,FALSE,OE,p,750,oe
CVOE_D,88,1,2,23,I 15,,,FALSE,OE,q,611,oe
CVOE_D,88,1,2,24,D 27,,,TRUE,OE,q,582,oe
CVOE_D,88,1,2,25,O 94,,,TRUE,OE,p,930,oe
CVOE_D,88,1,2,26,A 65,,,FALSE,OE,q,1400,oe
CVOE_D,88,1,2,27,I 42,,,TRUE,OE,p,587,oe
CVOE_D,88,1,2,28,E 25,,,FALSE,OE,q,703,oe
CVOE_D,88,1,2,29,H 49,,,TRUE,OE,q,982,oe
CVOE_D,88,1,2,30,S 18,,,FALSE,OE,p,802,oe
CVOE_D,88,1,2,31,H 51,,,TRUE,OE,q,1037,oe
CVOE_D,88,1,2,32,U 14,,,TRUE,OE,p,983,oe
CVOE_D,88,1,2,33,E 02,,,TRUE,OE,p,611,oe
CVOE_D,88,1,2,34,J 26,,,FALSE,OE,p,678,oe
CVOE_D,88,1,2,35,D 24,,,FALSE,OE,p,470,oe
CVOE_D,88,1,2,36,O 50,,,TRUE,OE,p,878,oe
CVOE_D,88,1,2,37,U 16,,,TRUE,OE,p,814,oe
CVOE_D,88,1,2,38,O 15,,,FALSE,OE,q,697,oe
CVOE_D,88,1,2,39,D 32,,,FALSE,OE,p,528,oe
CVOE_D,88,1,2,40,S 67,,,TRUE,OE,q,838,oe
CVOE_D,88,1,2,41,J 74,,,FALSE,OE,p,640,oe
CVOE_D,88,1,2,42,D 92,,,FALSE,OE,p,666,oe
CVOE_D,88,1,2,43,A 65,,,FALSE,OE,q,746,oe
CVOE_D,88,1,2,44,I 87,,,FALSE,OE,p,752,oe
CVOE_D,88,1,2,45,H 61,,,TRUE,OE,q,813,oe
CVOE_D,88,1,2,46,E 59,,,FALSE,OE,q,2727,oe
CVOE_D,88,1,2,47,I 33,,,FALSE,OE,q,821,oe
CVOE_D,88,1,2,48,O 90,,,TRUE,OE,p,808,oe
CVOE_D,88,1,2,49,U 51,,,FALSE,OE,q,1083,oe
CVOE_D,88,1,2,50,A 10,,,TRUE,OE,p,787,oe
CVOE_D,88,1,2,51,E 50,,,TRUE,OE,p,647,oe
CVOE_D,88,1,2,52,D 92,,,FALSE,OE,p,776,oe
CVOE_D,88,1,2,53,E 60,,,TRUE,OE,p,620,oe
CVOE_D,88,1,2,54,A 95,,,FALSE,OE,q,998,oe
CVOE_D,88,1,2,55,E 64,,,TRUE,OE,p,594,oe
CVOE_D,88,1,2,56,P 20,,,FALSE,OE,q,653,oe
CVOE_D,88,1,2,57,S 06,,,FALSE,OE,p,3150,oe
CVOE_D,88,1,2,58,P 64,,,FALSE,OE,p,803,oe
CVOE_D,88,1,2,59,U 70,,,TRUE,OE,p,711,oe
CVOE_D,88,1,2,60,S 16,,,FALSE,OE,p,653,oe
CVOE_D,88,1,2,61,E 35,,,FALSE,OE,q,710,oe
CVOE_D,88,1,2,62,I 93,,,FALSE,OE,q,853,oe
CVOE_D,88,1,2,63,D 63,,,TRUE,OE,q,622,oe
CVOE_D,88,1,2,64,U 89,,,FALSE,OE,q,833,oe
CVOE_D,88,1,2,65,E 91,,,FALSE,OE,q,827,oe
CVOE_D,88,1,2,66,A 12,,,TRUE,OE,p,589,oe
CVOE_D,88,1,2,67,P 56,,,FALSE,OE,p,625,oe
CVOE_D,88,1,2,68,S 65,,,TRUE,OE,q,635,oe
CVOE_D,88,1,2,69,P 07,,,TRUE,OE,p,493,oe
CVOE_D,88,1,2,70,I 77,,,FALSE,OE,q,956,oe
CVOE_D,88,1,2,71,J 19,,,TRUE,OE,q,626,oe
CVOE_D,88,1,2,72,O 59,,,FALSE,OE,q,612,oe
CVOE_D,88,1,2,73,J 15,,,TRUE,OE,q,1071,oe
CVOE_D,88,1,2,74,I 89,,,FALSE,OE,q,695,oe
CVOE_D,88,1,2,75,O 97,,,FALSE,OE,q,614,oe
CVOE_D,88,1,2,76,A 92,,,TRUE,OE,p,625,oe
CVOE_D,88,1,2,77,J 90,,,FALSE,OE,p,636,oe
CVOE_D,88,1,2,78,H 65,,,TRUE,OE,q,726,oe
CVOE_D,88,1,2,79,H 17,,,TRUE,OE,q,804,oe
CVOE_D,88,1,2,80,S 26,,,FALSE,OE,p,759,oe
CVOE_D,88,1,2,81,D 56,,,FALSE,OE,p,836,oe
CVOE_D,88,1,2,82,I 91,,,FALSE,OE,q,718,oe
CVOE_D,88,1,2,83,J 11,,,TRUE,OE,q,700,oe
CVOE_D,88,1,2,84,O 28,,,TRUE,OE,p,716,oe
CVOE_D,88,1,2,85,H 29,,,TRUE,OE,q,754,oe
CVOE_D,88,1,2,86,J 25,,,TRUE,OE,q,1200,oe
CVOE_D,88,1,2,87,A 73,,,FALSE,OE,q,899,oe
CVOE_D,88,1,2,88,J 63,,,TRUE,OE,q,698,oe
CVOE_D,88,1,2,89,U 84,,,TRUE,OE,p,1313,oe
CVOE_D,88,1,2,90,A 58,,,TRUE,OE,p,696,oe
CVOE_D,88,1,2,91,S 43,,,TRUE,OE,q,1623,oe
CVOE_D,88,1,2,92,H 54,,,FALSE,OE,p,834,oe
CVOE_D,88,1,2,93,D 4,,,FALSE,OE,p,851,oe
CVOE_D,88,1,2,94,J 75,,,TRUE,OE,q,845,oe
CVOE_D,88,1,2,95,D 19,,,TRUE,OE,q,758,oe
CVOE_D,88,1,2,96,J 38,,,FALSE,OE,p,1603,oe
CVOE_D,88,1,2,97,I 56,,,TRUE,OE,p,646,oe
CVOE_D,88,1,2,98,P 87,,,TRUE,OE,q,664,oe
CVOE_D,88,1,2,99,O 80,,,TRUE,OE,p,656,oe
CVOE_D,88,1,2,100,U 60,,,TRUE,OE,p,489,oe
CVOE_D,88,1,2,101,P 48,,,FALSE,OE,p,545,oe
CVOE_D,88,1,2,102,H 64,,,FALSE,OE,p,607,oe
CVOE_D,88,1,2,103,A 13,,,FALSE,OE,q,914,oe
CVOE_D,88,1,2,104,H 68,,,FALSE,OE,p,488,oe
CVOE_D,88,1,2,105,E 16,,,TRUE,OE,p,456,oe
CVOE_D,88,1,2,106,S 71,,,TRUE,OE,q,682,oe
CVOE_D,88,1,3,11,U 38,Number,N,TRUE,OE,p,2524,shuf
CVOE_D,88,1,3,12,P 73,Number,N,TRUE,OE,q,2458,shuf
CVOE_D,88,1,3,13,U 95,Letter,Y,FALSE,CV,p,3579,shuf
CVOE_D,88,1,3,14,J 61,Number,Y,TRUE,OE,q,1679,shuf
CVOE_D,88,1,3,15,D 51,Number,N,TRUE,OE,q,1303,shuf
CVOE_D,88,1,3,16,S 28,Number,N,FALSE,OE,p,1094,shuf
CVOE_D,88,1,3,17,A 56,Letter,Y,TRUE,CV,p,1733,shuf
CVOE_D,88,1,3,18,H 78,Letter,N,FALSE,CV,q,1563,shuf
CVOE_D,88,1,3,19,P 92,Letter,N,FALSE,CV,q,3296,shuf
CVOE_D,88,1,3,20,E 05,Number,Y,FALSE,OE,q,2119,shuf
CVOE_D,88,1,3,21,P 57,Letter,Y,TRUE,CV,q,3653,shuf
CVOE_D,88,1,3,22,D 88,Number,Y,FALSE,OE,p,3094,shuf
CVOE_D,88,1,3,23,O 89,Letter,Y,FALSE,CV,p,2077,shuf
CVOE_D,88,1,3,24,U 43,Number,Y,FALSE,OE,q,1893,shuf
CVOE_D,88,1,3,25,H 10,Number,N,FALSE,OE,p,1668,shuf
CVOE_D,88,1,3,26,S 07,Letter,Y,TRUE,CV,q,1845,shuf
CVOE_D,88,1,3,27,J 10,Letter,N,FALSE,CV,q,1454,shuf
CVOE_D,88,1,3,28,H 54,Number,Y,FALSE,OE,p,1575,shuf
CVOE_D,88,1,3,29,E 99,Number,N,FALSE,OE,q,1924,shuf
CVOE_D,88,1,3,30,J 36,Letter,Y,FALSE,CV,q,1714,shuf
CVOE_D,88,1,3,31,I 94,Letter,N,TRUE,CV,q,2433,shuf
CVOE_D,88,1,3,32,A 82,Letter,N,TRUE,CV,p,1443,shuf
CVOE_D,88,1,3,33,H 79,Number,Y,TRUE,OE,q,3156,shuf
CVOE_D,88,1,3,34,J 60,Number,N,FALSE,OE,p,1153,shuf
CVOE_D,88,1,3,35,S 28,Letter,Y,FALSE,CV,q,1150,shuf
CVOE_D,88,1,3,36,P 11,Number,Y,TRUE,OE,q,2795,shuf
CVOE_D,88,1,3,37,D 39,Number,N,TRUE,OE,q,3158,shuf
CVOE_D,88,1,3,38,E 90,Number,N,TRUE,OE,p,1675,shuf
CVOE_D,88,1,3,39,I 38,Number,N,TRUE,OE,p,1763,shuf
CVOE_D,88,1,3,40,S 35,Letter,Y,TRUE,CV,q,1024,shuf
CVOE_D,88,1,3,41,D 41,Number,Y,TRUE,OE,q,1610,shuf
CVOE_D,88,1,3,42,E 06,Number,N,TRUE,OE,p,1149,shuf
CVOE_D,88,1,3,43,A 27,Number,N,FALSE,OE,q,1114,shuf
CVOE_D,88,1,3,44,U 95,Letter,Y,FALSE,CV,p,1657,shuf
CVOE_D,88,1,3,45,A 53,Letter,N,FALSE,CV,p,1315,shuf
CVOE_D,88,1,3,46,E 43,Letter,N,FALSE,CV,p,1368,shuf
CVOE_D,88,1,3,47,P 05,Number,Y,TRUE,OE,q,1629,shuf
CVOE_D,88,1,3,48,O 19,Letter,Y,FALSE,CV,p,1743,shuf
CVOE_D,88,1,3,49,I 96,Number,Y,TRUE,OE,p,1956,shuf
CVOE_D,88,1,3,50,A 88,Number,N,TRUE,OE,p,1737,shuf
CVOE_D,88,1,3,51,I 67,Number,N,FALSE,OE,q,1935,shuf
CVOE_D,88,1,3,52,D 40,Number,N,FALSE,OE,p,1902,shuf
CVOE_D,88,1,3,53,P 79,Letter,Y,TRUE,CV,q,2124,shuf
CVOE_D,88,1,3,54,U 24,Number,Y,TRUE,OE,p,3626,shuf
CVOE_D,88,1,3,55,P 74,Number,N,FALSE,OE,p,925,shuf
CVOE_D,88,1,3,56,E 70,Number,N,TRUE,OE,p,739,shuf
CVOE_D,88,1,3,57,S 27,Number,N,TRUE,OE,q,841,shuf
CVOE_D,88,1,3,58,E 54,Letter,Y,TRUE,CV,p,1179,shuf
CVOE_D,88,1,3,59,A 53,Letter,N,FALSE,CV,p,1014,shuf
CVOE_D,88,1,3,60,P 34,Letter,N,FALSE,CV,q,809,shuf
CVOE_D,88,1,3,61,D 74,Number,Y,FALSE,OE,p,1492,shuf
CVOE_D,88,1,3,62,A 03,Letter,Y,FALSE,CV,p,2267,shuf
CVOE_D,88,1,3,63,E 24,Number,Y,TRUE,OE,p,3117,shuf
CVOE_D,88,1,3,64,I 58,Letter,Y,TRUE,CV,p,2491,shuf
CVOE_D,88,1,3,65,D 77,Number,Y,TRUE,OE,q,1602,shuf
CVOE_D,88,1,3,66,S 75,Number,N,TRUE,OE,q,2157,shuf
CVOE_D,88,1,3,67,I 20,Letter,Y,TRUE,CV,p,4691,shuf
CVOE_D,88,1,3,68,J 52,Letter,N,FALSE,CV,q,4275,shuf
CVOE_D,88,1,3,69,A 38,Number,Y,TRUE,OE,p,2675,shuf
CVOE_D,88,1,3,70,I 60,Letter,Y,TRUE,CV,p,4180,shuf
CVOE_D,88,1,3,71,S 51,Number,Y,TRUE,OE,q,1928,shuf
CVOE_D,88,1,3,72,D 63,Letter,Y,TRUE,CV,q,1661,shuf
CVOE_D,88,1,3,73,U 27,Letter,N,FALSE,CV,p,1374,shuf
CVOE_D,88,1,3,74,J 77,Letter,N,TRUE,CV,q,1010,shuf
CVOE_D,88,1,3,75,O 15,Number,Y,FALSE,OE,q,1821,shuf
CVOE_D,88,1,3,76,J 20,Letter,Y,FALSE,CV,q,1512,shuf
CVOE_D,88,1,3,77,U 97,Number,Y,FALSE,OE,q,1558,shuf
CVOE_D,88,1,3,78,H 03,Number,N,TRUE,OE,q,1451,shuf
CVOE_D,88,1,3,79,O 04,Letter,Y,TRUE,CV,p,1724,shuf
CVOE_D,88,1,3,80,E 10,Letter,N,TRUE,CV,p,1139,shuf
CVOE_D,88,1,3,81,I 52,Letter,N,TRUE,CV,p,713,shuf
CVOE_D,88,1,3,82,H 81,Number,Y,TRUE,OE,q,2247,shuf
CVOE_D,88,1,3,83,I 41,Number,N,FALSE,OE,q,1577,shuf
CVOE_D,88,1,3,84,U 19,Letter,Y,FALSE,CV,p,1220,shuf
CVOE_D,88,1,3,85,O 17,Number,Y,FALSE,OE,q,1567,shuf
CVOE_D,88,1,3,86,A 10,Number,N,TRUE,OE,p,4547,shuf
CVOE_D,88,1,3,87,P 93,Letter,Y,TRUE,CV,q,4696,shuf
CVOE_D,88,1,3,88,E 59,Letter,N,FALSE,CV,p,1111,shuf
CVOE_D,88,1,3,89,O 53,Letter,N,FALSE,CV,p,630,shuf
CVOE_D,88,1,3,90,A 96,Letter,N,TRUE,CV,p,656,shuf
CVOE_D,88,1,3,91,H 36,Letter,Y,FALSE,CV,p,553,shuf
CVOE_D,88,1,3,92,A 63,Letter,N,FALSE,CV,p,662,shuf
CVOE_D,88,1,3,93,I 38,Letter,N,TRUE,CV,p,663,shuf
CVOE_D,88,1,3,94,O 51,Number,Y,FALSE,OE,q,1696,shuf
CVOE_D,88,1,3,95,J 26,Number,N,FALSE,OE,p,7247,shuf
CVOE_D,88,1,3,96,S 34,Letter,Y,FALSE,CV,q,1560,shuf
CVOE_D,88,1,3,97,U 85,Number,Y,FALSE,OE,q,1828,shuf
CVOE_D,88,1,3,98,J 77,Number,N,TRUE,OE,q,1406,shuf
CVOE_D,88,1,3,99,I 73,Letter,Y,FALSE,CV,q,673,shuf
CVOE_D,88,1,3,100,H 46,Number,Y,FALSE,OE,p,1666,shuf
CVOE_D,88,1,3,101,D 04,Number,N,FALSE,OE,p,1074,shuf
CVOE_D,88,1,3,102,P 72,Letter,Y,FALSE,CV,q,1427,shuf
CVOE_D,88,1,3,103,D 99,Number,Y,TRUE,OE,q,1565,shuf
CVOE_D,88,1,3,104,U 25,Letter,Y,FALSE,CV,p,1385,shuf
CVOE_D,88,1,3,105,O 32,Letter,N,TRUE,CV,p,877,shuf
CVOE_D,88,1,3,106,E 80,Letter,N,TRUE,CV,p,3269,shuf
CVOE_D,88,1,3,107,O 84,Number,Y,TRUE,OE,p,1821,shuf
CVOE_D,88,1,3,108,A 78,Number,N,TRUE,OE,p,808,shuf
CVOE_D,88,1,3,109,S 05,Number,N,TRUE,OE,q,867,shuf
CVOE_D,88,1,3,110,U 35,Letter,Y,FALSE,CV,p,1732,shuf
CVOE_D,88,1,3,111,H 14,Letter,N,FALSE,CV,q,1162,shuf
CVOE_D,88,1,3,112,U 15,Number,Y,FALSE,OE,p,814,shuf
CVOE_D,88,1,3,113,E 36,Letter,Y,TRUE,CV,p,2945,shuf
CVOE_D,88,1,3,114,P 70,Letter,N,FALSE,CV,q,1158,shuf
CVOE_D,88,1,3,115,O 44,Number,Y,TRUE,OE,q,1323,shuf
CVOE_D,88,1,3,116,S 41,Letter,Y,TRUE,CV,q,2713,shuf
CVOE_D,88,1,3,117,D 83,Letter,N,TRUE,CV,q,3848,shuf
CVOE_D,88,1,3,118,J 39,Letter,N,TRUE,CV,q,961,shuf
CVOE_D,88,1,3,119,S 22,Number,Y,FALSE,OE,p,2406,shuf
CVOE_D,88,1,3,120,D 89,Letter,Y,TRUE,CV,q,1657,shuf
CVOE_D,88,1,3,121,P 87,Letter,N,TRUE,CV,q,1346,shuf
CVOE_D,88,1,3,122,H 42,Letter,N,FALSE,CV,q,767,shuf
CVOE_D,88,1,3,123,S 49,Letter,N,TRUE,CV,q,1116,shuf
CVOE_D,88,1,3,124,J 20,Number,Y,FALSE,OE,p,1466,shuf
CVOE_D,88,1,3,125,O 19,Letter,Y,FALSE,CV,q,1315,shuf
CVOE_D,88,1,3,126,H 50,Letter,N,FALSE,CV,q,857,shuf
CVOE_D,88,1,3,127,I 68,Number,Y,TRUE,OE,p,1530,shuf
CVOE_D,88,1,3,128,J 72,Number,N,FALSE,OE,p,2304,shuf
CVOE_D,88,1,3,129,O 21,Number,N,FALSE,OE,q,1439,shuf
CVOE_D,88,1,3,130,H 22,Number,N,FALSE,OE,p,929,shuf
CVOE_D,88,1,4,1,A 44,Letter,N,TRUE,CV,p,1967,alt
CVOE_D,88,1,4,2,D 94,Letter,N,FALSE,CV,q,1628,alt
CVOE_D,88,1,4,3,E 75,Number,Y,FALSE,OE,q,1398,alt
CVOE_D,88,1,4,4,H 81,Number,N,TRUE,OE,q,2241,alt
CVOE_D,88,1,4,5,I 64,Letter,Y,TRUE,CV,p,1931,alt
CVOE_D,88,1,4,6,J 54,Letter,N,FALSE,CV,q,1457,alt
CVOE_D,88,1,4,7,O 23,Number,Y,FALSE,OE,q,2682,alt
CVOE_D,88,1,4,8,P 05,Number,N,TRUE,OE,q,3746,alt
CVOE_D,88,1,4,9,S 34,Letter,Y,FALSE,CV,q,2271,alt
CVOE_D,88,1,4,10,U 88,Letter,N,TRUE,CV,p,1103,alt
CVOE_D,88,1,4,11,A 70,Number,Y,TRUE,OE,p,1678,alt
CVOE_D,88,1,4,12,D 12,Number,N,FALSE,OE,q,2014,alt
CVOE_D,88,1,4,13,E 79,Letter,Y,FALSE,CV,p,3353,alt
CVOE_D,88,1,4,14,H 72,Letter,N,FALSE,CV,q,1382,alt
CVOE_D,88,1,4,15,I 41,Number,Y,FALSE,OE,q,1994,alt
CVOE_D,88,1,4,16,J 63,Number,N,TRUE,OE,q,1373,alt
CVOE_D,88,1,4,17,O 03,Letter,Y,FALSE,CV,p,1417,alt
CVOE_D,88,1,4,18,P 75,Letter,N,TRUE,CV,q,1036,alt
CVOE_D,88,1,4,19,S 61,Number,Y,TRUE,OE,q,1190,alt
CVOE_D,88,1,4,20,U 28,Number,N,TRUE,OE,p,1058,alt
CVOE_D,88,1,4,21,A 21,Letter,Y,FALSE,CV,p,1235,alt
CVOE_D,88,1,4,22,D 18,Letter,N,FALSE,CV,q,869,alt
CVOE_D,88,1,4,23,E 35,Number,Y,FALSE,OE,q,1597,alt
CVOE_D,88,1,4,24,H 62,Number,N,FALSE,OE,p,1009,alt
CVOE_D,88,1,4,25,I 82,Letter,Y,TRUE,CV,p,1060,alt
CVOE_D,88,1,4,26,J 78,Letter,N,FALSE,CV,q,876,alt
CVOE_D,88,1,4,27,O 12,Number,Y,TRUE,OE,p,956,alt
CVOE_D,88,1,4,28,P 13,Number,N,TRUE,OE,q,1137,alt
CVOE_D,88,1,4,29,S 07,Letter,Y,TRUE,CV,q,1863,alt
CVOE_D,88,1,4,30,U 36,Letter,N,TRUE,CV,p,2328,alt
CVOE_D,88,1,4,31,A 96,Number,Y,TRUE,OE,p,2750,alt
CVOE_D,88,1,4,32,D 04,Number,N,FALSE,OE,p,1931,alt
CVOE_D,88,1,4,33,E 60,Letter,Y,TRUE,CV,p,2433,alt
CVOE_D,88,1,4,34,H 83,Letter,N,TRUE,CV,q,850,alt
CVOE_D,88,1,4,35,I 64,Number,Y,TRUE,OE,p,1260,alt
CVOE_D,88,1,4,36,J 76,Number,N,FALSE,OE,p,1444,alt
CVOE_D,88,1,4,37,O 78,Letter,Y,TRUE,CV,p,1821,alt
CVOE_D,88,1,4,38,P 09,Letter,N,TRUE,CV,q,1344,alt
CVOE_D,88,1,4,39,S 72,Number,Y,FALSE,OE,p,1477,alt
CVOE_D,88,1,4,40,U 47,Number,N,FALSE,OE,q,781,alt
CVOE_D,88,1,4,41,A 31,Letter,Y,FALSE,CV,p,2353,alt
CVOE_D,88,1,4,42,D 96,Letter,N,FALSE,CV,q,1094,alt
CVOE_D,88,1,4,43,E 40,Number,Y,TRUE,OE,p,2005,alt
CVOE_D,88,1,4,44,H 79,Number,N,TRUE,OE,q,1024,alt
CVOE_D,88,1,4,45,I 15,Letter,Y,FALSE,CV,p,1171,alt
CVOE_D,88,1,4,46,J 07,Letter,N,TRUE,CV,q,1391,alt
CVOE_D,88,1,4,47,O 61,Number,Y,FALSE,OE,p,1315,alt
CVOE_D,88,1,4,48,P 58,Number,N,FALSE,OE,p,1658,alt
CVOE_D,88,1,4,49,S 37,Letter,Y,TRUE,CV,q,1459,alt
CVOE_D,88,1,4,50,U 61,Letter,N,FALSE,CV,q,956,alt
CVOE_D,88,1,4,51,A 17,Number,Y,FALSE,OE,q,1017,alt
CVOE_D,88,1,4,52,D 85,Number,N,TRUE,OE,p,764,alt
CVOE_D,88,1,4,53,E 20,Letter,Y,TRUE,CV,p,2377,alt
CVOE_D,88,1,4,54,H 86,Letter,N,FALSE,CV,q,1412,alt
CVOE_D,88,1,4,55,I 21,Number,Y,FALSE,OE,q,1063,alt
CVOE_D,88,1,4,56,J 29,Number,N,TRUE,OE,q,695,alt
CVOE_D,88,1,4,57,O 13,Letter,Y,FALSE,CV,p,2311,alt
CVOE_D,88,1,4,58,P 82,Letter,N,FALSE,CV,q,3653,alt
CVOE_D,88,1,4,59,S 72,Number,Y,FALSE,OE,p,1046,alt
CVOE_D,88,1,4,60,U 84,Number,N,TRUE,OE,p,871,alt
CVOE_D,88,1,4,61,A 49,Letter,Y,FALSE,CV,p,1768,alt
CVOE_D,88,1,4,62,D 91,Letter,N,TRUE,CV,q,1557,alt
CVOE_D,88,1,4,63,E 99,Number,Y,FALSE,OE,q,1322,alt
CVOE_D,88,1,4,64,H 16,Number,N,FALSE,OE,p,848,alt
CVOE_D,88,1,4,65,I 45,Letter,Y,FALSE,CV,p,1682,alt
CVOE_D,88,1,4,66,J 70,Letter,N,FALSE,CV,q,1305,alt
CVOE_D,88,1,4,67,O 22,Number,Y,TRUE,OE,p,1889,alt
CVOE_D,88,1,4,68,P 41,Number,N,TRUE,OE,q,1440,alt
CVOE_D,88,1,4,69,S 93,Letter,Y,TRUE,CV,q,2634,alt
CVOE_D,88,1,4,70,U 70,Letter,N,TRUE,CV,p,948,alt
CVOE_D,88,1,4,71,A 42,Number,Y,TRUE,OE,p,3313,alt
CVOE_D,88,1,4,72,D 85,Number,N,TRUE,OE,q,4784,alt
CVOE_D,88,1,4,73,E 68,Letter,Y,TRUE,CV,p,1843,alt
CVOE_D,88,1,4,74,H 17,Letter,N,TRUE,CV,q,5044,alt
CVOE_D,88,1,4,75,I 70,Number,Y,TRUE,OE,p,1421,alt
CVOE_D,88,1,4,76,J 88,Number,N,FALSE,OE,p,960,alt
CVOE_D,88,1,4,77,O 32,Letter,Y,TRUE,CV,q,2173,alt
CVOE_D,88,1,4,78,P 95,Letter,N,TRUE,CV,q,1313,alt
CVOE_D,88,1,4,79,S 98,Number,Y,FALSE,OE,p,888,alt
CVOE_D,88,1,4,80,U 37,Number,N,FALSE,OE,q,863,alt
CVOE_D,88,1,4,81,A 56,Letter,Y,TRUE,CV,p,984,alt
CVOE_D,88,1,4,82,D 57,Letter,N,TRUE,CV,q,956,alt
CVOE_D,88,1,4,83,E 93,Number,Y,FALSE,OE,q,1489,alt
CVOE_D,88,1,4,84,H 27,Number,N,TRUE,OE,q,1121,alt
CVOE_D,88,1,4,85,I 35,Letter,Y,FALSE,CV,p,1128,alt
CVOE_D,88,1,4,86,J 03,Letter,N,TRUE,CV,q,957,alt
CVOE_D,88,1,4,87,O 28,Number,Y,TRUE,OE,p,891,alt
CVOE_D,88,1,4,88,P 59,Number,N,TRUE,OE,q,835,alt
CVOE_D,88,1,4,89,S 77,Letter,Y,TRUE,CV,q,2236,alt
CVOE_D,88,1,4,90,U 05,Letter,N,FALSE,CV,p,1318,alt
CVOE_D,88,1,4,91,A 56,Number,Y,TRUE,OE,p,2621,alt
CVOE_D,88,1,4,92,D 01,Number,N,TRUE,OE,q,1407,alt
CVOE_D,88,1,4,93,E 02,Letter,Y,TRUE,CV,p,2618,alt
CVOE_D,88,1,4,94,H 68,Letter,N,FALSE,CV,q,829,alt
CVOE_D,88,1,4,95,I 05,Number,Y,FALSE,OE,q,1199,alt
CVOE_D,88,1,4,96,J 55,Number,N,TRUE,OE,q,970,alt
CVOE_D,88,1,4,97,O 73,Letter,Y,FALSE,CV,p,1303,alt
CVOE_D,88,1,4,98,P 41,Letter,N,TRUE,CV,q,694,alt
CVOE_D,88,1,4,99,S 92,Number,Y,FALSE,OE,p,781,alt
CVOE_D,88,1,4,100,U 34,Number,N,TRUE,OE,q,617,alt
CVOE_D,88,1,4,101,A 09,Letter,Y,FALSE,CV,p,2036,alt
CVOE_D,88,1,4,102,D 92,Letter,N,FALSE,CV,q,1341,alt
CVOE_D,88,1,4,103,E 48,Number,Y,TRUE,OE,p,2595,alt
CVOE_D,88,1,4,104,H 76,Number,N,FALSE,OE,p,1142,alt
CVOE_D,88,1,4,105,I 44,Letter,Y,TRUE,CV,p,1300,alt
CVOE_D,88,1,4,106,J 67,Letter,N,TRUE,CV,q,732,alt
CVOE_D,88,1,4,107,O 48,Number,Y,TRUE,OE,p,937,alt
CVOE_D,88,1,4,108,P 22,Number,N,FALSE,OE,p,783,alt
CVOE_D,88,1,4,109,S 86,Letter,Y,FALSE,CV,q,923,alt
CVOE_D,88,1,4,110,U 35,Letter,N,FALSE,CV,p,642,alt
CVOE_D,88,1,4,111,A 91,Number,Y,FALSE,OE,q,692,alt
CVOE_D,88,1,4,112,D 78,Number,N,FALSE,OE,p,596,alt
CVOE_D,88,1,4,113,E 91,Letter,Y,FALSE,CV,p,2127,alt
CVOE_D,88,1,4,114,H 54,Letter,N,FALSE,CV,q,2077,alt
CVOE_D,88,1,4,115,I 65,Number,Y,FALSE,OE,q,3685,alt
CVOE_D,88,1,4,116,J 52,Number,N,FALSE,OE,p,1596,alt
CVOE_D,88,1,4,117,O 19,Letter,Y,FALSE,CV,p,4111,alt
CVOE_D,88,1,4,118,P 48,Letter,N,FALSE,CV,q,806,alt
CVOE_D,88,1,4,119,S 45,Number,Y,TRUE,OE,q,1337,alt
CVOE_D,88,1,4,120,U 26,Number,N,TRUE,OE,p,1271,alt
CVOE_D,92,1,1,11,A 71,,,FALSE,CV,p,884,cv
CVOE_D,92,1,1,12,I 66,,,TRUE,CV,p,420,cv
CVOE_D,92,1,1,13,S 30,,,FALSE,CV,q,439,cv
CVOE_D,92,1,1,14,D 20,,,FALSE,CV,q,345,cv
CVOE_D,92,1,1,15,I 31,,,FALSE,CV,p,462,cv
CVOE_D,92,1,1,16,P 16,,,FALSE,CV,q,543,cv
CVOE_D,92,1,1,17,A 49,,,FALSE,CV,p,436,cv
CVOE_D,92,1,1,18,O 64,,,TRUE,CV,p,446,cv
CVOE_D,92,1,1,19,D 02,,,FALSE,CV,q,455,cv
CVOE_D,92,1,1,20,P 81,,,TRUE,CV,q,504,cv
CVOE_D,92,1,1,21,J 58,,,FALSE,CV,q,496,cv
CVOE_D,92,1,1,22,A 22,,,TRUE,CV,p,423,cv
CVOE_D,92,1,1,23,J 72,,,FALSE,CV,q,514,cv
CVOE_D,92,1,1,24,P 91,,,TRUE,CV,q,320,cv
CVOE_D,92,1,1,25,E 19,,,FALSE,CV,p,495,cv
CVOE_D,92,1,1,26,I 30,,,TRUE,CV,p,678,cv
CVOE_D,92,1,1,27,D 91,,,TRUE,CV,q,502,cv
CVOE_D,92,1,1,28,O 48,,,TRUE,CV,p,421,cv
CVOE_D,92,1,1,29,A 89,,,FALSE,CV,p,352,cv
CVOE_D,92,1,1,30,U 11,,,FALSE,CV,p,357,cv
CVOE_D,92,1,1,31,I 76,,,TRUE,CV,q,354,cv
CVOE_D,92,1,1,32,U 89,,,FALSE,CV,p,584,cv
CVOE_D,92,1,1,33,D 63,,,TRUE,CV,q,460,cv
CVOE_D,92,1,1,34,H 70,,,FALSE,CV,p,484,cv
CVOE_D,92,1,1,35,D 48,,,FALSE,CV,q,916,cv
CVOE_D,92,1,1,36,P 56,,,FALSE,CV,q,619,cv
CVOE_D,92,1,1,37,O 77,,,FALSE,CV,p,485,cv
CVOE_D,92,1,1,38,P 42,,,FALSE,CV,q,917,cv
CVOE_D,92,1,1,39,H 22,,,FALSE,CV,q,732,cv
CVOE_D,92,1,1,40,E 42,,,TRUE,CV,p,482,cv
CVOE_D,92,1,1,41,J 28,,,FALSE,CV,q,530,cv
CVOE_D,92,1,1,42,E 95,,,FALSE,CV,p,568,cv
CVOE_D,92,1,1,43,S 63,,,TRUE,CV,q,620,cv
CVOE_D,92,1,1,44,H 50,,,FALSE,CV,q,503,cv
CVOE_D,92,1,1,45,S 33,,,TRUE,CV,q,406,cv
CVOE_D,92,1,1,46,P 57,,,TRUE,CV,q,489,cv
CVOE_D,92,1,1,47,E 23,,,FALSE,CV,p,433,cv
CVOE_D,92,1,1,48,S 61,,,TRUE,CV,q,403,cv
CVOE_D,92,1,1,49,U 67,,,FALSE,CV,p,334,cv
CVOE_D,92,1,1,50,H 32,,,FALSE,CV,q,428,cv
CVOE_D,92,1,1,51,U 50,,,TRUE,CV,p,462,cv
CVOE_D,92,1,1,52,O 49,,,FALSE,CV,p,407,cv
CVOE_D,92,1,1,53,U 32,,,TRUE,CV,p,482,cv
CVOE_D,92,1,1,54,J 78,,,FALSE,CV,q,418,cv
CVOE_D,92,1,1,55,S 54,,,FALSE,CV,q,597,cv
CVOE_D,92,1,1,56,J 27,,,TRUE,CV,q,560,cv
CVOE_D,92,1,1,57,S 06,,,FALSE,CV,q,517,cv
CVOE_D,92,1,1,58,D 67,,,TRUE,CV,q,371,cv
CVOE_D,92,1,1,59,A 79,,,FALSE,CV,p,480,cv
CVOE_D,92,1,1,60,S 52,,,FALSE,CV,q,392,cv
CVOE_D,92,1,1,61,U 16,,,TRUE,CV,p,364,cv
CVOE_D,92,1,1,62,O 82,,,TRUE,CV,p,496,cv
CVOE_D,92,1,1,63,H 87,,,TRUE,CV,q,503,cv
CVOE_D,92,1,1,64,I 32,,,TRUE,CV,q,335,cv
CVOE_D,92,1,1,65,U 37,,,FALSE,CV,q,493,cv
CVOE_D,92,1,1,66,I 42,,,TRUE,CV,p,492,cv
CVOE_D,92,1,1,67,D 65,,,TRUE,CV,q,452,cv
CVOE_D,92,1,1,68,U 77,,,FALSE,CV,p,445,cv
CVOE_D,92,1,1,69,E 12,,,TRUE,CV,q,542,cv
CVOE_D,92,1,1,70,I 60,,,TRUE,CV,p,1252,cv
CVOE_D,92,1,1,71,J 36,,,FALSE,CV,q,541,cv
CVOE_D,92,1,1,72,H 75,,,TRUE,CV,q,691,cv
CVOE_D,92,1,1,73,I 50,,,TRUE,CV,p,443,cv
CVOE_D,92,1,1,74,E 99,,,FALSE,CV,p,428,cv
CVOE_D,92,1,1,75,A 86,,,TRUE,CV,p,478,cv
CVOE_D,92,1,1,76,U 48,,,TRUE,CV,p,454,cv
CVOE_D,92,1,1,77,E 01,,,FALSE,CV,p,575,cv
CVOE_D,92,1,1,78,A 78,,,TRUE,CV,p,524,cv
CVOE_D,92,1,1,79,P 60,,,FALSE,CV,q,442,cv
CVOE_D,92,1,1,80,E 43,,,FALSE,CV,p,540,cv
CVOE_D,92,1,1,81,D 69,,,TRUE,CV,q,426,cv
CVOE_D,92,1,1,82,H 11,,,TRUE,CV,q,612,cv
CVOE_D,92,1,1,83,P 43,,,TRUE,CV,p,671,cv
CVOE_D,92,1,1,84,O 67,,,FALSE,CV,p,719,cv
CVOE_D,92,1,1,85,S 91,,,FALSE,CV,q,798,cv
CVOE_D,92,1,1,86,J 68,,,TRUE,CV,q,401,cv
CVOE_D,92,1,1,87,S 47,,,FALSE,CV,q,516,cv
CVOE_D,92,1,1,88,I 81,,,TRUE,CV,p,643,cv
CVOE_D,92,1,1,89,J 39,,,FALSE,CV,q,572,cv
CVOE_D,92,1,1,90,A 11,,,TRUE,CV,p,721,cv
CVOE_D,92,1,1,91,O 76,,,FALSE,CV,p,879,cv
CVOE_D,92,1,1,92,A 62,,,FALSE,CV,p,439,cv
CVOE_D,92,1,1,93,O 27,,,TRUE,CV,p,457,cv
CVOE_D,92,1,1,94,E 66,,,FALSE,CV,p,411,cv
CVOE_D,92,1,1,95,J 62,,,TRUE,CV,q,493,cv
CVOE_D,92,1,1,96,H 72,,,TRUE,CV,q,572,cv
CVOE_D,92,1,1,97,E 49,,,TRUE,CV,p,529,cv
CVOE_D,92,1,1,98,D 52,,,TRUE,CV,q,631,cv
CVOE_D,92,1,1,99,H 62,,,TRUE,CV,q,385,cv
CVOE_D,92,1,1,100,I 11,,,TRUE,CV,p,573,cv
CVOE_D,92,1,1,101,A 98,,,FALSE,CV,p,593,cv
CVOE_D,92,1,1,102,H 29,,,FALSE,CV,q,541,cv
CVOE_D,92,1,1,103,E 83,,,TRUE,CV,p,523,cv
CVOE_D,92,1,1,104,D 43,,,FALSE,CV,q,441,cv
CVOE_D,92,1,1,105,P 45,,,TRUE,CV,q,459,cv
CVOE_D,92,1,1,106,J 17,,,TRUE,CV,q,420,cv
CVOE_D,92,1,2,11,A 24,,,TRUE,OE,p,749,oe
CVOE_D,92,1,2,12,O 83,,,FALSE,OE,q,458,oe
CVOE_D,92,1,2,13,H 55,,,TRUE,OE,q,387,oe
CVOE_D,92,1,2,14,P 10,,,FALSE,OE,q,551,oe
CVOE_D,92,1,2,15,D 30,,,FALSE,OE,p,549,oe
CVOE_D,92,1,2,16,U 62,,,TRUE,OE,p,490,oe
CVOE_D,92,1,2,17,P 95,,,TRUE,OE,q,434,oe
CVOE_D,92,1,2,18,U 06,,,TRUE,OE,p,484,oe
CVOE_D,92,1,2,19,E 75,,,FALSE,OE,q,404,oe
CVOE_D,92,1,2,20,I 67,,,FALSE,OE,q,599,oe
CVOE_D,92,1,2,21,S 13,,,TRUE,OE,q,442,oe
CVOE_D,92,1,2,22,P 78,,,FALSE,OE,p,468,oe
CVOE_D,92,1,2,23,I 15,,,FALSE,OE,q,429,oe
CVOE_D,92,1,2,24,D 27,,,TRUE,OE,q,471,oe
CVOE_D,92,1,2,25,O 94,,,TRUE,OE,p,519,oe
CVOE_D,92,1,2,26,A 65,,,FALSE,OE,q,654,oe
CVOE_D,92,1,2,27,I 42,,,TRUE,OE,p,831,oe
CVOE_D,92,1,2,28,E 25,,,FALSE,OE,q,521,oe
CVOE_D,92,1,2,29,H 49,,,TRUE,OE,q,592,oe
CVOE_D,92,1,2,30,S 18,,,FALSE,OE,p,516,oe
CVOE_D,92,1,2,31,H 51,,,TRUE,OE,q,450,oe
CVOE_D,92,1,2,32,U 14,,,TRUE,OE,p,539,oe
CVOE_D,92,1,2,33,E 02,,,TRUE,OE,p,489,oe
CVOE_D,92,1,2,34,J 26,,,FALSE,OE,p,457,oe
CVOE_D,92,1,2,35,D 24,,,FALSE,OE,p,451,oe
CVOE_D,92,1,2,36,O 50,,,TRUE,OE,q,492,oe
CVOE_D,92,1,2,37,U 16,,,TRUE,OE,p,988,oe
CVOE_D,92,1,2,38,O 15,,,FALSE,OE,q,472,oe
CVOE_D,92,1,2,39,D 32,,,FALSE,OE,p,544,oe
CVOE_D,92,1,2,40,S 67,,,TRUE,OE,q,470,oe
CVOE_D,92,1,2,41,J 74,,,FALSE,OE,p,534,oe
CVOE_D,92,1,2,42,D 92,,,FALSE,OE,p,476,oe
CVOE_D,92,1,2,43,A 65,,,FALSE,OE,q,396,oe
CVOE_D,92,1,2,44,I 87,,,FALSE,OE,q,495,oe
CVOE_D,92,1,2,45,H 61,,,TRUE,OE,q,919,oe
CVOE_D,92,1,2,46,E 59,,,FALSE,OE,q,565,oe
CVOE_D,92,1,2,47,I 33,,,FALSE,OE,q,434,oe
CVOE_D,92,1,2,48,O 90,,,TRUE,OE,p,548,oe
CVOE_D,92,1,2,49,U 51,,,FALSE,OE,q,457,oe
CVOE_D,92,1,2,50,A 10,,,TRUE,OE,p,402,oe
CVOE_D,92,1,2,51,E 50,,,TRUE,OE,p,437,oe
CVOE_D,92,1,2,52,D 92,,,FALSE,OE,p,415,oe
CVOE_D,92,1,2,53,E 60,,,TRUE,OE,p,442,oe
CVOE_D,92,1,2,54,A 95,,,FALSE,OE,q,412,oe
CVOE_D,92,1,2,55,E 64,,,TRUE,OE,p,615,oe
CVOE_D,92,1,2,56,P 20,,,FALSE,OE,q,465,oe
CVOE_D,92,1,2,57,S 06,,,FALSE,OE,p,578,oe
CVOE_D,92,1,2,58,P 64,,,FALSE,OE,p,398,oe
CVOE_D,92,1,2,59,U 70,,,TRUE,OE,p,497,oe
CVOE_D,92,1,2,60,S 16,,,FALSE,OE,p,496,oe
CVOE_D,92,1,2,61,E 35,,,FALSE,OE,q,455,oe
CVOE_D,92,1,2,62,I 93,,,FALSE,OE,q,481,oe
CVOE_D,92,1,2,63,D 63,,,TRUE,OE,q,425,oe
CVOE_D,92,1,2,64,U 89,,,FALSE,OE,q,531,oe
CVOE_D,92,1,2,65,E 91,,,FALSE,OE,q,449,oe
CVOE_D,92,1,2,66,A 12,,,TRUE,OE,p,410,oe
CVOE_D,92,1,2,67,P 56,,,FALSE,OE,p,461,oe
CVOE_D,92,1,2,68,S 65,,,TRUE,OE,q,526,oe
CVOE_D,92,1,2,69,P 07,,,TRUE,OE,q,580,oe
CVOE_D,92,1,2,70,I 77,,,FALSE,OE,q,424,oe
CVOE_D,92,1,2,71,J 19,,,TRUE,OE,q,338,oe
CVOE_D,92,1,2,72,O 59,,,FALSE,OE,q,488,oe
CVOE_D,92,1,2,73,J 15,,,TRUE,OE,q,456,oe
CVOE_D,92,1,2,74,I 89,,,FALSE,OE,q,489,oe
CVOE_D,92,1,2,75,O 97,,,FALSE,OE,q,377,oe
CVOE_D,92,1,2,76,A 92,,,TRUE,OE,p,557,oe
CVOE_D,92,1,2,77,J 90,,,FALSE,OE,p,570,oe
CVOE_D,92,1,2,78,H 65,,,TRUE,OE,q,487,oe
CVOE_D,92,1,2,79,H 17,,,TRUE,OE,q,847,oe
CVOE_D,92,1,2,80,S 26,,,FALSE,OE,p,1016,oe
CVOE_D,92,1,2,81,D 56,,,FALSE,OE,p,483,oe
CVOE_D,92,1,2,82,I 91,,,FALSE,OE,q,475,oe
CVOE_D,92,1,2,83,J 11,,,TRUE,OE,q,443,oe
CVOE_D,92,1,2,84,O 28,,,TRUE,OE,p,500,oe
CVOE_D,92,1,2,85,H 29,,,TRUE,OE,q,556,oe
CVOE_D,92,1,2,86,J 25,,,TRUE,OE,q,529,oe
CVOE_D,92,1,2,87,A 73,,,FALSE,OE,q,535,oe
CVOE_D,92,1,2,88,J 63,,,TRUE,OE,q,445,oe
CVOE_D,92,1,2,89,U 84,,,TRUE,OE,p,526,oe
CVOE_D,92,1,2,90,A 58,,,TRUE,OE,p,492,oe
CVOE_D,92,1,2,91,S 43,,,TRUE,OE,q,460,oe
CVOE_D,92,1,2,92,H 54,,,FALSE,OE,p,445,oe
CVOE_D,92,1,2,93,D 4,,,FALSE,OE,p,542,oe
CVOE_D,92,1,2,94,J 75,,,TRUE,OE,q,660,oe
CVOE_D,92,1,2,95,D 19,,,TRUE,OE,q,540,oe
CVOE_D,92,1,2,96,J 38,,,FALSE,OE,p,610,oe
CVOE_D,92,1,2,97,I 56,,,TRUE,OE,p,717,oe
CVOE_D,92,1,2,98,P 87,,,TRUE,OE,q,459,oe
CVOE_D,92,1,2,99,O 80,,,TRUE,OE,p,508,oe
CVOE_D,92,1,2,100,U 60,,,TRUE,OE,p,427,oe
CVOE_D,92,1,2,101,P 48,,,FALSE,OE,p,517,oe
CVOE_D,92,1,2,102,H 64,,,FALSE,OE,p,500,oe
CVOE_D,92,1,2,103,A 13,,,FALSE,OE,q,515,oe
CVOE_D,92,1,2,104,H 68,,,FALSE,OE,p,554,oe
CVOE_D,92,1,2,105,E 16,,,TRUE,OE,p,511,oe
CVOE_D,92,1,2,106,S 71,,,TRUE,OE,q,726,oe
CVOE_D,92,1,3,11,U 38,Number,N,TRUE,OE,p,1775,shuf
CVOE_D,92,1,3,12,P 73,Number,N,TRUE,OE,q,812,shuf
CVOE_D,92,1,3,13,U 95,Letter,Y,FALSE,CV,p,1038,shuf
CVOE_D,92,1,3,14,J 61,Number,Y,TRUE,OE,q,1088,shuf
CVOE_D,92,1,3,15,D 51,Number,N,TRUE,OE,q,768,shuf
CVOE_D,92,1,3,16,S 28,Number,N,FALSE,OE,p,1036,shuf
CVOE_D,92,1,3,17,A 56,Letter,Y,TRUE,CV,p,926,shuf
CVOE_D,92,1,3,18,H 78,Letter,N,FALSE,CV,q,812,shuf
CVOE_D,92,1,3,19,P 92,Letter,N,FALSE,CV,q,919,shuf
CVOE_D,92,1,3,20,E 05,Number,Y,FALSE,OE,q,893,shuf
CVOE_D,92,1,3,21,P 57,Letter,Y,TRUE,CV,p,997,shuf
CVOE_D,92,1,3,22,D 88,Number,Y,FALSE,OE,p,1256,shuf
CVOE_D,92,1,3,23,O 89,Letter,Y,FALSE,CV,q,1473,shuf
CVOE_D,92,1,3,24,U 43,Number,Y,FALSE,OE,q,2162,shuf
CVOE_D,92,1,3,25,H 10,Number,N,FALSE,OE,p,1766,shuf
CVOE_D,92,1,3,26,S 07,Letter,Y,TRUE,CV,q,1051,shuf
CVOE_D,92,1,3,27,J 10,Letter,N,FALSE,CV,q,884,shuf
CVOE_D,92,1,3,28,H 54,Number,Y,FALSE,OE,p,1092,shuf
CVOE_D,92,1,3,29,E 99,Number,N,FALSE,OE,q,1044,shuf
CVOE_D,92,1,3,30,J 36,Letter,Y,FALSE,CV,q,1069,shuf
CVOE_D,92,1,3,31,I 94,Letter,N,TRUE,CV,p,1085,shuf
CVOE_D,92,1,3,32,A 82,Letter,N,TRUE,CV,p,861,shuf
CVOE_D,92,1,3,33,H 79,Number,Y,TRUE,OE,q,1326,shuf
CVOE_D,92,1,3,34,J 60,Number,N,FALSE,OE,p,1700,shuf
CVOE_D,92,1,3,35,S 28,Letter,Y,FALSE,CV,q,1395,shuf
CVOE_D,92,1,3,36,P 11,Number,Y,TRUE,OE,q,1398,shuf
CVOE_D,92,1,3,37,D 39,Number,N,TRUE,OE,q,1449,shuf
CVOE_D,92,1,3,38,E 90,Number,N,TRUE,OE,p,1475,shuf
CVOE_D,92,1,3,39,I 38,Number,N,TRUE,OE,p,795,shuf
CVOE_D,92,1,3,40,S 35,Letter,Y,TRUE,CV,q,1270,shuf
CVOE_D,92,1,3,41,D 41,Number,Y,TRUE,OE,q,1095,shuf
CVOE_D,92,1,3,42,E 06,Number,N,TRUE,OE,p,870,shuf
CVOE_D,92,1,3,43,A 27,Number,N,FALSE,OE,q,935,shuf
CVOE_D,92,1,3,44,U 95,Letter,Y,FALSE,CV,p,1413,shuf
CVOE_D,92,1,3,45,A 53,Letter,N,FALSE,CV,p,767,shuf
CVOE_D,92,1,3,46,E 43,Letter,N,FALSE,CV,p,836,shuf
CVOE_D,92,1,3,47,P 05,Number,Y,TRUE,OE,q,1038,shuf
CVOE_D,92,1,3,48,O 19,Letter,Y,FALSE,CV,p,1744,shuf
CVOE_D,92,1,3,49,I 96,Number,Y,TRUE,OE,p,1149,shuf
CVOE_D,92,1,3,50,A 88,Number,N,TRUE,OE,p,1106,shuf
CVOE_D,92,1,3,51,I 67,Number,N,FALSE,OE,q,857,shuf
CVOE_D,92,1,3,52,D 40,Number,N,FALSE,OE,p,778,shuf
CVOE_D,92,1,3,53,P 79,Letter,Y,TRUE,CV,q,806,shuf
CVOE_D,92,1,3,54,U 24,Number,Y,TRUE,OE,p,882,shuf
CVOE_D,92,1,3,55,P 74,Number,N,FALSE,OE,p,833,shuf
CVOE_D,92,1,3,56,E 70,Number,N,TRUE,OE,p,851,shuf
CVOE_D,92,1,3,57,S 27,Number,N,TRUE,OE,q,749,shuf
CVOE_D,92,1,3,58,E 54,Letter,Y,TRUE,CV,p,1058,shuf
CVOE_D,92,1,3,59,A 53,Letter,N,FALSE,CV,p,843,shuf
CVOE_D,92,1,3,60,P 34,Letter,N,FALSE,CV,q,852,shuf
CVOE_D,92,1,3,61,D 74,Number,Y,FALSE,OE,p,1061,shuf
CVOE_D,92,1,3,62,A 03,Letter,Y,FALSE,CV,p,1158,shuf
CVOE_D,92,1,3,63,E 24,Number,Y,TRUE,OE,p,1083,shuf
CVOE_D,92,1,3,64,I 58,Letter,Y,TRUE,CV,p,1523,shuf
CVOE_D,92,1,3,65,D 77,Number,Y,TRUE,OE,q,898,shuf
CVOE_D,92,1,3,66,S 75,Number,N,TRUE,OE,q,873,shuf
CVOE_D,92,1,3,67,I 20,Letter,Y,TRUE,CV,p,1162,shuf
CVOE_D,92,1,3,68,J 52,Letter,N,FALSE,CV,q,886,shuf
CVOE_D,92,1,3,69,A 38,Number,Y,TRUE,OE,p,998,shuf
CVOE_D,92,1,3,70,I 60,Letter,Y,TRUE,CV,p,1713,shuf
CVOE_D,92,1,3,71,S 51,Number,Y,TRUE,OE,q,1208,shuf
CVOE_D,92,1,3,72,D 63,Letter,Y,TRUE,CV,q,1059,shuf
CVOE_D,92,1,3,73,U 27,Letter,N,FALSE,CV,p,860,shuf
CVOE_D,92,1,3,74,J 77,Letter,N,TRUE,CV,q,788,shuf
CVOE_D,92,1,3,75,O 15,Number,Y,FALSE,OE,q,832,shuf
CVOE_D,92,1,3,76,J 20,Letter,Y,FALSE,CV,q,946,shuf
CVOE_D,92,1,3,77,U 97,Number,Y,FALSE,OE,q,1071,shuf
CVOE_D,92,1,3,78,H 03,Number,N,TRUE,OE,q,928,shuf
CVOE_D,92,1,3,79,O 04,Letter,Y,TRUE,CV,p,854,shuf
CVOE_D,92,1,3,80,E 10,Letter,N,TRUE,CV,p,863,shuf
CVOE_D,92,1,3,81,I 52,Letter,N,TRUE,CV,p,711,shuf
CVOE_D,92,1,3,82,H 81,Number,Y,TRUE,OE,q,862,shuf
CVOE_D,92,1,3,83,I 41,Number,N,FALSE,OE,q,703,shuf
CVOE_D,92,1,3,84,U 19,Letter,Y,FALSE,CV,q,862,shuf
CVOE_D,92,1,3,85,O 17,Number,Y,FALSE,OE,q,2374,shuf
CVOE_D,92,1,3,86,A 10,Number,N,TRUE,OE,p,1483,shuf
CVOE_D,92,1,3,87,P 93,Letter,Y,TRUE,CV,q,1451,shuf
CVOE_D,92,1,3,88,E 59,Letter,N,FALSE,CV,p,1364,shuf
CVOE_D,92,1,3,89,O 53,Letter,N,FALSE,CV,p,1008,shuf
CVOE_D,92,1,3,90,A 96,Letter,N,TRUE,CV,p,980,shuf
CVOE_D,92,1,3,91,H 36,Letter,Y,FALSE,CV,q,832,shuf
CVOE_D,92,1,3,92,A 63,Letter,N,FALSE,CV,p,849,shuf
CVOE_D,92,1,3,93,I 38,Letter,N,TRUE,CV,p,859,shuf
CVOE_D,92,1,3,94,O 51,Number,Y,FALSE,OE,q,979,shuf
CVOE_D,92,1,3,95,J 26,Number,N,FALSE,OE,p,1135,shuf
CVOE_D,92,1,3,96,S 34,Letter,Y,FALSE,CV,q,2141,shuf
CVOE_D,92,1,3,97,U 85,Number,Y,FALSE,OE,q,1363,shuf
CVOE_D,92,1,3,98,J 77,Number,N,TRUE,OE,q,783,shuf
CVOE_D,92,1,3,99,I 73,Letter,Y,FALSE,CV,p,1243,shuf
CVOE_D,92,1,3,100,H 46,Number,Y,FALSE,OE,p,1109,shuf
CVOE_D,92,1,3,101,D 04,Number,N,FALSE,OE,p,1084,shuf
CVOE_D,92,1,3,102,P 72,Letter,Y,FALSE,CV,q,932,shuf
CVOE_D,92,1,3,103,D 99,Number,Y,TRUE,OE,q,906,shuf
CVOE_D,92,1,3,104,U 25,Letter,Y,FALSE,CV,p,1457,shuf
CVOE_D,92,1,3,105,O 32,Letter,N,TRUE,CV,p,866,shuf
CVOE_D,92,1,3,106,E 80,Letter,N,TRUE,CV,p,739,shuf
CVOE_D,92,1,3,107,O 84,Number,Y,TRUE,OE,p,897,shuf
CVOE_D,92,1,3,108,A 78,Number,N,TRUE,OE,p,744,shuf
CVOE_D,92,1,3,109,S 05,Number,N,TRUE,OE,q,837,shuf
CVOE_D,92,1,3,110,U 35,Letter,Y,FALSE,CV,p,1207,shuf
CVOE_D,92,1,3,111,H 14,Letter,N,FALSE,CV,q,786,shuf
CVOE_D,92,1,3,112,U 15,Number,Y,FALSE,OE,q,1150,shuf
CVOE_D,92,1,3,113,E 36,Letter,Y,TRUE,CV,p,1683,shuf
CVOE_D,92,1,3,114,P 70,Letter,N,FALSE,CV,q,708,shuf
CVOE_D,92,1,3,115,O 44,Number,Y,TRUE,OE,p,850,shuf
CVOE_D,92,1,3,116,S 41,Letter,Y,TRUE,CV,q,852,shuf
CVOE_D,92,1,3,117,D 83,Letter,N,TRUE,CV,q,941,shuf
CVOE_D,92,1,3,118,J 39,Letter,N,TRUE,CV,q,891,shuf
CVOE_D,92,1,3,119,S 22,Number,Y,FALSE,OE,p,1371,shuf
CVOE_D,92,1,3,120,D 89,Letter,Y,TRUE,CV,q,1375,shuf
CVOE_D,92,1,3,121,P 87,Letter,N,TRUE,CV,q,684,shuf
CVOE_D,92,1,3,122,H 42,Letter,N,FALSE,CV,q,1076,shuf
CVOE_D,92,1,3,123,S 49,Letter,N,TRUE,CV,q,740,shuf
CVOE_D,92,1,3,124,J 20,Number,Y,FALSE,OE,p,697,shuf
CVOE_D,92,1,3,125,O 19,Letter,Y,FALSE,CV,p,1025,shuf
CVOE_D,92,1,3,126,H 50,Letter,N,FALSE,CV,q,1476,shuf
CVOE_D,92,1,3,127,I 68,Number,Y,TRUE,OE,p,1083,shuf
CVOE_D,92,1,3,128,J 72,Number,N,FALSE,OE,p,819,shuf
CVOE_D,92,1,3,129,O 21,Number,N,FALSE,OE,q,774,shuf
CVOE_D,92,1,3,130,H 22,Number,N,FALSE,OE,p,1050,shuf
CVOE_D,92,1,4,1,A 44,Letter,N,TRUE,CV,p,1213,alt
CVOE_D,92,1,4,2,D 94,Letter,N,FALSE,CV,q,680,alt
CVOE_D,92,1,4,3,E 75,Number,Y,FALSE,OE,q,952,alt
CVOE_D,92,1,4,4,H 81,Number,N,TRUE,OE,q,845,alt
CVOE_D,92,1,4,5,I 64,Letter,Y,TRUE,CV,p,1078,alt
CVOE_D,92,1,4,6,J 54,Letter,N,FALSE,CV,q,886,alt
CVOE_D,92,1,4,7,O 23,Number,Y,FALSE,OE,q,1022,alt
CVOE_D,92,1,4,8,P 05,Number,N,TRUE,OE,q,841,alt
CVOE_D,92,1,4,9,S 34,Letter,Y,FALSE,CV,q,931,alt
CVOE_D,92,1,4,10,U 88,Letter,N,TRUE,CV,p,1217,alt
CVOE_D,92,1,4,11,A 70,Number,Y,TRUE,OE,p,939,alt
CVOE_D,92,1,4,12,D 12,Number,N,FALSE,OE,p,778,alt
CVOE_D,92,1,4,13,E 79,Letter,Y,FALSE,CV,p,829,alt
CVOE_D,92,1,4,14,H 72,Letter,N,FALSE,CV,q,1191,alt
CVOE_D,92,1,4,15,I 41,Number,Y,FALSE,OE,q,979,alt
CVOE_D,92,1,4,16,J 63,Number,N,TRUE,OE,q,887,alt
CVOE_D,92,1,4,17,O 03,Letter,Y,FALSE,CV,p,974,alt
CVOE_D,92,1,4,18,P 75,Letter,N,TRUE,CV,q,1843,alt
CVOE_D,92,1,4,19,S 61,Number,Y,TRUE,OE,q,1236,alt
CVOE_D,92,1,4,20,U 28,Number,N,TRUE,OE,p,806,alt
CVOE_D,92,1,4,21,A 21,Letter,Y,FALSE,CV,q,913,alt
CVOE_D,92,1,4,22,D 18,Letter,N,FALSE,CV,q,1008,alt
CVOE_D,92,1,4,23,E 35,Number,Y,FALSE,OE,q,987,alt
CVOE_D,92,1,4,24,H 62,Number,N,FALSE,OE,p,887,alt
CVOE_D,92,1,4,25,I 82,Letter,Y,TRUE,CV,p,1567,alt
CVOE_D,92,1,4,26,J 78,Letter,N,FALSE,CV,q,939,alt
CVOE_D,92,1,4,27,O 12,Number,Y,TRUE,OE,p,1081,alt
CVOE_D,92,1,4,28,P 13,Number,N,TRUE,OE,q,2025,alt
CVOE_D,92,1,4,29,S 07,Letter,Y,TRUE,CV,q,1436,alt
CVOE_D,92,1,4,30,U 36,Letter,N,TRUE,CV,p,702,alt
CVOE_D,92,1,4,31,A 96,Number,Y,TRUE,OE,p,1029,alt
CVOE_D,92,1,4,32,D 04,Number,N,FALSE,OE,p,719,alt
CVOE_D,92,1,4,33,E 60,Letter,Y,TRUE,CV,p,1229,alt
CVOE_D,92,1,4,34,H 83,Letter,N,TRUE,CV,q,807,alt
CVOE_D,92,1,4,35,I 64,Number,Y,TRUE,OE,p,762,alt
CVOE_D,92,1,4,36,J 76,Number,N,FALSE,OE,q,783,alt
CVOE_D,92,1,4,37,O 78,Letter,Y,TRUE,CV,p,1435,alt
CVOE_D,92,1,4,38,P 09,Letter,N,TRUE,CV,q,845,alt
CVOE_D,92,1,4,39,S 72,Number,Y,FALSE,OE,p,982,alt
CVOE_D,92,1,4,40,U 47,Number,N,FALSE,OE,q,826,alt
CVOE_D,92,1,4,41,A 31,Letter,Y,FALSE,CV,p,1332,alt
CVOE_D,92,1,4,42,D 96,Letter,N,FALSE,CV,q,1170,alt
CVOE_D,92,1,4,43,E 40,Number,Y,TRUE,OE,p,1134,alt
CVOE_D,92,1,4,44,H 79,Number,N,TRUE,OE,q,757,alt
CVOE_D,92,1,4,45,I 15,Letter,Y,FALSE,CV,p,961,alt
CVOE_D,92,1,4,46,J 07,Letter,N,TRUE,CV,q,782,alt
CVOE_D,92,1,4,47,O 61,Number,Y,FALSE,OE,q,1002,alt
CVOE_D,92,1,4,48,P 58,Number,N,FALSE,OE,p,1269,alt
