ExperimentName,Subject,Group,Block,Trial,STIM,TASK,Switch,Congruent,CVOE,Response,RT,block_type
CVOE updated,101,1,1,11,A 71,,,FALSE,CV,p,1870,cv
CVOE updated,101,1,1,12,I 66,,,TRUE,CV,p,1599,cv
CVOE updated,101,1,1,13,S 30,,,FALSE,CV,q,1570,cv
CVOE updated,101,1,1,14,D 20,,,FALSE,CV,q,903,cv
CVOE updated,101,1,1,15,I 31,,,FALSE,CV,p,782,cv
CVOE updated,101,1,1,16,P 16,,,FALSE,CV,q,730,cv
CVOE updated,101,1,1,17,A 49,,,FALSE,CV,p,912,cv
CVOE updated,101,1,1,18,O 64,,,TRUE,CV,p,806,cv
CVOE updated,101,1,1,19,D 02,,,FALSE,CV,q,1345,cv
CVOE updated,101,1,1,20,P 81,,,TRUE,CV,q,831,cv
CVOE updated,101,1,1,21,J 58,,,FALSE,CV,q,625,cv
CVOE updated,101,1,1,22,A 22,,,TRUE,CV,p,643,cv
CVOE updated,101,1,1,23,J 72,,,FALSE,CV,q,892,cv
CVOE updated,101,1,1,24,P 91,,,TRUE,CV,q,596,cv
CVOE updated,101,1,1,25,E 19,,,FALSE,CV,p,1160,cv
CVOE updated,101,1,1,26,I 30,,,TRUE,CV,p,516,cv
CVOE updated,101,1,1,27,D 91,,,TRUE,CV,q,707,cv
CVOE updated,101,1,1,28,O 48,,,TRUE,CV,p,602,cv
CVOE updated,101,1,1,29,A 89,,,FALSE,CV,p,549,cv
CVOE updated,101,1,1,30,U 11,,,FALSE,CV,p,754,cv
CVOE updated,101,1,1,31,I 76,,,TRUE,CV,p,488,cv
CVOE updated,101,1,1,32,U 89,,,FALSE,CV,p,496,cv
CVOE updated,101,1,1,33,D 63,,,TRUE,CV,q,615,cv
CVOE updated,101,1,1,34,H 70,,,FALSE,CV,q,3121,cv
CVOE updated,101,1,1,35,D 48,,,FALSE,CV,q,520,cv
CVOE updated,101,1,1,36,P 56,,,FALSE,CV,p,566,cv
CVOE updated,101,1,1,37,O 77,,,FALSE,CV,p,683,cv
CVOE updated,101,1,1,38,P 42,,,FALSE,CV,q,707,cv
CVOE updated,101,1,1,39,H 22,,,FALSE,CV,q,930,cv
CVOE updated,101,1,1,40,E 42,,,TRUE,CV,p,568,cv
CVOE updated,101,1,1,41,J 28,,,FALSE,CV,q,621,cv
CVOE updated,101,1,1,42,E 95,,,FALSE,CV,p,1199,cv
CVOE updated,101,1,1,43,S 63,,,TRUE,CV,q,827,cv
CVOE updated,101,1,1,44,H 50,,,FALSE,CV,q,644,cv
CVOE updated,101,1,1,45,S 33,,,TRUE,CV,q,614,cv
CVOE updated,101,1,1,46,P 57,,,TRUE,CV,q,552,cv
CVOE updated,101,1,1,47,E 23,,,FALSE,CV,p,638,cv
CVOE updated,101,1,1,48,S 61,,,TRUE,CV,q,567,cv
CVOE updated,101,1,1,49,U 67,,,FALSE,CV,p,508,cv
CVOE updated,101,1,1,50,H 32,,,FALSE,CV,q,555,cv
CVOE updated,101,1,1,51,U 50,,,TRUE,CV,p,1865,cv
CVOE updated,101,1,1,52,O 49,,,FALSE,CV,p,1073,cv
CVOE updated,101,1,1,53,U 32,,,TRUE,CV,p,658,cv
CVOE updated,101,1,1,54,J 78,,,FALSE,CV,q,531,cv
CVOE updated,101,1,1,55,S 54,,,FALSE,CV,q,1905,cv
CVOE updated,101,1,1,56,J 27,,,TRUE,CV,q,640,cv
CVOE updated,101,1,1,57,S 06,,,FALSE,CV,q,546,cv
CVOE updated,101,1,1,58,D 67,,,TRUE,CV,q,567,cv
CVOE updated,101,1,1,59,A 79,,,FALSE,CV,p,548,cv
CVOE updated,101,1,1,60,S 52,,,FALSE,CV,q,577,cv
CVOE updated,101,1,1,61,U 16,,,TRUE,CV,p,629,cv
CVOE updated,101,1,1,62,O 82,,,TRUE,CV,p,527,cv
CVOE updated,101,1,1,63,H 87,,,TRUE,CV,q,557,cv
CVOE updated,101,1,1,64,I 32,,,TRUE,CV,p,538,cv
CVOE updated,101,1,1,65,U 37,,,FALSE,CV,p,496,cv
CVOE updated,101,1,1,66,I 42,,,TRUE,CV,p,487,cv
CVOE updated,101,1,1,67,D 65,,,TRUE,CV,q,527,cv
CVOE updated,101,1,1,68,U 77,,,FALSE,CV,p,1021,cv
CVOE updated,101,1,1,69,E 12,,,TRUE,CV,p,528,cv
CVOE updated,101,1,1,70,I 60,,,TRUE,CV,p,542,cv
CVOE updated,101,1,1,71,J 36,,,FALSE,CV,q,756,cv
CVOE updated,101,1,1,72,H 75,,,TRUE,CV,q,1265,cv
CVOE updated,101,1,1,73,I 50,,,TRUE,CV,p,537,cv
CVOE updated,101,1,1,74,E 99,,,FALSE,CV,p,383,cv
CVOE updated,101,1,1,75,A 86,,,TRUE,CV,p,651,cv
CVOE updated,101,1,1,76,U 48,,,TRUE,CV,p,396,cv
CVOE updated,101,1,1,77,E 01,,,FALSE,CV,p,384,cv
CVOE updated,101,1,1,78,A 78,,,TRUE,CV,p,548,cv
CVOE updated,101,1,1,79,P 60,,,FALSE,CV,q,489,cv
CVOE updated,101,1,1,80,E 43,,,FALSE,CV,p,473,cv
CVOE updated,101,1,1,81,D 69,,,TRUE,CV,q,473,cv
CVOE updated,101,1,1,82,H 11,,,TRUE,CV,q,490,cv
CVOE updated,101,1,1,83,P 43,,,TRUE,CV,q,418,cv
CVOE updated,101,1,1,84,O 67,,,FALSE,CV,p,405,cv
CVOE updated,101,1,1,85,S 91,,,FALSE,CV,p,336,cv
CVOE updated,101,1,1,86,J 68,,,TRUE,CV,q,558,cv
CVOE updated,101,1,1,87,S 47,,,FALSE,CV,q,403,cv
CVOE updated,101,1,1,88,I 81,,,TRUE,CV,p,558,cv
CVOE updated,101,1,1,89,J 39,,,FALSE,CV,q,492,cv
CVOE updated,101,1,1,90,A 11,,,TRUE,CV,p,580,cv
CVOE updated,101,1,1,91,O 76,,,FALSE,CV,p,535,cv
CVOE updated,101,1,1,92,A 62,,,FALSE,CV,p,557,cv
CVOE updated,101,1,1,93,O 27,,,TRUE,CV,p,587,cv
CVOE updated,101,1,1,94,E 66,,,FALSE,CV,p,471,cv
CVOE updated,101,1,1,95,J 62,,,TRUE,CV,q,535,cv
CVOE updated,101,1,1,96,H 72,,,TRUE,CV,q,525,cv
CVOE updated,101,1,1,97,E 49,,,TRUE,CV,p,404,cv
CVOE updated,101,1,1,98,D 52,,,TRUE,CV,q,535,cv
CVOE updated,101,1,1,99,H 62,,,TRUE,CV,q,461,cv
CVOE updated,101,1,1,100,I 11,,,TRUE,CV,p,478,cv
CVOE updated,101,1,1,101,A 98,,,FALSE,CV,p,421,cv
CVOE updated,101,1,1,102,H 29,,,FALSE,CV,q,760,cv
CVOE updated,101,1,1,103,E 83,,,TRUE,CV,p,389,cv
CVOE updated,101,1,1,104,D 43,,,FALSE,CV,q,601,cv
CVOE updated,101,1,1,105,P 45,,,TRUE,CV,q,396,cv
CVOE updated,101,1,1,106,J 17,,,TRUE,CV,q,487,cv
CVOE updated,101,1,2,11,A 24,,,TRUE,OE,p,2078,oe
CVOE updated,101,1,2,12,O 83,,,FALSE,OE,q,1526,oe
CVOE updated,101,1,2,13,H 55,,,TRUE,OE,q,1532,oe
CVOE updated,101,1,2,14,P 10,,,FALSE,OE,p,786,oe
CVOE updated,101,1,2,15,D 30,,,FALSE,OE,p,2742,oe
CVOE updated,101,1,2,16,U 62,,,TRUE,OE,p,1180,oe
CVOE updated,101,1,2,17,P 95,,,TRUE,OE,q,952,oe
CVOE updated,101,1,2,18,U 06,,,TRUE,OE,p,685,oe
CVOE updated,101,1,2,19,E 75,,,FALSE,OE,q,893,oe
CVOE updated,101,1,2,20,I 67,,,FALSE,OE,q,700,oe
CVOE updated,101,1,2,21,S 13,,,TRUE,OE,q,699,oe
CVOE updated,101,1,2,22,P 78,,,FALSE,OE,p,2202,oe
CVOE updated,101,1,2,23,I 15,,,FALSE,OE,q,2830,oe
CVOE updated,101,1,2,24,D 27,,,TRUE,OE,q,991,oe
CVOE updated,101,1,2,25,O 94,,,TRUE,OE,p,691,oe
CVOE updated,101,1,2,26,A 65,,,FALSE,OE,q,1027,oe
CVOE updated,101,1,2,27,I 42,,,TRUE,OE,p,1053,oe
CVOE updated,101,1,2,28,E 25,,,FALSE,OE,q,1734,oe
CVOE updated,101,1,2,29,H 49,,,TRUE,OE,q,1740,oe
CVOE updated,101,1,2,30,S 18,,,FALSE,OE,p,2018,oe
CVOE updated,101,1,2,31,H 51,,,TRUE,OE,q,748,oe
CVOE updated,101,1,2,32,U 14,,,TRUE,OE,p,682,oe
CVOE updated,101,1,2,33,E 02,,,TRUE,OE,p,1074,oe
CVOE updated,101,1,2,34,J 26,,,FALSE,OE,p,3546,oe
CVOE updated,101,1,2,35,D 24,,,FALSE,OE,p,2311,oe
CVOE updated,101,1,2,36,O 50,,,TRUE,OE,p,886,oe
CVOE updated,101,1,2,37,U 16,,,TRUE,OE,p,1598,oe
CVOE updated,101,1,2,38,O 15,,,FALSE,OE,q,969,oe
CVOE updated,101,1,2,39,D 32,,,FALSE,OE,p,781,oe
CVOE updated,101,1,2,40,S 67,,,TRUE,OE,q,753,oe
CVOE updated,101,1,2,41,J 74,,,FALSE,OE,p,623,oe
CVOE updated,101,1,2,42,D 92,,,FALSE,OE,p,697,oe
CVOE updated,101,1,2,43,A 65,,,FALSE,OE,q,968,oe
CVOE updated,101,1,2,44,I 87,,,FALSE,OE,q,1085,oe
CVOE updated,101,1,2,45,H 61,,,TRUE,OE,q,829,oe
CVOE updated,101,1,2,46,E 59,,,FALSE,OE,q,623,oe
CVOE updated,101,1,2,47,I 33,,,FALSE,OE,q,1009,oe
CVOE updated,101,1,2,48,O 90,,,TRUE,OE,p,756,oe
CVOE updated,101,1,2,49,U 51,,,FALSE,OE,q,625,oe
CVOE updated,101,1,2,50,A 10,,,TRUE,OE,p,580,oe
CVOE updated,101,1,2,51,E 50,,,TRUE,OE,p,616,oe
CVOE updated,101,1,2,52,D 92,,,FALSE,OE,p,642,oe
CVOE updated,101,1,2,53,E 60,,,TRUE,OE,p,676,oe
CVOE updated,101,1,2,54,A 95,,,FALSE,OE,q,628,oe
CVOE updated,101,1,2,55,E 64,,,TRUE,OE,p,630,oe
CVOE updated,101,1,2,56,P 20,,,FALSE,OE,p,608,oe
CVOE updated,101,1,2,57,S 06,,,FALSE,OE,p,595,oe
CVOE updated,101,1,2,58,P 64,,,FALSE,OE,p,502,oe
CVOE updated,101,1,2,59,U 70,,,TRUE,OE,p,606,oe
CVOE updated,101,1,2,60,S 16,,,FALSE,OE,p,1737,oe
CVOE updated,101,1,2,61,E 35,,,FALSE,OE,q,559,oe
CVOE updated,101,1,2,62,I 93,,,FALSE,OE,q,484,oe
CVOE updated,101,1,2,63,D 63,,,TRUE,OE,q,460,oe
CVOE updated,101,1,2,64,U 89,,,FALSE,OE,q,733,oe
CVOE updated,101,1,2,65,E 91,,,FALSE,OE,q,634,oe
CVOE updated,101,1,2,66,A 12,,,TRUE,OE,p,620,oe
CVOE updated,101,1,2,67,P 56,,,FALSE,OE,p,503,oe
CVOE updated,101,1,2,68,S 65,,,TRUE,OE,q,662,oe
CVOE updated,101,1,2,69,P 07,,,TRUE,OE,p,559,oe
CVOE updated,101,1,2,70,I 77,,,FALSE,OE,q,996,oe
CVOE updated,101,1,2,71,J 19,,,TRUE,OE,q,1095,oe
CVOE updated,101,1,2,72,O 59,,,FALSE,OE,q,455,oe
CVOE updated,101,1,2,73,J 15,,,TRUE,OE,q,736,oe
CVOE updated,101,1,2,74,I 89,,,FALSE,OE,q,486,oe
CVOE updated,101,1,2,75,O 97,,,FALSE,OE,q,606,oe
CVOE updated,101,1,2,76,A 92,,,TRUE,OE,p,593,oe
CVOE updated,101,1,2,77,J 90,,,FALSE,OE,p,540,oe
CVOE updated,101,1,2,78,H 65,,,TRUE,OE,q,586,oe
CVOE updated,101,1,2,79,H 17,,,TRUE,OE,q,918,oe
CVOE updated,101,1,2,80,S 26,,,FALSE,OE,p,637,oe
CVOE updated,101,1,2,81,D 56,,,FALSE,OE,p,639,oe
CVOE updated,101,1,2,82,I 91,,,FALSE,OE,q,568,oe
CVOE updated,101,1,2,83,J 11,,,TRUE,OE,q,901,oe
CVOE updated,101,1,2,84,O 28,,,TRUE,OE,p,596,oe
CVOE updated,101,1,2,85,H 29,,,TRUE,OE,q,568,oe
CVOE updated,101,1,2,86,J 25,,,TRUE,OE,q,516,oe
CVOE updated,101,1,2,87,A 73,,,FALSE,OE,q,627,oe
CVOE updated,101,1,2,88,J 63,,,TRUE,OE,q,477,oe
CVOE updated,101,1,2,89,U 84,,,TRUE,OE,p,733,oe
CVOE updated,101,1,2,90,A 58,,,TRUE,OE,q,507,oe
CVOE updated,101,1,2,91,S 43,,,TRUE,OE,q,746,oe
CVOE updated,101,1,2,92,H 54,,,FALSE,OE,p,583,oe
CVOE updated,101,1,2,93,D 4,,,FALSE,OE,p,619,oe
CVOE updated,101,1,2,94,J 75,,,TRUE,OE,q,2502,oe
CVOE updated,101,1,2,95,D 19,,,TRUE,OE,q,749,oe
CVOE updated,101,1,2,96,J 38,,,FALSE,OE,p,850,oe
CVOE updated,101,1,2,97,I 56,,,TRUE,OE,p,731,oe
CVOE updated,101,1,2,98,P 87,,,TRUE,OE,q,633,oe
CVOE updated,101,1,2,99,O 80,,,TRUE,OE,p,587,oe
CVOE updated,101,1,2,100,U 60,,,TRUE,OE,p,583,oe
CVOE updated,101,1,2,101,P 48,,,FALSE,OE,p,587,oe
CVOE updated,101,1,2,102,H 64,,,FALSE,OE,p,567,oe
CVOE updated,101,1,2,103,A 13,,,FALSE,OE,q,539,oe
CVOE updated,101,1,2,104,H 68,,,FALSE,OE,p,497,oe
CVOE updated,101,1,2,105,E 16,,,TRUE,OE,p,705,oe
CVOE updated,101,1,2,106,S 71,,,TRUE,OE,q,664,oe
CVOE updated,101,1,3,11,A 44,Letter,N,TRUE,CV,p,2014,alt
CVOE updated,101,1,3,12,D 94,Letter,N,FALSE,CV,q,1248,alt
CVOE updated,101,1,3,13,E 75,Number,Y,FALSE,OE,q,1281,alt
CVOE updated,101,1,3,14,H 81,Number,N,TRUE,OE,q,985,alt
CVOE updated,101,1,3,15,I 64,Letter,Y,TRUE,CV,p,1213,alt
CVOE updated,101,1,3,16,J 54,Letter,N,FALSE,CV,q,808,alt
CVOE updated,101,1,3,17,O 23,Number,Y,FALSE,OE,q,923,alt
CVOE updated,101,1,3,18,P 05,Number,N,TRUE,OE,q,881,alt
CVOE updated,101,1,3,19,S 34,Letter,Y,FALSE,CV,q,1505,alt
CVOE updated,101,1,3,20,U 88,Letter,N,TRUE,CV,p,1192,alt
CVOE updated,101,1,3,21,A 70,Number,Y,TRUE,OE,p,980,alt
CVOE updated,101,1,3,22,D 12,Number,N,FALSE,OE,q,880,alt
CVOE updated,101,1,3,23,E 79,Letter,Y,FALSE,CV,p,2216,alt
CVOE updated,101,1,3,24,H 72,Letter,N,FALSE,CV,q,1738,alt
CVOE updated,101,1,3,25,I 41,Number,Y,FALSE,OE,q,1544,alt
CVOE updated,101,1,3,26,J 63,Number,N,TRUE,OE,q,829,alt
CVOE updated,101,1,3,27,O 03,Letter,Y,FALSE,CV,p,959,alt
CVOE updated,101,1,3,28,P 75,Letter,N,TRUE,CV,q,868,alt
CVOE updated,101,1,3,29,S 61,Number,Y,TRUE,OE,q,1756,alt
CVOE updated,101,1,3,30,U 28,Number,N,TRUE,OE,p,1433,alt
CVOE updated,101,1,3,31,A 21,Letter,Y,FALSE,CV,p,1059,alt
CVOE updated,101,1,3,32,D 18,Letter,N,FALSE,CV,q,876,alt
CVOE updated,101,1,3,33,E 35,Number,Y,FALSE,OE,q,1116,alt
CVOE updated,101,1,3,34,H 62,Number,N,FALSE,OE,p,1050,alt
CVOE updated,101,1,3,35,I 82,Letter,Y,TRUE,CV,p,1611,alt
CVOE updated,101,1,3,36,J 78,Letter,N,FALSE,CV,q,2334,alt
CVOE updated,101,1,3,37,O 12,Number,Y,TRUE,OE,p,868,alt
CVOE updated,101,1,3,38,P 13,Number,N,TRUE,OE,q,2100,alt
CVOE updated,101,1,3,39,S 07,Letter,Y,TRUE,CV,q,1203,alt
CVOE updated,101,1,3,40,U 36,Letter,N,TRUE,CV,p,839,alt
CVOE updated,101,1,3,41,A 96,Number,Y,TRUE,OE,p,1577,alt
CVOE updated,101,1,3,42,D 04,Number,N,FALSE,OE,p,1140,alt
CVOE updated,101,1,3,43,E 60,Letter,Y,TRUE,CV,p,1234,alt
CVOE updated,101,1,3,44,H 83,Letter,N,TRUE,CV,q,804,alt
CVOE updated,101,1,3,45,I 64,Number,Y,TRUE,OE,p,1159,alt
CVOE updated,101,1,3,46,J 76,Number,N,FALSE,OE,p,1908,alt
CVOE updated,101,1,3,47,O 78,Letter,Y,TRUE,CV,p,1411,alt
CVOE updated,101,1,3,48,P 09,Letter,N,TRUE,CV,q,1190,alt
CVOE updated,101,1,3,49,S 72,Number,Y,FALSE,OE,p,1210,alt
CVOE updated,101,1,3,50,U 47,Number,N,FALSE,OE,q,1156,alt
CVOE updated,101,1,3,51,A 31,Letter,Y,FALSE,CV,p,1201,alt
CVOE updated,101,1,3,52,D 96,Letter,N,FALSE,CV,q,1301,alt
CVOE updated,101,1,3,53,E 40,Number,Y,TRUE,OE,p,828,alt
CVOE updated,101,1,3,54,H 79,Number,N,TRUE,OE,q,934,alt
CVOE updated,101,1,3,55,I 15,Letter,Y,FALSE,CV,p,1388,alt
CVOE updated,101,1,3,56,J 07,Letter,N,TRUE,CV,q,735,alt
CVOE updated,101,1,3,57,O 61,Number,Y,FALSE,OE,q,1037,alt
CVOE updated,101,1,3,58,P 58,Number,N,FALSE,OE,p,1063,alt
CVOE updated,101,1,3,59,S 37,Letter,Y,TRUE,CV,q,1512,alt
CVOE updated,101,1,3,60,U 61,Letter,N,FALSE,CV,p,1126,alt
CVOE updated,101,1,3,61,A 17,Number,Y,FALSE,OE,q,1092,alt
CVOE updated,101,1,3,62,D 85,Number,N,TRUE,OE,q,891,alt
CVOE updated,101,1,3,63,E 20,Letter,Y,TRUE,CV,p,1011,alt
CVOE updated,101,1,3,64,H 86,Letter,N,FALSE,CV,q,702,alt
CVOE updated,101,1,3,65,I 21,Number,Y,FALSE,OE,q,2349,alt
CVOE updated,101,1,3,66,J 29,Number,N,TRUE,OE,q,1042,alt
CVOE updated,101,1,3,67,O 13,Letter,Y,FALSE,CV,p,1060,alt
CVOE updated,101,1,3,68,P 82,Letter,N,FALSE,CV,p,5820,alt
CVOE updated,101,1,3,69,S 72,Number,Y,FALSE,OE,q,870,alt
CVOE updated,101,1,3,70,U 84,Number,N,TRUE,OE,p,1639,alt
CVOE updated,101,1,3,71,A 49,Letter,Y,FALSE,CV,p,1001,alt
CVOE updated,101,1,3,72,D 91,Letter,N,TRUE,CV,q,676,alt
CVOE updated,101,1,3,73,E 99,Number,Y,FALSE,OE,q,836,alt
CVOE updated,101,1,3,74,H 16,Number,N,FALSE,OE,p,846,alt
CVOE updated,101,1,3,75,I 45,Letter,Y,FALSE,CV,q,927,alt
CVOE updated,101,1,3,76,J 70,Letter,N,FALSE,CV,q,3629,alt
CVOE updated,101,1,3,77,O 22,Number,Y,TRUE,OE,p,975,alt
CVOE updated,101,1,3,78,P 41,Number,N,TRUE,OE,p,523,alt
CVOE updated,101,1,3,79,S 93,Letter,Y,TRUE,CV,q,1602,alt
CVOE updated,101,1,3,80,U 70,Letter,N,TRUE,CV,p,1046,alt
CVOE updated,101,1,3,81,A 42,Number,Y,TRUE,OE,p,2542,alt
CVOE updated,101,1,3,82,D 85,Number,N,TRUE,OE,q,1419,alt
CVOE updated,101,1,3,83,E 68,Letter,Y,TRUE,CV,p,1454,alt
CVOE updated,101,1,3,84,H 17,Letter,N,TRUE,CV,q,1063,alt
CVOE updated,101,1,3,85,I 70,Number,Y,TRUE,OE,p,2024,alt
CVOE updated,101,1,3,86,J 88,Number,N,FALSE,OE,p,738,alt
CVOE updated,101,1,3,87,O 32,Letter,Y,TRUE,CV,p,7592,alt
CVOE updated,101,1,3,88,P 95,Letter,N,TRUE,CV,q,925,alt
CVOE updated,101,1,3,89,S 98,Number,Y,FALSE,OE,q,1226,alt
CVOE updated,101,1,3,90,U 37,Number,N,FALSE,OE,q,956,alt
CVOE updated,101,1,3,91,A 56,Letter,Y,TRUE,CV,p,1017,alt
CVOE updated,101,1,3,92,D 57,Letter,N,TRUE,CV,q,780,alt
CVOE updated,101,1,3,93,E 93,Number,Y,FALSE,OE,q,872,alt
CVOE updated,101,1,3,94,H 27,Number,N,TRUE,OE,q,928,alt
CVOE updated,101,1,3,95,I 35,Letter,Y,FALSE,CV,p,814,alt
CVOE updated,101,1,3,96,J 03,Letter,N,TRUE,CV,q,793,alt
CVOE updated,101,1,3,97,O 28,Number,Y,TRUE,OE,p,700,alt
CVOE updated,101,1,3,98,P 59,Number,N,TRUE,OE,q,627,alt
CVOE updated,101,1,3,99,S 77,Letter,Y,TRUE,CV,q,1141,alt
CVOE updated,101,1,3,100,U 05,Letter,N,FALSE,CV,q,1027,alt
CVOE updated,101,1,3,101,A 56,Number,Y,TRUE,OE,p,1269,alt
CVOE updated,101,1,3,102,D 01,Number,N,TRUE,OE,q,2709,alt
CVOE updated,101,1,3,103,E 02,Letter,Y,TRUE,CV,p,844,alt
CVOE updated,101,1,3,104,H 68,Letter,N,FALSE,CV,q,837,alt
CVOE updated,101,1,3,105,I 05,Number,Y,FALSE,OE,q,1535,alt
CVOE updated,101,1,3,106,J 55,Number,N,TRUE,OE,q,1965,alt
CVOE updated,101,1,3,107,O 73,Letter,Y,FALSE,CV,q,1281,alt
CVOE updated,101,1,3,108,P 41,Letter,N,TRUE,CV,q,1721,alt
CVOE updated,101,1,3,109,S 92,Number,Y,FALSE,OE,p,1176,alt
CVOE updated,101,1,3,110,U 34,Number,N,TRUE,OE,p,940,alt
CVOE updated,101,1,3,111,A 09,Letter,Y,FALSE,CV,p,1658,alt
CVOE updated,101,1,3,112,D 92,Letter,N,FALSE,CV,q,875,alt
CVOE updated,101,1,3,113,E 48,Number,Y,TRUE,OE,p,1827,alt
CVOE updated,101,1,3,114,H 76,Number,N,FALSE,OE,p,1061,alt
CVOE updated,101,1,3,115,I 44,Letter,Y,TRUE,CV,p,773,alt
CVOE updated,101,1,3,116,J 67,Letter,N,TRUE,CV,q,1634,alt
CVOE updated,101,1,3,117,O 48,Number,Y,TRUE,OE,p,1172,alt
CVOE updated,101,1,3,118,P 22,Number,N,FALSE,OE,p,792,alt
CVOE updated,101,1,3,119,S 86,Letter,Y,FALSE,CV,q,1203,alt
CVOE updated,101,1,3,120,U 35,Letter,N,FALSE,CV,p,735,alt
CVOE updated,101,1,3,121,A 91,Number,Y,FALSE,OE,q,2444,alt
CVOE updated,101,1,3,122,D 78,Number,N,FALSE,OE,p,1654,alt
CVOE updated,101,1,3,123,E 91,Letter,Y,FALSE,CV,p,1023,alt
CVOE updated,101,1,3,124,H 54,Letter,N,FALSE,CV,q,873,alt
CVOE updated,101,1,3,125,I 65,Number,Y,FALSE,OE,q,994,alt
CVOE updated,101,1,3,126,J 52,Number,N,FALSE,OE,p,1117,alt
CVOE updated,101,1,3,127,O 19,Letter,Y,FALSE,CV,p,1156,alt
CVOE updated,101,1,3,128,P 48,Letter,N,FALSE,CV,q,1065,alt
CVOE updated,101,1,3,129,S 45,Number,Y,TRUE,OE,q,954,alt
CVOE updated,101,1,3,130,U 26,Number,N,TRUE,OE,p,2055,alt
CVOE updated,101,1,4,1,U 38,Number,N,TRUE,OE,p,3820,shuf
CVOE updated,101,1,4,2,P 73,Number,N,TRUE,OE,q,1727,shuf
CVOE updated,101,1,4,3,U 95,Letter,Y,FALSE,CV,p,1748,shuf
CVOE updated,101,1,4,4,J 61,Number,Y,TRUE,OE,q,2714,shuf
CVOE updated,101,1,4,5,D 51,Number,N,TRUE,OE,q,1255,shuf
CVOE updated,101,1,4,6,S 28,Number,N,FALSE,OE,p,889,shuf
CVOE updated,101,1,4,7,A 56,Letter,Y,TRUE,CV,p,1336,shuf
CVOE updated,101,1,4,8,H 78,Letter,N,FALSE,CV,q,710,shuf
CVOE updated,101,1,4,9,P 92,Letter,N,FALSE,CV,q,1133,shuf
CVOE updated,101,1,4,10,E 05,Number,Y,FALSE,OE,q,1011,shuf
CVOE updated,101,1,4,11,P 57,Letter,Y,TRUE,CV,q,926,shuf
CVOE updated,101,1,4,12,D 88,Number,Y,FALSE,OE,p,1019,shuf
CVOE updated,101,1,4,13,O 89,Letter,Y,FALSE,CV,p,1111,shuf
CVOE updated,101,1,4,14,U 43,Number,Y,FALSE,OE,q,996,shuf
CVOE updated,101,1,4,15,H 10,Number,N,FALSE,OE,q,817,shuf
CVOE updated,101,1,4,16,S 07,Letter,Y,TRUE,CV,q,786,shuf
CVOE updated,101,1,4,17,J 10,Letter,N,FALSE,CV,q,1511,shuf
CVOE updated,101,1,4,18,H 54,Number,Y,FALSE,OE,p,1005,shuf
CVOE updated,101,1,4,19,E 99,Number,N,FALSE,OE,q,912,shuf
CVOE updated,101,1,4,20,J 36,Letter,Y,FALSE,CV,q,1454,shuf
CVOE updated,101,1,4,21,I 94,Letter,N,TRUE,CV,p,1136,shuf
CVOE updated,101,1,4,22,A 82,Letter,N,TRUE,CV,p,1030,shuf
CVOE updated,101,1,4,23,H 79,Number,Y,TRUE,OE,q,728,shuf
CVOE updated,101,1,4,24,J 60,Number,N,FALSE,OE,p,1557,shuf
CVOE updated,101,1,4,25,S 28,Letter,Y,FALSE,CV,q,1428,shuf
CVOE updated,101,1,4,26,P 11,Number,Y,TRUE,OE,q,1549,shuf
CVOE updated,101,1,4,27,D 39,Number,N,TRUE,OE,q,1170,shuf
CVOE updated,101,1,4,28,E 90,Number,N,TRUE,OE,p,1079,shuf
CVOE updated,101,1,4,29,I 38,Number,N,TRUE,OE,p,887,shuf
CVOE updated,101,1,4,30,S 35,Letter,Y,TRUE,CV,q,903,shuf
CVOE updated,101,1,4,31,D 41,Number,Y,TRUE,OE,q,1174,shuf
CVOE updated,101,1,4,32,E 06,Number,N,TRUE,OE,p,1107,shuf
CVOE updated,101,1,4,33,A 27,Number,N,FALSE,OE,q,1330,shuf
CVOE updated,101,1,4,34,U 95,Letter,Y,FALSE,CV,p,1464,shuf
CVOE updated,101,1,4,35,A 53,Letter,N,FALSE,CV,p,912,shuf
CVOE updated,101,1,4,36,E 43,Letter,N,FALSE,CV,p,775,shuf
CVOE updated,101,1,4,37,P 05,Number,Y,TRUE,OE,q,707,shuf
CVOE updated,101,1,4,38,O 19,Letter,Y,FALSE,CV,p,1450,shuf
CVOE updated,101,1,4,39,I 96,Number,Y,TRUE,OE,p,1276,shuf
CVOE updated,101,1,4,40,A 88,Number,N,TRUE,OE,p,1556,shuf
CVOE updated,101,1,4,41,I 67,Number,N,FALSE,OE,q,1290,shuf
CVOE updated,101,1,4,42,D 40,Number,N,FALSE,OE,p,874,shuf
CVOE updated,101,1,4,43,P 79,Letter,Y,TRUE,CV,q,1754,shuf
CVOE updated,101,1,4,44,U 24,Number,Y,TRUE,OE,p,1950,shuf
CVOE updated,101,1,4,45,P 74,Number,N,FALSE,OE,p,852,shuf
CVOE updated,101,1,4,46,E 70,Number,N,TRUE,OE,p,5862,shuf
CVOE updated,101,1,4,47,S 27,Number,N,TRUE,OE,q,901,shuf
CVOE updated,101,1,4,48,E 54,Letter,Y,TRUE,CV,p,1629,shuf
CVOE updated,101,1,4,49,A 53,Letter,N,FALSE,CV,p,1015,shuf
CVOE updated,101,1,4,50,P 34,Letter,N,FALSE,CV,q,706,shuf
CVOE updated,101,1,4,51,D 74,Number,Y,FALSE,OE,p,817,shuf
CVOE updated,101,1,4,52,A 03,Letter,Y,FALSE,CV,p,1243,shuf
CVOE updated,101,1,4,53,E 24,Number,Y,TRUE,OE,p,997,shuf
CVOE updated,101,1,4,54,I 58,Letter,Y,TRUE,CV,p,1224,shuf
CVOE updated,101,1,4,55,D 77,Number,Y,TRUE,OE,q,1746,shuf
CVOE updated,101,1,4,56,S 75,Number,N,TRUE,OE,q,1384,shuf
CVOE updated,101,1,4,57,I 20,Letter,Y,TRUE,CV,p,1115,shuf
CVOE updated,101,1,4,58,J 52,Letter,N,FALSE,CV,q,1258,shuf
CVOE updated,101,1,4,59,A 38,Number,Y,TRUE,OE,p,1026,shuf
CVOE updated,101,1,4,60,I 60,Letter,Y,TRUE,CV,p,1005,shuf
CVOE updated,101,1,4,61,S 51,Number,Y,TRUE,OE,q,1624,shuf
CVOE updated,101,1,4,62,D 63,Letter,Y,TRUE,CV,q,1571,shuf
CVOE updated,101,1,4,63,U 27,Letter,N,FALSE,CV,p,1199,shuf
CVOE updated,101,1,4,64,J 77,Letter,N,TRUE,CV,q,731,shuf
CVOE updated,101,1,4,65,O 15,Number,Y,FALSE,OE,q,1001,shuf
CVOE updated,101,1,4,66,J 20,Letter,Y,FALSE,CV,q,796,shuf
CVOE updated,101,1,4,67,U 97,Number,Y,FALSE,OE,q,983,shuf
CVOE updated,101,1,4,68,H 03,Number,N,TRUE,OE,q,1675,shuf
CVOE updated,101,1,4,69,O 04,Letter,Y,TRUE,CV,p,1123,shuf
CVOE updated,101,1,4,70,E 10,Letter,N,TRUE,CV,p,1146,shuf
CVOE updated,101,1,4,71,I 52,Letter,N,TRUE,CV,p,831,shuf
CVOE updated,101,1,4,72,H 81,Number,Y,TRUE,OE,q,1089,shuf
CVOE updated,101,1,4,73,I 41,Number,N,FALSE,OE,q,2105,shuf
CVOE updated,101,1,4,74,U 19,Letter,Y,FALSE,CV,p,1840,shuf
CVOE updated,101,1,4,75,O 17,Number,Y,FALSE,OE,p,722,shuf
CVOE updated,101,1,4,76,A 10,Number,N,TRUE,OE,p,1697,shuf
CVOE updated,101,1,4,77,P 93,Letter,Y,TRUE,CV,q,984,shuf
CVOE updated,101,1,4,78,E 59,Letter,N,FALSE,CV,p,1964,shuf
CVOE updated,101,1,4,79,O 53,Letter,N,FALSE,CV,p,1288,shuf
CVOE updated,101,1,4,80,A 96,Letter,N,TRUE,CV,p,1096,shuf
CVOE updated,101,1,4,81,H 36,Letter,Y,FALSE,CV,q,711,shuf
CVOE updated,101,1,4,82,A 63,Letter,N,FALSE,CV,p,766,shuf
CVOE updated,101,1,4,83,I 38,Letter,N,TRUE,CV,p,2698,shuf
CVOE updated,101,1,4,84,O 51,Number,Y,FALSE,OE,q,1362,shuf
CVOE updated,101,1,4,85,J 26,Number,N,FALSE,OE,q,1262,shuf
CVOE updated,101,1,4,86,S 34,Letter,Y,FALSE,CV,q,1223,shuf
CVOE updated,101,1,4,87,U 85,Number,Y,FALSE,OE,q,961,shuf
CVOE updated,101,1,4,88,J 77,Number,N,TRUE,OE,q,878,shuf
CVOE updated,101,1,4,89,I 73,Letter,Y,FALSE,CV,p,934,shuf
CVOE updated,101,1,4,90,H 46,Number,Y,FALSE,OE,q,740,shuf
CVOE updated,101,1,4,91,D 04,Number,N,FALSE,OE,q,825,shuf
CVOE updated,101,1,4,92,P 72,Letter,Y,FALSE,CV,q,5188,shuf
CVOE updated,101,1,4,93,D 99,Number,Y,TRUE,OE,q,1776,shuf
CVOE updated,101,1,4,94,U 25,Letter,Y,FALSE,CV,p,684,shuf
CVOE updated,101,1,4,95,O 32,Letter,N,TRUE,CV,p,884,shuf
CVOE updated,101,1,4,96,E 80,Letter,N,TRUE,CV,p,884,shuf
CVOE updated,101,1,4,97,O 84,Number,Y,TRUE,OE,p,1364,shuf
CVOE updated,101,1,4,98,A 78,Number,N,TRUE,OE,p,1752,shuf
CVOE updated,101,1,4,99,S 05,Number,N,TRUE,OE,q,1598,shuf
CVOE updated,101,1,4,100,U 35,Letter,Y,FALSE,CV,p,1321,shuf
CVOE updated,101,1,4,101,H 14,Letter,N,FALSE,CV,q,1431,shuf
CVOE updated,101,1,4,102,U 15,Number,Y,FALSE,OE,q,1393,shuf
CVOE updated,101,1,4,103,E 36,Letter,Y,TRUE,CV,p,836,shuf
CVOE updated,101,1,4,104,P 70,Letter,N,FALSE,CV,q,1550,shuf
CVOE updated,101,1,4,105,O 44,Number,Y,TRUE,OE,p,819,shuf
CVOE updated,101,1,4,106,S 41,Letter,Y,TRUE,CV,q,1078,shuf
CVOE updated,101,1,4,107,D 83,Letter,N,TRUE,CV,q,950,shuf
CVOE updated,101,1,4,108,J 39,Letter,N,TRUE,CV,q,891,shuf
CVOE updated,101,1,4,109,S 22,Number,Y,FALSE,OE,p,1347,shuf
CVOE updated,101,1,4,110,D 89,Letter,Y,TRUE,CV,q,1512,shuf
CVOE updated,101,1,4,111,P 87,Letter,N,TRUE,CV,q,1735,shuf
CVOE updated,101,1,4,112,H 42,Letter,N,FALSE,CV,q,1461,shuf
CVOE updated,101,1,4,113,S 49,Letter,N,TRUE,CV,q,861,shuf
CVOE updated,101,1,4,114,J 20,Number,Y,FALSE,OE,p,982,shuf
CVOE updated,101,1,4,115,O 19,Letter,Y,FALSE,CV,p,1282,shuf
CVOE updated,101,1,4,116,H 50,Letter,N,FALSE,CV,q,978,shuf
CVOE updated,101,1,4,117,I 68,Number,Y,TRUE,OE,p,981,shuf
CVOE updated,101,1,4,118,J 72,Number,N,FALSE,OE,p,1033,shuf
CVOE updated,101,1,4,119,O 21,Number,N,FALSE,OE,q,843,shuf
CVOE updated,101,1,4,120,H 22,Number,N,FALSE,OE,p,988,shuf
CVOE updated,93,1,1,11,A 71,,,FALSE,CV,p,1076,cv
CVOE updated,93,1,1,12,I 66,,,TRUE,CV,p,547,cv
CVOE updated,93,1,1,13,S 30,,,FALSE,CV,q,457,cv
CVOE updated,93,1,1,14,D 20,,,FALSE,CV,q,458,cv
CVOE updated,93,1,1,15,I 31,,,FALSE,CV,p,467,cv
CVOE updated,93,1,1,16,P 16,,,FALSE,CV,q,388,cv
CVOE updated,93,1,1,17,A 49,,,FALSE,CV,p,432,cv
CVOE updated,93,1,1,18,O 64,,,TRUE,CV,p,410,cv
CVOE updated,93,1,1,19,D 02,,,FALSE,CV,q,412,cv
CVOE updated,93,1,1,20,P 81,,,TRUE,CV,q,551,cv
CVOE updated,93,1,1,21,J 58,,,FALSE,CV,q,764,cv
CVOE updated,93,1,1,22,A 22,,,TRUE,CV,p,537,cv
CVOE updated,93,1,1,23,J 72,,,FALSE,CV,q,487,cv
CVOE updated,93,1,1,24,P 91,,,TRUE,CV,q,487,cv
CVOE updated,93,1,1,25,E 19,,,FALSE,CV,p,535,cv
CVOE updated,93,1,1,26,I 30,,,TRUE,CV,p,548,cv
CVOE updated,93,1,1,27,D 91,,,TRUE,CV,q,418,cv
CVOE updated,93,1,1,28,O 48,,,TRUE,CV,p,452,cv
CVOE updated,93,1,1,29,A 89,,,FALSE,CV,p,510,cv
CVOE updated,93,1,1,30,U 11,,,FALSE,CV,p,444,cv
CVOE updated,93,1,1,31,I 76,,,TRUE,CV,p,621,cv
CVOE updated,93,1,1,32,U 89,,,FALSE,CV,p,400,cv
CVOE updated,93,1,1,33,D 63,,,TRUE,CV,q,539,cv
CVOE updated,93,1,1,34,H 70,,,FALSE,CV,q,561,cv
CVOE updated,93,1,1,35,D 48,,,FALSE,CV,q,710,cv
CVOE updated,93,1,1,36,P 56,,,FALSE,CV,q,420,cv
CVOE updated,93,1,1,37,O 77,,,FALSE,CV,p,655,cv
CVOE updated,93,1,1,38,P 42,,,FALSE,CV,q,496,cv
CVOE updated,93,1,1,39,H 22,,,FALSE,CV,q,551,cv
CVOE updated,93,1,1,40,E 42,,,TRUE,CV,p,477,cv
CVOE updated,93,1,1,41,J 28,,,FALSE,CV,q,397,cv
CVOE updated,93,1,1,42,E 95,,,FALSE,CV,p,752,cv
CVOE updated,93,1,1,43,S 63,,,TRUE,CV,q,581,cv
CVOE updated,93,1,1,44,H 50,,,FALSE,CV,q,561,cv
CVOE updated,93,1,1,45,S 33,,,TRUE,CV,q,734,cv
CVOE updated,93,1,1,46,P 57,,,TRUE,CV,q,380,cv
CVOE updated,93,1,1,47,E 23,,,FALSE,CV,p,472,cv
CVOE updated,93,1,1,48,S 61,,,TRUE,CV,q,920,cv
CVOE updated,93,1,1,49,U 67,,,FALSE,CV,p,568,cv
CVOE updated,93,1,1,50,H 32,,,FALSE,CV,q,563,cv
CVOE updated,93,1,1,51,U 50,,,TRUE,CV,p,616,cv
CVOE updated,93,1,1,52,O 49,,,FALSE,CV,p,531,cv
CVOE updated,93,1,1,53,U 32,,,TRUE,CV,p,456,cv
CVOE updated,93,1,1,54,J 78,,,FALSE,CV,q,522,cv
CVOE updated,93,1,1,55,S 54,,,FALSE,CV,q,496,cv
CVOE updated,93,1,1,56,J 27,,,TRUE,CV,q,448,cv
CVOE updated,93,1,1,57,S 06,,,FALSE,CV,q,425,cv
CVOE updated,93,1,1,58,D 67,,,TRUE,CV,q,875,cv
CVOE updated,93,1,1,59,A 79,,,FALSE,CV,p,603,cv
CVOE updated,93,1,1,60,S 52,,,FALSE,CV,q,559,cv
CVOE updated,93,1,1,61,U 16,,,TRUE,CV,p,579,cv
CVOE updated,93,1,1,62,O 82,,,TRUE,CV,p,519,cv
CVOE updated,93,1,1,63,H 87,,,TRUE,CV,q,478,cv
CVOE updated,93,1,1,64,I 32,,,TRUE,CV,p,494,cv
CVOE updated,93,1,1,65,U 37,,,FALSE,CV,p,541,cv
CVOE updated,93,1,1,66,I 42,,,TRUE,CV,p,468,cv
CVOE updated,93,1,1,67,D 65,,,TRUE,CV,q,603,cv
CVOE updated,93,1,1,68,U 77,,,FALSE,CV,p,447,cv
CVOE updated,93,1,1,69,E 12,,,TRUE,CV,p,608,cv
CVOE updated,93,1,1,70,I 60,,,TRUE,CV,p,507,cv
CVOE updated,93,1,1,71,J 36,,,FALSE,CV,q,539,cv
CVOE updated,93,1,1,72,H 75,,,TRUE,CV,q,536,cv
CVOE updated,93,1,1,73,I 50,,,TRUE,CV,p,486,cv
CVOE updated,93,1,1,74,E 99,,,FALSE,CV,p,526,cv
CVOE updated,93,1,1,75,A 86,,,TRUE,CV,p,492,cv
CVOE updated,93,1,1,76,U 48,,,TRUE,CV,p,412,cv
CVOE updated,93,1,1,77,E 01,,,FALSE,CV,p,526,cv
CVOE updated,93,1,1,78,A 78,,,TRUE,CV,p,436,cv
CVOE updated,93,1,1,79,P 60,,,FALSE,CV,p,526,cv
CVOE updated,93,1,1,80,E 43,,,FALSE,CV,p,636,cv
CVOE updated,93,1,1,81,D 69,,,TRUE,CV,q,526,cv
CVOE updated,93,1,1,82,H 11,,,TRUE,CV,q,468,cv
CVOE updated,93,1,1,83,P 43,,,TRUE,CV,q,565,cv
CVOE updated,93,1,1,84,O 67,,,FALSE,CV,p,441,cv
CVOE updated,93,1,1,85,S 91,,,FALSE,CV,q,364,cv
CVOE updated,93,1,1,86,J 68,,,TRUE,CV,q,439,cv
CVOE updated,93,1,1,87,S 47,,,FALSE,CV,q,466,cv
CVOE updated,93,1,1,88,I 81,,,TRUE,CV,p,442,cv
CVOE updated,93,1,1,89,J 39,,,FALSE,CV,q,411,cv
CVOE updated,93,1,1,90,A 11,,,TRUE,CV,p,510,cv
CVOE updated,93,1,1,91,O 76,,,FALSE,CV,p,460,cv
CVOE updated,93,1,1,92,A 62,,,FALSE,CV,p,453,cv
CVOE updated,93,1,1,93,O 27,,,TRUE,CV,p,415,cv
CVOE updated,93,1,1,94,E 66,,,FALSE,CV,q,450,cv
CVOE updated,93,1,1,95,J 62,,,TRUE,CV,q,506,cv
CVOE updated,93,1,1,96,H 72,,,TRUE,CV,q,530,cv
CVOE updated,93,1,1,97,E 49,,,TRUE,CV,p,504,cv
CVOE updated,93,1,1,98,D 52,,,TRUE,CV,q,463,cv
CVOE updated,93,1,1,99,H 62,,,TRUE,CV,q,511,cv
CVOE updated,93,1,1,100,I 11,,,TRUE,CV,p,534,cv
CVOE updated,93,1,1,101,A 98,,,FALSE,CV,p,452,cv
CVOE updated,93,1,1,102,H 29,,,FALSE,CV,q,461,cv
CVOE updated,93,1,1,103,E 83,,,TRUE,CV,p,502,cv
CVOE updated,93,1,1,104,D 43,,,FALSE,CV,q,501,cv
CVOE updated,93,1,1,105,P 45,,,TRUE,CV,q,509,cv
CVOE updated,93,1,1,106,J 17,,,TRUE,CV,q,595,cv
CVOE updated,93,1,2,11,A 24,,,TRUE,OE,p,1100,oe
CVOE updated,93,1,2,12,O 83,,,FALSE,OE,q,876,oe
CVOE updated,93,1,2,13,H 55,,,TRUE,OE,q,731,oe
CVOE updated,93,1,2,14,P 10,,,FALSE,OE,p,697,oe
CVOE updated,93,1,2,15,D 30,,,FALSE,OE,p,537,oe
CVOE updated,93,1,2,16,U 62,,,TRUE,OE,p,615,oe
CVOE updated,93,1,2,17,P 95,,,TRUE,OE,q,578,oe
CVOE updated,93,1,2,18,U 06,,,TRUE,OE,p,670,oe
CVOE updated,93,1,2,19,E 75,,,FALSE,OE,q,525,oe
CVOE updated,93,1,2,20,I 67,,,FALSE,OE,q,604,oe
CVOE updated,93,1,2,21,S 13,,,TRUE,OE,q,608,oe
CVOE updated,93,1,2,22,P 78,,,FALSE,OE,p,651,oe
CVOE updated,93,1,2,23,I 15,,,FALSE,OE,q,668,oe
CVOE updated,93,1,2,24,D 27,,,TRUE,OE,q,549,oe
CVOE updated,93,1,2,25,O 94,,,TRUE,OE,p,538,oe
CVOE updated,93,1,2,26,A 65,,,FALSE,OE,q,592,oe
CVOE updated,93,1,2,27,I 42,,,TRUE,OE,p,532,oe
CVOE updated,93,1,2,28,E 25,,,FALSE,OE,q,498,oe
CVOE updated,93,1,2,29,H 49,,,TRUE,OE,q,505,oe
CVOE updated,93,1,2,30,S 18,,,FALSE,OE,p,599,oe
CVOE updated,93,1,2,31,H 51,,,TRUE,OE,q,500,oe
CVOE updated,93,1,2,32,U 14,,,TRUE,OE,p,635,oe
CVOE updated,93,1,2,33,E 02,,,TRUE,OE,p,581,oe
CVOE updated,93,1,2,34,J 26,,,FALSE,OE,p,513,oe
CVOE updated,93,1,2,35,D 24,,,FALSE,OE,p,527,oe
CVOE updated,93,1,2,36,O 50,,,TRUE,OE,p,517,oe
CVOE updated,93,1,2,37,U 16,,,TRUE,OE,p,484,oe
CVOE updated,93,1,2,38,O 15,,,FALSE,OE,q,420,oe
CVOE updated,93,1,2,39,D 32,,,FALSE,OE,p,438,oe
CVOE updated,93,1,2,40,S 67,,,TRUE,OE,q,432,oe
CVOE updated,93,1,2,41,J 74,,,FALSE,OE,p,554,oe
CVOE updated,93,1,2,42,D 92,,,FALSE,OE,p,470,oe
CVOE updated,93,1,2,43,A 65,,,FALSE,OE,q,480,oe
CVOE updated,93,1,2,44,I 87,,,FALSE,OE,q,640,oe
CVOE updated,93,1,2,45,H 61,,,TRUE,OE,q,578,oe
CVOE updated,93,1,2,46,E 59,,,FALSE,OE,q,518,oe
CVOE updated,93,1,2,47,I 33,,,FALSE,OE,p,595,oe
CVOE updated,93,1,2,48,O 90,,,TRUE,OE,p,560,oe
CVOE updated,93,1,2,49,U 51,,,FALSE,OE,q,508,oe
CVOE updated,93,1,2,50,A 10,,,TRUE,OE,p,612,oe
CVOE updated,93,1,2,51,E 50,,,TRUE,OE,p,790,oe
CVOE updated,93,1,2,52,D 92,,,FALSE,OE,p,498,oe
CVOE updated,93,1,2,53,E 60,,,TRUE,OE,p,569,oe
CVOE updated,93,1,2,54,A 95,,,FALSE,OE,q,486,oe
CVOE updated,93,1,2,55,E 64,,,TRUE,OE,p,494,oe
CVOE updated,93,1,2,56,P 20,,,FALSE,OE,p,533,oe
CVOE updated,93,1,2,57,S 06,,,FALSE,OE,p,731,oe
CVOE updated,93,1,2,58,P 64,,,FALSE,OE,p,689,oe
CVOE updated,93,1,2,59,U 70,,,TRUE,OE,p,561,oe
CVOE updated,93,1,2,60,S 16,,,FALSE,OE,p,693,oe
CVOE updated,93,1,2,61,E 35,,,FALSE,OE,q,693,oe
CVOE updated,93,1,2,62,I 93,,,FALSE,OE,q,613,oe
CVOE updated,93,1,2,63,D 63,,,TRUE,OE,q,655,oe
CVOE updated,93,1,2,64,U 89,,,FALSE,OE,q,680,oe
CVOE updated,93,1,2,65,E 91,,,FALSE,OE,q,896,oe
CVOE updated,93,1,2,66,A 12,,,TRUE,OE,p,776,oe
CVOE updated,93,1,2,67,P 56,,,FALSE,OE,p,636,oe
CVOE updated,93,1,2,68,S 65,,,TRUE,OE,q,598,oe
CVOE updated,93,1,2,69,P 07,,,TRUE,OE,q,553,oe
CVOE updated,93,1,2,70,I 77,,,FALSE,OE,q,511,oe
CVOE updated,93,1,2,71,J 19,,,TRUE,OE,q,717,oe
CVOE updated,93,1,2,72,O 59,,,FALSE,OE,q,540,oe
CVOE updated,93,1,2,73,J 15,,,TRUE,OE,q,546,oe
CVOE updated,93,1,2,74,I 89,,,FALSE,OE,q,495,oe
CVOE updated,93,1,2,75,O 97,,,FALSE,OE,q,462,oe
CVOE updated,93,1,2,76,A 92,,,TRUE,OE,p,599,oe
CVOE updated,93,1,2,77,J 90,,,FALSE,OE,p,586,oe
CVOE updated,93,1,2,78,H 65,,,TRUE,OE,q,566,oe
CVOE updated,93,1,2,79,H 17,,,TRUE,OE,q,563,oe
CVOE updated,93,1,2,80,S 26,,,FALSE,OE,p,655,oe
CVOE updated,93,1,2,81,D 56,,,FALSE,OE,p,520,oe
CVOE updated,93,1,2,82,I 91,,,FALSE,OE,q,591,oe
CVOE updated,93,1,2,83,J 11,,,TRUE,OE,q,779,oe
CVOE updated,93,1,2,84,O 28,,,TRUE,OE,p,631,oe
CVOE updated,93,1,2,85,H 29,,,TRUE,OE,q,617,oe
CVOE updated,93,1,2,86,J 25,,,TRUE,OE,q,507,oe
CVOE updated,93,1,2,87,A 73,,,FALSE,OE,q,443,oe
CVOE updated,93,1,2,88,J 63,,,TRUE,OE,q,501,oe
CVOE updated,93,1,2,89,U 84,,,TRUE,OE,p,532,oe
CVOE updated,93,1,2,90,A 58,,,TRUE,OE,p,554,oe
CVOE updated,93,1,2,91,S 43,,,TRUE,OE,q,503,oe
CVOE updated,93,1,2,92,H 54,,,FALSE,OE,p,542,oe
CVOE updated,93,1,2,93,D 4,,,FALSE,OE,p,660,oe
CVOE updated,93,1,2,94,J 75,,,TRUE,OE,q,501,oe
CVOE updated,93,1,2,95,D 19,,,TRUE,OE,q,508,oe
CVOE updated,93,1,2,96,J 38,,,FALSE,OE,p,563,oe
CVOE updated,93,1,2,97,I 56,,,TRUE,OE,p,568,oe
CVOE updated,93,1,2,98,P 87,,,TRUE,OE,q,437,oe
CVOE updated,93,1,2,99,O 80,,,TRUE,OE,p,599,oe
CVOE updated,93,1,2,100,U 60,,,TRUE,OE,p,698,oe
CVOE updated,93,1,2,101,P 48,,,FALSE,OE,p,609,oe
CVOE updated,93,1,2,102,H 64,,,FALSE,OE,p,620,oe
CVOE updated,93,1,2,103,A 13,,,FALSE,OE,q,583,oe
CVOE updated,93,1,2,104,H 68,,,FALSE,OE,p,531,oe
CVOE updated,93,1,2,105,E 16,,,TRUE,OE,p,401,oe
CVOE updated,93,1,2,106,S 71,,,TRUE,OE,q,580,oe
CVOE updated,93,1,3,11,A 44,Letter,N,TRUE,CV,p,1583,alt
CVOE updated,93,1,3,12,D 94,Letter,N,FALSE,CV,q,643,alt
CVOE updated,93,1,3,13,E 75,Number,Y,FALSE,OE,q,1428,alt
CVOE updated,93,1,3,14,H 81,Number,N,TRUE,OE,q,1486,alt
CVOE updated,93,1,3,15,I 64,Letter,Y,TRUE,CV,p,1038,alt
CVOE updated,93,1,3,16,J 54,Letter,N,FALSE,CV,q,736,alt
CVOE updated,93,1,3,17,O 23,Number,Y,FALSE,OE,q,782,alt
CVOE updated,93,1,3,18,P 05,Number,N,TRUE,OE,q,930,alt
CVOE updated,93,1,3,19,S 34,Letter,Y,FALSE,CV,q,1368,alt
CVOE updated,93,1,3,20,U 88,Letter,N,TRUE,CV,p,1204,alt
CVOE updated,93,1,3,21,A 70,Number,Y,TRUE,OE,p,1296,alt
CVOE updated,93,1,3,22,D 12,Number,N,FALSE,OE,p,855,alt
CVOE updated,93,1,3,23,E 79,Letter,Y,FALSE,CV,q,1448,alt
CVOE updated,93,1,3,24,H 72,Letter,N,FALSE,CV,q,689,alt
CVOE updated,93,1,3,25,I 41,Number,Y,FALSE,OE,q,849,alt
CVOE updated,93,1,3,26,J 63,Number,N,TRUE,OE,q,1010,alt
CVOE updated,93,1,3,27,O 03,Letter,Y,FALSE,CV,p,1517,alt
CVOE updated,93,1,3,28,P 75,Letter,N,TRUE,CV,q,708,alt
CVOE updated,93,1,3,29,S 61,Number,Y,TRUE,OE,q,835,alt
CVOE updated,93,1,3,30,U 28,Number,N,TRUE,OE,p,733,alt
CVOE updated,93,1,3,31,A 21,Letter,Y,FALSE,CV,q,723,alt
CVOE updated,93,1,3,32,D 18,Letter,N,FALSE,CV,q,601,alt
CVOE updated,93,1,3,33,E 35,Number,Y,FALSE,OE,q,916,alt
CVOE updated,93,1,3,34,H 62,Number,N,FALSE,OE,q,691,alt
CVOE updated,93,1,3,35,I 82,Letter,Y,TRUE,CV,p,1371,alt
CVOE updated,93,1,3,36,J 78,Letter,N,FALSE,CV,q,1039,alt
CVOE updated,93,1,3,37,O 12,Number,Y,TRUE,OE,p,777,alt
CVOE updated,93,1,3,38,P 13,Number,N,TRUE,OE,q,1333,alt
CVOE updated,93,1,3,39,S 07,Letter,Y,TRUE,CV,q,731,alt
CVOE updated,93,1,3,40,U 36,Letter,N,TRUE,CV,p,761,alt
CVOE updated,93,1,3,41,A 96,Number,Y,TRUE,OE,p,1078,alt
CVOE updated,93,1,3,42,D 04,Number,N,FALSE,OE,p,1518,alt
CVOE updated,93,1,3,43,E 60,Letter,Y,TRUE,CV,p,860,alt
CVOE updated,93,1,3,44,H 83,Letter,N,TRUE,CV,q,813,alt
CVOE updated,93,1,3,45,I 64,Number,Y,TRUE,OE,p,767,alt
CVOE updated,93,1,3,46,J 76,Number,N,FALSE,OE,p,908,alt
CVOE updated,93,1,3,47,O 78,Letter,Y,TRUE,CV,p,1155,alt
CVOE updated,93,1,3,48,P 09,Letter,N,TRUE,CV,q,912,alt
CVOE updated,93,1,3,49,S 72,Number,Y,FALSE,OE,p,783,alt
CVOE updated,93,1,3,50,U 47,Number,N,FALSE,OE,q,803,alt
CVOE updated,93,1,3,51,A 31,Letter,Y,FALSE,CV,p,726,alt
CVOE updated,93,1,3,52,D 96,Letter,N,FALSE,CV,q,701,alt
CVOE updated,93,1,3,53,E 40,Number,Y,TRUE,OE,p,740,alt
CVOE updated,93,1,3,54,H 79,Number,N,TRUE,OE,q,1554,alt
CVOE updated,93,1,3,55,I 15,Letter,Y,FALSE,CV,p,679,alt
CVOE updated,93,1,3,56,J 07,Letter,N,TRUE,CV,q,927,alt
CVOE updated,93,1,3,57,O 61,Number,Y,FALSE,OE,q,1605,alt
CVOE updated,93,1,3,58,P 58,Number,N,FALSE,OE,p,872,alt
CVOE updated,93,1,3,59,S 37,Letter,Y,TRUE,CV,q,816,alt
CVOE updated,93,1,3,60,U 61,Letter,N,FALSE,CV,p,691,alt
CVOE updated,93,1,3,61,A 17,Number,Y,FALSE,OE,q,1475,alt
CVOE updated,93,1,3,62,D 85,Number,N,TRUE,OE,q,1548,alt
CVOE updated,93,1,3,63,E 20,Letter,Y,TRUE,CV,p,1425,alt
CVOE updated,93,1,3,64,H 86,Letter,N,FALSE,CV,q,667,alt
CVOE updated,93,1,3,65,I 21,Number,Y,FALSE,OE,q,732,alt
CVOE updated,93,1,3,66,J 29,Number,N,TRUE,OE,q,818,alt
CVOE updated,93,1,3,67,O 13,Letter,Y,FALSE,CV,p,628,alt
CVOE updated,93,1,3,68,P 82,Letter,N,FALSE,CV,q,1110,alt
CVOE updated,93,1,3,69,S 72,Number,Y,FALSE,OE,p,1021,alt
CVOE updated,93,1,3,70,U 84,Number,N,TRUE,OE,p,823,alt
CVOE updated,93,1,3,71,A 49,Letter,Y,FALSE,CV,p,674,alt
CVOE updated,93,1,3,72,D 91,Letter,N,TRUE,CV,q,843,alt
CVOE updated,93,1,3,73,E 99,Number,Y,FALSE,OE,p,740,alt
CVOE updated,93,1,3,74,H 16,Number,N,FALSE,OE,p,1506,alt
CVOE updated,93,1,3,75,I 45,Letter,Y,FALSE,CV,p,1146,alt
CVOE updated,93,1,3,76,J 70,Letter,N,FALSE,CV,q,663,alt
CVOE updated,93,1,3,77,O 22,Number,Y,TRUE,OE,p,1087,alt
CVOE updated,93,1,3,78,P 41,Number,N,TRUE,OE,q,1143,alt
CVOE updated,93,1,3,79,S 93,Letter,Y,TRUE,CV,q,708,alt
CVOE updated,93,1,3,80,U 70,Letter,N,TRUE,CV,p,1108,alt
CVOE updated,93,1,3,81,A 42,Number,Y,TRUE,OE,p,1163,alt
CVOE updated,93,1,3,82,D 85,Number,N,TRUE,OE,q,1647,alt
CVOE updated,93,1,3,83,E 68,Letter,Y,TRUE,CV,p,921,alt
CVOE updated,93,1,3,84,H 17,Letter,N,TRUE,CV,q,911,alt
CVOE updated,93,1,3,85,I 70,Number,Y,TRUE,OE,p,1182,alt
CVOE updated,93,1,3,86,J 88,Number,N,FALSE,OE,p,1178,alt
CVOE updated,93,1,3,87,O 32,Letter,Y,TRUE,CV,p,1286,alt
CVOE updated,93,1,3,88,P 95,Letter,N,TRUE,CV,q,717,alt
CVOE updated,93,1,3,89,S 98,Number,Y,FALSE,OE,p,1052,alt
CVOE updated,93,1,3,90,U 37,Number,N,FALSE,OE,q,829,alt
CVOE updated,93,1,3,91,A 56,Letter,Y,TRUE,CV,p,1695,alt
CVOE updated,93,1,3,92,D 57,Letter,N,TRUE,CV,q,702,alt
CVOE updated,93,1,3,93,E 93,Number,Y,FALSE,OE,q,742,alt
CVOE updated,93,1,3,94,H 27,Number,N,TRUE,OE,q,844,alt
CVOE updated,93,1,3,95,I 35,Letter,Y,FALSE,CV,p,933,alt
CVOE updated,93,1,3,96,J 03,Letter,N,TRUE,CV,q,939,alt
CVOE updated,93,1,3,97,O 28,Number,Y,TRUE,OE,p,929,alt
CVOE updated,93,1,3,98,P 59,Number,N,TRUE,OE,q,830,alt
CVOE updated,93,1,3,99,S 77,Letter,Y,TRUE,CV,q,952,alt
CVOE updated,93,1,3,100,U 05,Letter,N,FALSE,CV,p,1958,alt
CVOE updated,93,1,3,101,A 56,Number,Y,TRUE,OE,p,1019,alt
CVOE updated,93,1,3,102,D 01,Number,N,TRUE,OE,q,1221,alt
CVOE updated,93,1,3,103,E 02,Letter,Y,TRUE,CV,p,1152,alt
CVOE updated,93,1,3,104,H 68,Letter,N,FALSE,CV,q,717,alt
CVOE updated,93,1,3,105,I 05,Number,Y,FALSE,OE,q,988,alt
CVOE updated,93,1,3,106,J 55,Number,N,TRUE,OE,q,824,alt
CVOE updated,93,1,3,107,O 73,Letter,Y,FALSE,CV,p,1050,alt
CVOE updated,93,1,3,108,P 41,Letter,N,TRUE,CV,q,1067,alt
CVOE updated,93,1,3,109,S 92,Number,Y,FALSE,OE,p,884,alt
CVOE updated,93,1,3,110,U 34,Number,N,TRUE,OE,p,1068,alt
CVOE updated,93,1,3,111,A 09,Letter,Y,FALSE,CV,p,1356,alt
CVOE updated,93,1,3,112,D 92,Letter,N,FALSE,CV,q,698,alt
CVOE updated,93,1,3,113,E 48,Number,Y,TRUE,OE,p,993,alt
CVOE updated,93,1,3,114,H 76,Number,N,FALSE,OE,p,892,alt
CVOE updated,93,1,3,115,I 44,Letter,Y,TRUE,CV,p,964,alt
CVOE updated,93,1,3,116,J 67,Letter,N,TRUE,CV,q,921,alt
CVOE updated,93,1,3,117,O 48,Number,Y,TRUE,OE,p,927,alt
CVOE updated,93,1,3,118,P 22,Number,N,FALSE,OE,p,1069,alt
CVOE updated,93,1,3,119,S 86,Letter,Y,FALSE,CV,q,646,alt
CVOE updated,93,1,3,120,U 35,Letter,N,FALSE,CV,q,983,alt
CVOE updated,93,1,3,121,A 91,Number,Y,FALSE,OE,q,1755,alt
CVOE updated,93,1,3,122,D 78,Number,N,FALSE,OE,p,1584,alt
CVOE updated,93,1,3,123,E 91,Letter,Y,FALSE,CV,p,1324,alt
CVOE updated,93,1,3,124,H 54,Letter,N,FALSE,CV,q,978,alt
CVOE updated,93,1,3,125,I 65,Number,Y,FALSE,OE,q,854,alt
CVOE updated,93,1,3,126,J 52,Number,N,FALSE,OE,p,1543,alt
CVOE updated,93,1,3,127,O 19,Letter,Y,FALSE,CV,p,725,alt
CVOE updated,93,1,3,128,P 48,Letter,N,FALSE,CV,q,691,alt
CVOE updated,93,1,3,129,S 45,Number,Y,TRUE,OE,q,731,alt
CVOE updated,93,1,3,130,U 26,Number,N,TRUE,OE,p,1161,alt
CVOE updated,93,1,4,1,U 38,Number,N,TRUE,OE,p,1929,shuf
CVOE updated,93,1,4,2,P 73,Number,N,TRUE,OE,q,1535,shuf
CVOE updated,93,1,4,3,U 95,Letter,Y,FALSE,CV,p,1373,shuf
CVOE updated,93,1,4,4,J 61,Number,Y,TRUE,OE,q,1265,shuf
CVOE updated,93,1,4,5,D 51,Number,N,TRUE,OE,q,938,shuf
CVOE updated,93,1,4,6,S 28,Number,N,FALSE,OE,p,872,shuf
CVOE updated,93,1,4,7,A 56,Letter,Y,TRUE,CV,p,800,shuf
CVOE updated,93,1,4,8,H 78,Letter,N,FALSE,CV,q,1227,shuf
CVOE updated,93,1,4,9,P 92,Letter,N,FALSE,CV,q,565,shuf
CVOE updated,93,1,4,10,E 05,Number,Y,FALSE,OE,q,1178,shuf
CVOE updated,93,1,4,11,P 57,Letter,Y,TRUE,CV,q,1174,shuf
CVOE updated,93,1,4,12,D 88,Number,Y,FALSE,OE,p,986,shuf
CVOE updated,93,1,4,13,O 89,Letter,Y,FALSE,CV,p,1206,shuf
CVOE updated,93,1,4,14,U 43,Number,Y,FALSE,OE,q,1049,shuf
CVOE updated,93,1,4,15,H 10,Number,N,FALSE,OE,p,1539,shuf
CVOE updated,93,1,4,16,S 07,Letter,Y,TRUE,CV,q,945,shuf
CVOE updated,93,1,4,17,J 10,Letter,N,FALSE,CV,q,1158,shuf
CVOE updated,93,1,4,18,H 54,Number,Y,FALSE,OE,p,1139,shuf
CVOE updated,93,1,4,19,E 99,Number,N,FALSE,OE,q,1705,shuf
CVOE updated,93,1,4,20,J 36,Letter,Y,FALSE,CV,q,728,shuf
CVOE updated,93,1,4,21,I 94,Letter,N,TRUE,CV,p,1086,shuf
CVOE updated,93,1,4,22,A 82,Letter,N,TRUE,CV,p,686,shuf
CVOE updated,93,1,4,23,H 79,Number,Y,TRUE,OE,q,742,shuf
CVOE updated,93,1,4,24,J 60,Number,N,FALSE,OE,p,1612,shuf
CVOE updated,93,1,4,25,S 28,Letter,Y,FALSE,CV,q,1246,shuf
CVOE updated,93,1,4,26,P 11,Number,Y,TRUE,OE,q,1351,shuf
CVOE updated,93,1,4,27,D 39,Number,N,TRUE,OE,q,1397,shuf
CVOE updated,93,1,4,28,E 90,Number,N,TRUE,OE,p,944,shuf
CVOE updated,93,1,4,29,I 38,Number,N,TRUE,OE,p,949,shuf
CVOE updated,93,1,4,30,S 35,Letter,Y,TRUE,CV,q,922,shuf
CVOE updated,93,1,4,31,D 41,Number,Y,TRUE,OE,q,729,shuf
CVOE updated,93,1,4,32,E 06,Number,N,TRUE,OE,p,1495,shuf
CVOE updated,93,1,4,33,A 27,Number,N,FALSE,OE,q,1054,shuf
CVOE updated,93,1,4,34,U 95,Letter,Y,FALSE,CV,p,823,shuf
CVOE updated,93,1,4,35,A 53,Letter,N,FALSE,CV,p,1290,shuf
CVOE updated,93,1,4,36,E 43,Letter,N,FALSE,CV,p,906,shuf
CVOE updated,93,1,4,37,P 05,Number,Y,TRUE,OE,q,769,shuf
CVOE updated,93,1,4,38,O 19,Letter,Y,FALSE,CV,p,693,shuf
CVOE updated,93,1,4,39,I 96,Number,Y,TRUE,OE,p,1141,shuf
CVOE updated,93,1,4,40,A 88,Number,N,TRUE,OE,p,1019,shuf
CVOE updated,93,1,4,41,I 67,Number,N,FALSE,OE,q,1053,shuf
CVOE updated,93,1,4,42,D 40,Number,N,FALSE,OE,q,998,shuf
CVOE updated,93,1,4,43,P 79,Letter,Y,TRUE,CV,q,1050,shuf
CVOE updated,93,1,4,44,U 24,Number,Y,TRUE,OE,p,811,shuf
CVOE updated,93,1,4,45,P 74,Number,N,FALSE,OE,p,917,shuf
CVOE updated,93,1,4,46,E 70,Number,N,TRUE,OE,p,820,shuf
CVOE updated,93,1,4,47,S 27,Number,N,TRUE,OE,q,743,shuf
CVOE updated,93,1,4,48,E 54,Letter,Y,TRUE,CV,p,740,shuf
CVOE updated,93,1,4,49,A 53,Letter,N,FALSE,CV,q,850,shuf
CVOE updated,93,1,4,50,P 34,Letter,N,FALSE,CV,q,715,shuf
CVOE updated,93,1,4,51,D 74,Number,Y,FALSE,OE,p,922,shuf
CVOE updated,93,1,4,52,A 03,Letter,Y,FALSE,CV,p,648,shuf
CVOE updated,93,1,4,53,E 24,Number,Y,TRUE,OE,p,833,shuf
CVOE updated,93,1,4,54,I 58,Letter,Y,TRUE,CV,p,1619,shuf
CVOE updated,93,1,4,55,D 77,Number,Y,TRUE,OE,q,1102,shuf
CVOE updated,93,1,4,56,S 75,Number,N,TRUE,OE,q,1189,shuf
CVOE updated,93,1,4,57,I 20,Letter,Y,TRUE,CV,p,1561,shuf
CVOE updated,93,1,4,58,J 52,Letter,N,FALSE,CV,q,1629,shuf
CVOE updated,93,1,4,59,A 38,Number,Y,TRUE,OE,p,1071,shuf
CVOE updated,93,1,4,60,I 60,Letter,Y,TRUE,CV,p,1504,shuf
CVOE updated,93,1,4,61,S 51,Number,Y,TRUE,OE,q,887,shuf
CVOE updated,93,1,4,62,D 63,Letter,Y,TRUE,CV,q,1111,shuf
CVOE updated,93,1,4,63,U 27,Letter,N,FALSE,CV,p,1030,shuf
CVOE updated,93,1,4,64,J 77,Letter,N,TRUE,CV,q,895,shuf
CVOE updated,93,1,4,65,O 15,Number,Y,FALSE,OE,q,1583,shuf
CVOE updated,93,1,4,66,J 20,Letter,Y,FALSE,CV,q,747,shuf
CVOE updated,93,1,4,67,U 97,Number,Y,FALSE,OE,q,1024,shuf
CVOE updated,93,1,4,68,H 03,Number,N,TRUE,OE,q,1266,shuf
CVOE updated,93,1,4,69,O 04,Letter,Y,TRUE,CV,p,1043,shuf
CVOE updated,93,1,4,70,E 10,Letter,N,TRUE,CV,p,1204,shuf
CVOE updated,93,1,4,71,I 52,Letter,N,TRUE,CV,p,703,shuf
CVOE updated,93,1,4,72,H 81,Number,Y,TRUE,OE,q,815,shuf
CVOE updated,93,1,4,73,I 41,Number,N,FALSE,OE,p,1025,shuf
CVOE updated,93,1,4,74,U 19,Letter,Y,FALSE,CV,p,1076,shuf
CVOE updated,93,1,4,75,O 17,Number,Y,FALSE,OE,q,1148,shuf
CVOE updated,93,1,4,76,A 10,Number,N,TRUE,OE,p,1257,shuf
CVOE updated,93,1,4,77,P 93,Letter,Y,TRUE,CV,q,682,shuf
CVOE updated,93,1,4,78,E 59,Letter,N,FALSE,CV,p,1618,shuf
CVOE updated,93,1,4,79,O 53,Letter,N,FALSE,CV,p,1220,shuf
CVOE updated,93,1,4,80,A 96,Letter,N,TRUE,CV,p,703,shuf
CVOE updated,93,1,4,81,H 36,Letter,Y,FALSE,CV,q,678,shuf
CVOE updated,93,1,4,82,A 63,Letter,N,FALSE,CV,p,926,shuf
CVOE updated,93,1,4,83,I 38,Letter,N,TRUE,CV,q,812,shuf
CVOE updated,93,1,4,84,O 51,Number,Y,FALSE,OE,q,1167,shuf
CVOE updated,93,1,4,85,J 26,Number,N,FALSE,OE,p,1419,shuf
CVOE updated,93,1,4,86,S 34,Letter,Y,FALSE,CV,q,1614,shuf
CVOE updated,93,1,4,87,U 85,Number,Y,FALSE,OE,q,2720,shuf
CVOE updated,93,1,4,88,J 77,Number,N,TRUE,OE,q,751,shuf
CVOE updated,93,1,4,89,I 73,Letter,Y,FALSE,CV,p,652,shuf
CVOE updated,93,1,4,90,H 46,Number,Y,FALSE,OE,p,1117,shuf
CVOE updated,93,1,4,91,D 04,Number,N,FALSE,OE,p,1068,shuf
CVOE updated,93,1,4,92,P 72,Letter,Y,FALSE,CV,p,1228,shuf
CVOE updated,93,1,4,93,D 99,Number,Y,TRUE,OE,q,878,shuf
CVOE updated,93,1,4,94,U 25,Letter,Y,FALSE,CV,p,742,shuf
CVOE updated,93,1,4,95,O 32,Letter,N,TRUE,CV,p,1428,shuf
CVOE updated,93,1,4,96,E 80,Letter,N,TRUE,CV,p,646,shuf
CVOE updated,93,1,4,97,O 84,Number,Y,TRUE,OE,p,543,shuf
CVOE updated,93,1,4,98,A 78,Number,N,TRUE,OE,p,620,shuf
CVOE updated,93,1,4,99,S 05,Number,N,TRUE,OE,q,543,shuf
CVOE updated,93,1,4,100,U 35,Letter,Y,FALSE,CV,p,612,shuf
CVOE updated,93,1,4,101,H 14,Letter,N,FALSE,CV,q,679,shuf
CVOE updated,93,1,4,102,U 15,Number,Y,FALSE,OE,q,815,shuf
CVOE updated,93,1,4,103,E 36,Letter,Y,TRUE,CV,p,1129,shuf
CVOE updated,93,1,4,104,P 70,Letter,N,FALSE,CV,q,679,shuf
CVOE updated,93,1,4,105,O 44,Number,Y,TRUE,OE,p,1151,shuf
CVOE updated,93,1,4,106,S 41,Letter,Y,TRUE,CV,q,564,shuf
CVOE updated,93,1,4,107,D 83,Letter,N,TRUE,CV,q,1049,shuf
CVOE updated,93,1,4,108,J 39,Letter,N,TRUE,CV,q,682,shuf
CVOE updated,93,1,4,109,S 22,Number,Y,FALSE,OE,q,706,shuf
CVOE updated,93,1,4,110,D 89,Letter,Y,TRUE,CV,q,1569,shuf
CVOE updated,93,1,4,111,P 87,Letter,N,TRUE,CV,q,486,shuf
CVOE updated,93,1,4,112,H 42,Letter,N,FALSE,CV,q,886,shuf
CVOE updated,93,1,4,113,S 49,Letter,N,TRUE,CV,q,558,shuf
CVOE updated,93,1,4,114,J 20,Number,Y,FALSE,OE,p,931,shuf
CVOE updated,93,1,4,115,O 19,Letter,Y,FALSE,CV,q,873,shuf
CVOE updated,93,1,4,116,H 50,Letter,N,FALSE,CV,q,681,shuf
CVOE updated,93,1,4,117,I 68,Number,Y,TRUE,OE,p,1097,shuf
CVOE updated,93,1,4,118,J 72,Number,N,FALSE,OE,p,641,shuf
CVOE updated,93,1,4,119,O 21,Number,N,FALSE,OE,q,859,shuf
CVOE updated,93,1,4,120,H 22,Number,N,FALSE,OE,p,748,shuf
CVOE updated,97,1,1,11,A 71,,,FALSE,CV,p,976,cv
CVOE updated,97,1,1,12,I 66,,,TRUE,CV,p,389,cv
CVOE updated,97,1,1,13,S 30,,,FALSE,CV,q,321,cv
CVOE updated,97,1,1,14,D 20,,,FALSE,CV,q,655,cv
CVOE updated,97,1,1,15,I 31,,,FALSE,CV,p,480,cv
CVOE updated,97,1,1,16,P 16,,,FALSE,CV,q,431,cv
CVOE updated,97,1,1,17,A 49,,,FALSE,CV,p,362,cv
CVOE updated,97,1,1,18,O 64,,,TRUE,CV,p,487,cv
CVOE updated,97,1,1,19,D 02,,,FALSE,CV,q,423,cv
CVOE updated,97,1,1,20,P 81,,,TRUE,CV,q,441,cv
CVOE updated,97,1,1,21,J 58,,,FALSE,CV,q,362,cv
CVOE updated,97,1,1,22,A 22,,,TRUE,CV,p,312,cv
CVOE updated,97,1,1,23,J 72,,,FALSE,CV,q,398,cv
CVOE updated,97,1,1,24,P 91,,,TRUE,CV,q,441,cv
CVOE updated,97,1,1,25,E 19,,,FALSE,CV,p,428,cv
CVOE updated,97,1,1,26,I 30,,,TRUE,CV,p,414,cv
CVOE updated,97,1,1,27,D 91,,,TRUE,CV,q,320,cv
CVOE updated,97,1,1,28,O 48,,,TRUE,CV,p,406,cv
CVOE updated,97,1,1,29,A 89,,,FALSE,CV,p,394,cv
CVOE updated,97,1,1,30,U 11,,,FALSE,CV,p,437,cv
CVOE updated,97,1,1,31,I 76,,,TRUE,CV,p,399,cv
CVOE updated,97,1,1,32,U 89,,,FALSE,CV,p,362,cv
CVOE updated,97,1,1,33,D 63,,,TRUE,CV,q,359,cv
CVOE updated,97,1,1,34,H 70,,,FALSE,CV,q,357,cv
CVOE updated,97,1,1,35,D 48,,,FALSE,CV,q,442,cv
CVOE updated,97,1,1,36,P 56,,,FALSE,CV,q,436,cv
CVOE updated,97,1,1,37,O 77,,,FALSE,CV,p,333,cv
CVOE updated,97,1,1,38,P 42,,,FALSE,CV,q,396,cv
CVOE updated,97,1,1,39,H 22,,,FALSE,CV,q,415,cv
CVOE updated,97,1,1,40,E 42,,,TRUE,CV,p,417,cv
CVOE updated,97,1,1,41,J 28,,,FALSE,CV,q,332,cv
CVOE updated,97,1,1,42,E 95,,,FALSE,CV,p,402,cv
CVOE updated,97,1,1,43,S 63,,,TRUE,CV,q,317,cv
CVOE updated,97,1,1,44,H 50,,,FALSE,CV,q,436,cv
CVOE updated,97,1,1,45,S 33,,,TRUE,CV,q,342,cv
CVOE updated,97,1,1,46,P 57,,,TRUE,CV,p,684,cv
CVOE updated,97,1,1,47,E 23,,,FALSE,CV,p,732,cv
CVOE updated,97,1,1,48,S 61,,,TRUE,CV,q,434,cv
CVOE updated,97,1,1,49,U 67,,,FALSE,CV,p,595,cv
CVOE updated,97,1,1,50,H 32,,,FALSE,CV,q,327,cv
CVOE updated,97,1,1,51,U 50,,,TRUE,CV,p,421,cv
CVOE updated,97,1,1,52,O 49,,,FALSE,CV,p,327,cv
CVOE updated,97,1,1,53,U 32,,,TRUE,CV,p,373,cv
CVOE updated,97,1,1,54,J 78,,,FALSE,CV,q,378,cv
CVOE updated,97,1,1,55,S 54,,,FALSE,CV,p,414,cv
CVOE updated,97,1,1,56,J 27,,,TRUE,CV,q,752,cv
CVOE updated,97,1,1,57,S 06,,,FALSE,CV,q,398,cv
CVOE updated,97,1,1,58,D 67,,,TRUE,CV,q,313,cv
CVOE updated,97,1,1,59,A 79,,,FALSE,CV,p,336,cv
CVOE updated,97,1,1,60,S 52,,,FALSE,CV,q,438,cv
CVOE updated,97,1,1,61,U 16,,,TRUE,CV,p,687,cv
CVOE updated,97,1,1,62,O 82,,,TRUE,CV,p,391,cv
CVOE updated,97,1,1,63,H 87,,,TRUE,CV,q,467,cv
CVOE updated,97,1,1,64,I 32,,,TRUE,CV,p,612,cv
CVOE updated,97,1,1,65,U 37,,,FALSE,CV,p,439,cv
CVOE updated,97,1,1,66,I 42,,,TRUE,CV,p,400,cv
CVOE updated,97,1,1,67,D 65,,,TRUE,CV,q,420,cv
CVOE updated,97,1,1,68,U 77,,,FALSE,CV,p,454,cv
CVOE updated,97,1,1,69,E 12,,,TRUE,CV,p,824,cv
CVOE updated,97,1,1,70,I 60,,,TRUE,CV,p,490,cv
CVOE updated,97,1,1,71,J 36,,,FALSE,CV,q,434,cv
CVOE updated,97,1,1,72,H 75,,,TRUE,CV,q,452,cv
CVOE updated,97,1,1,73,I 50,,,TRUE,CV,p,397,cv
CVOE updated,97,1,1,74,E 99,,,FALSE,CV,p,481,cv
CVOE updated,97,1,1,75,A 86,,,TRUE,CV,p,496,cv
CVOE updated,97,1,1,76,U 48,,,TRUE,CV,p,424,cv
CVOE updated,97,1,1,77,E 01,,,FALSE,CV,p,354,cv
CVOE updated,97,1,1,78,A 78,,,TRUE,CV,p,368,cv
CVOE updated,97,1,1,79,P 60,,,FALSE,CV,q,364,cv
CVOE updated,97,1,1,80,E 43,,,FALSE,CV,p,409,cv
CVOE updated,97,1,1,81,D 69,,,TRUE,CV,q,436,cv
CVOE updated,97,1,1,82,H 11,,,TRUE,CV,q,438,cv
CVOE updated,97,1,1,83,P 43,,,TRUE,CV,q,336,cv
CVOE updated,97,1,1,84,O 67,,,FALSE,CV,p,334,cv
CVOE updated,97,1,1,85,S 91,,,FALSE,CV,p,388,cv
CVOE updated,97,1,1,86,J 68,,,TRUE,CV,q,760,cv
CVOE updated,97,1,1,87,S 47,,,FALSE,CV,q,484,cv
CVOE updated,97,1,1,88,I 81,,,TRUE,CV,p,500,cv
CVOE updated,97,1,1,89,J 39,,,FALSE,CV,q,428,cv
CVOE updated,97,1,1,90,A 11,,,TRUE,CV,p,406,cv
CVOE updated,97,1,1,91,O 76,,,FALSE,CV,p,473,cv
CVOE updated,97,1,1,92,A 62,,,FALSE,CV,p,377,cv
CVOE updated,97,1,1,93,O 27,,,TRUE,CV,p,341,cv
CVOE updated,97,1,1,94,E 66,,,FALSE,CV,p,363,cv
CVOE updated,97,1,1,95,J 62,,,TRUE,CV,q,408,cv
CVOE updated,97,1,1,96,H 72,,,TRUE,CV,q,651,cv
CVOE updated,97,1,1,97,E 49,,,TRUE,CV,p,372,cv
CVOE updated,97,1,1,98,D 52,,,TRUE,CV,q,377,cv
CVOE updated,97,1,1,99,H 62,,,TRUE,CV,q,525,cv
CVOE updated,97,1,1,100,I 11,,,TRUE,CV,p,404,cv
CVOE updated,97,1,1,101,A 98,,,FALSE,CV,p,439,cv
CVOE updated,97,1,1,102,H 29,,,FALSE,CV,q,657,cv
CVOE updated,97,1,1,103,E 83,,,TRUE,CV,p,474,cv
CVOE updated,97,1,1,104,D 43,,,FALSE,CV,q,475,cv
CVOE updated,97,1,1,105,P 45,,,TRUE,CV,q,499,cv
CVOE updated,97,1,1,106,J 17,,,TRUE,CV,q,506,cv
CVOE updated,97,1,2,11,A 24,,,TRUE,OE,p,1974,oe
CVOE updated,97,1,2,12,O 83,,,FALSE,OE,q,410,oe
CVOE updated,97,1,2,13,H 55,,,TRUE,OE,q,677,oe
CVOE updated,97,1,2,14,P 10,,,FALSE,OE,p,509,oe
CVOE updated,97,1,2,15,D 30,,,FALSE,OE,p,612,oe
CVOE updated,97,1,2,16,U 62,,,TRUE,OE,p,446,oe
CVOE updated,97,1,2,17,P 95,,,TRUE,OE,q,400,oe
CVOE updated,97,1,2,18,U 06,,,TRUE,OE,p,443,oe
CVOE updated,97,1,2,19,E 75,,,FALSE,OE,q,540,oe
CVOE updated,97,1,2,20,I 67,,,FALSE,OE,q,410,oe
CVOE updated,97,1,2,21,S 13,,,TRUE,OE,q,421,oe
CVOE updated,97,1,2,22,P 78,,,FALSE,OE,p,383,oe
CVOE updated,97,1,2,23,I 15,,,FALSE,OE,q,419,oe
CVOE updated,97,1,2,24,D 27,,,TRUE,OE,q,470,oe
CVOE updated,97,1,2,25,O 94,,,TRUE,OE,p,343,oe
CVOE updated,97,1,2,26,A 65,,,FALSE,OE,q,445,oe
CVOE updated,97,1,2,27,I 42,,,TRUE,OE,p,350,oe
CVOE updated,97,1,2,28,E 25,,,FALSE,OE,q,563,oe
CVOE updated,97,1,2,29,H 49,,,TRUE,OE,q,400,oe
CVOE updated,97,1,2,30,S 18,,,FALSE,OE,p,435,oe
CVOE updated,97,1,2,31,H 51,,,TRUE,OE,q,381,oe
CVOE updated,97,1,2,32,U 14,,,TRUE,OE,p,569,oe
CVOE updated,97,1,2,33,E 02,,,TRUE,OE,p,549,oe
CVOE updated,97,1,2,34,J 26,,,FALSE,OE,p,427,oe
CVOE updated,97,1,2,35,D 24,,,FALSE,OE,p,357,oe
CVOE updated,97,1,2,36,O 50,,,TRUE,OE,q,330,oe
CVOE updated,97,1,2,37,U 16,,,TRUE,OE,p,672,oe
CVOE updated,97,1,2,38,O 15,,,FALSE,OE,q,440,oe
CVOE updated,97,1,2,39,D 32,,,FALSE,OE,p,842,oe
CVOE updated,97,1,2,40,S 67,,,TRUE,OE,q,524,oe
CVOE updated,97,1,2,41,J 74,,,FALSE,OE,p,683,oe
CVOE updated,97,1,2,42,D 92,,,FALSE,OE,p,707,oe
CVOE updated,97,1,2,43,A 65,,,FALSE,OE,q,402,oe
CVOE updated,97,1,2,44,I 87,,,FALSE,OE,q,509,oe
CVOE updated,97,1,2,45,H 61,,,TRUE,OE,q,565,oe
CVOE updated,97,1,2,46,E 59,,,FALSE,OE,q,633,oe
CVOE updated,97,1,2,47,I 33,,,FALSE,OE,q,555,oe
CVOE updated,97,1,2,48,O 90,,,TRUE,OE,p,432,oe
CVOE updated,97,1,2,49,U 51,,,FALSE,OE,q,442,oe
CVOE updated,97,1,2,50,A 10,,,TRUE,OE,p,436,oe
CVOE updated,97,1,2,51,E 50,,,TRUE,OE,p,406,oe
CVOE updated,97,1,2,52,D 92,,,FALSE,OE,p,425,oe
CVOE updated,97,1,2,53,E 60,,,TRUE,OE,p,460,oe
CVOE updated,97,1,2,54,A 95,,,FALSE,OE,q,405,oe
CVOE updated,97,1,2,55,E 64,,,TRUE,OE,p,440,oe
CVOE updated,97,1,2,56,P 20,,,FALSE,OE,p,602,oe
CVOE updated,97,1,2,57,S 06,,,FALSE,OE,p,477,oe
CVOE updated,97,1,2,58,P 64,,,FALSE,OE,p,389,oe
CVOE updated,97,1,2,59,U 70,,,TRUE,OE,p,401,oe
CVOE updated,97,1,2,60,S 16,,,FALSE,OE,p,388,oe
CVOE updated,97,1,2,61,E 35,,,FALSE,OE,q,352,oe
CVOE updated,97,1,2,62,I 93,,,FALSE,OE,q,365,oe
CVOE updated,97,1,2,63,D 63,,,TRUE,OE,q,402,oe
CVOE updated,97,1,2,64,U 89,,,FALSE,OE,q,741,oe
CVOE updated,97,1,2,65,E 91,,,FALSE,OE,q,451,oe
CVOE updated,97,1,2,66,A 12,,,TRUE,OE,p,436,oe
CVOE updated,97,1,2,67,P 56,,,FALSE,OE,p,382,oe
CVOE updated,97,1,2,68,S 65,,,TRUE,OE,q,458,oe
CVOE updated,97,1,2,69,P 07,,,TRUE,OE,q,580,oe
CVOE updated,97,1,2,70,I 77,,,FALSE,OE,q,408,oe
CVOE updated,97,1,2,71,J 19,,,TRUE,OE,q,355,oe
CVOE updated,97,1,2,72,O 59,,,FALSE,OE,q,352,oe
CVOE updated,97,1,2,73,J 15,,,TRUE,OE,q,309,oe
CVOE updated,97,1,2,74,I 89,,,FALSE,OE,q,573,oe
CVOE updated,97,1,2,75,O 97,,,FALSE,OE,q,377,oe
CVOE updated,97,1,2,76,A 92,,,TRUE,OE,p,317,oe
CVOE updated,97,1,2,77,J 90,,,FALSE,OE,p,364,oe
CVOE updated,97,1,2,78,H 65,,,TRUE,OE,q,312,oe
CVOE updated,97,1,2,79,H 17,,,TRUE,OE,q,351,oe
CVOE updated,97,1,2,80,S 26,,,FALSE,OE,p,484,oe
CVOE updated,97,1,2,81,D 56,,,FALSE,OE,p,708,oe
CVOE updated,97,1,2,82,I 91,,,FALSE,OE,q,619,oe
CVOE updated,97,1,2,83,J 11,,,TRUE,OE,q,390,oe
CVOE updated,97,1,2,84,O 28,,,TRUE,OE,p,474,oe
CVOE updated,97,1,2,85,H 29,,,TRUE,OE,q,387,oe
CVOE updated,97,1,2,86,J 25,,,TRUE,OE,q,502,oe
CVOE updated,97,1,2,87,A 73,,,FALSE,OE,q,430,oe
CVOE updated,97,1,2,88,J 63,,,TRUE,OE,q,344,oe
CVOE updated,97,1,2,89,U 84,,,TRUE,OE,p,421,oe
CVOE updated,97,1,2,90,A 58,,,TRUE,OE,q,376,oe
CVOE updated,97,1,2,91,S 43,,,TRUE,OE,q,716,oe
CVOE updated,97,1,2,92,H 54,,,FALSE,OE,p,499,oe
CVOE updated,97,1,2,93,D 4,,,FALSE,OE,p,626,oe
CVOE updated,97,1,2,94,J 75,,,TRUE,OE,q,493,oe
CVOE updated,97,1,2,95,D 19,,,TRUE,OE,q,525,oe
CVOE updated,97,1,2,96,J 38,,,FALSE,OE,p,595,oe
CVOE updated,97,1,2,97,I 56,,,TRUE,OE,p,446,oe
CVOE updated,97,1,2,98,P 87,,,TRUE,OE,q,392,oe
CVOE updated,97,1,2,99,O 80,,,TRUE,OE,p,444,oe
CVOE updated,97,1,2,100,U 60,,,TRUE,OE,p,421,oe
CVOE updated,97,1,2,101,P 48,,,FALSE,OE,p,527,oe
CVOE updated,97,1,2,102,H 64,,,FALSE,OE,p,381,oe
CVOE updated,97,1,2,103,A 13,,,FALSE,OE,q,433,oe
CVOE updated,97,1,2,104,H 68,,,FALSE,OE,p,427,oe
CVOE updated,97,1,2,105,E 16,,,TRUE,OE,p,501,oe
CVOE updated,97,1,2,106,S 71,,,TRUE,OE,q,460,oe
CVOE updated,97,1,3,11,A 44,Letter,N,TRUE,CV,p,1899,alt
CVOE updated,97,1,3,12,D 94,Letter,N,FALSE,CV,q,1970,alt
CVOE updated,97,1,3,13,E 75,Number,Y,FALSE,OE,q,823,alt
CVOE updated,97,1,3,14,H 81,Number,N,TRUE,OE,q,1089,alt
CVOE updated,97,1,3,15,I 64,Letter,Y,TRUE,CV,p,961,alt
CVOE updated,97,1,3,16,J 54,Letter,N,FALSE,CV,q,798,alt
CVOE updated,97,1,3,17,O 23,Number,Y,FALSE,OE,q,945,alt
CVOE updated,97,1,3,18,P 05,Number,N,TRUE,OE,q,1190,alt
CVOE updated,97,1,3,19,S 34,Letter,Y,FALSE,CV,q,3858,alt
CVOE updated,97,1,3,20,U 88,Letter,N,TRUE,CV,p,755,alt
CVOE updated,97,1,3,21,A 70,Number,Y,TRUE,OE,p,856,alt
CVOE updated,97,1,3,22,D 12,Number,N,FALSE,OE,p,937,alt
CVOE updated,97,1,3,23,E 79,Letter,Y,FALSE,CV,p,719,alt
CVOE updated,97,1,3,24,H 72,Letter,N,FALSE,CV,q,1254,alt
CVOE updated,97,1,3,25,I 41,Number,Y,FALSE,OE,q,2079,alt
CVOE updated,97,1,3,26,J 63,Number,N,TRUE,OE,q,679,alt
CVOE updated,97,1,3,27,O 03,Letter,Y,FALSE,CV,p,1551,alt
CVOE updated,97,1,3,28,P 75,Letter,N,TRUE,CV,q,2900,alt
CVOE updated,97,1,3,29,S 61,Number,Y,TRUE,OE,q,955,alt
CVOE updated,97,1,3,30,U 28,Number,N,TRUE,OE,p,1136,alt
CVOE updated,97,1,3,31,A 21,Letter,Y,FALSE,CV,p,1318,alt
CVOE updated,97,1,3,32,D 18,Letter,N,FALSE,CV,q,797,alt
CVOE updated,97,1,3,33,E 35,Number,Y,FALSE,OE,q,984,alt
CVOE updated,97,1,3,34,H 62,Number,N,FALSE,OE,p,828,alt
CVOE updated,97,1,3,35,I 82,Letter,Y,TRUE,CV,p,1286,alt
CVOE updated,97,1,3,36,J 78,Letter,N,FALSE,CV,q,1966,alt
CVOE updated,97,1,3,37,O 12,Number,Y,TRUE,OE,p,1330,alt
CVOE updated,97,1,3,38,P 13,Number,N,TRUE,OE,q,1072,alt
CVOE updated,97,1,3,39,S 07,Letter,Y,TRUE,CV,q,2961,alt
CVOE updated,97,1,3,40,U 36,Letter,N,TRUE,CV,p,1397,alt
CVOE updated,97,1,3,41,A 96,Number,Y,TRUE,OE,p,1008,alt
CVOE updated,97,1,3,42,D 04,Number,N,FALSE,OE,p,1892,alt
CVOE updated,97,1,3,43,E 60,Letter,Y,TRUE,CV,p,1115,alt
CVOE updated,97,1,3,44,H 83,Letter,N,TRUE,CV,q,1594,alt
CVOE updated,97,1,3,45,I 64,Number,Y,TRUE,OE,p,1605,alt
CVOE updated,97,1,3,46,J 76,Number,N,FALSE,OE,p,904,alt
CVOE updated,97,1,3,47,O 78,Letter,Y,TRUE,CV,p,1288,alt
CVOE updated,97,1,3,48,P 09,Letter,N,TRUE,CV,q,1271,alt
CVOE updated,97,1,3,49,S 72,Number,Y,FALSE,OE,p,936,alt
CVOE updated,97,1,3,50,U 47,Number,N,FALSE,OE,q,1238,alt
CVOE updated,97,1,3,51,A 31,Letter,Y,FALSE,CV,p,1256,alt
CVOE updated,97,1,3,52,D 96,Letter,N,FALSE,CV,q,1145,alt
CVOE updated,97,1,3,53,E 40,Number,Y,TRUE,OE,p,582,alt
CVOE updated,97,1,3,54,H 79,Number,N,TRUE,OE,q,1050,alt
CVOE updated,97,1,3,55,I 15,Letter,Y,FALSE,CV,p,819,alt
CVOE updated,97,1,3,56,J 07,Letter,N,TRUE,CV,q,1774,alt
CVOE updated,97,1,3,57,O 61,Number,Y,FALSE,OE,q,1018,alt
CVOE updated,97,1,3,58,P 58,Number,N,FALSE,OE,p,1677,alt
CVOE updated,97,1,3,59,S 37,Letter,Y,TRUE,CV,q,933,alt
CVOE updated,97,1,3,60,U 61,Letter,N,FALSE,CV,p,1219,alt
CVOE updated,97,1,3,61,A 17,Number,Y,FALSE,OE,q,1405,alt
CVOE updated,97,1,3,62,D 85,Number,N,TRUE,OE,q,864,alt
CVOE updated,97,1,3,63,E 20,Letter,Y,TRUE,CV,p,1089,alt
CVOE updated,97,1,3,64,H 86,Letter,N,FALSE,CV,q,1521,alt
CVOE updated,97,1,3,65,I 21,Number,Y,FALSE,OE,q,943,alt
CVOE updated,97,1,3,66,J 29,Number,N,TRUE,OE,q,749,alt
CVOE updated,97,1,3,67,O 13,Letter,Y,FALSE,CV,p,898,alt
CVOE updated,97,1,3,68,P 82,Letter,N,FALSE,CV,q,1249,alt
CVOE updated,97,1,3,69,S 72,Number,Y,FALSE,OE,p,986,alt
CVOE updated,97,1,3,70,U 84,Number,N,TRUE,OE,p,614,alt
CVOE updated,97,1,3,71,A 49,Letter,Y,FALSE,CV,p,953,alt
CVOE updated,97,1,3,72,D 91,Letter,N,TRUE,CV,q,894,alt
CVOE updated,97,1,3,73,E 99,Number,Y,FALSE,OE,q,1557,alt
CVOE updated,97,1,3,74,H 16,Number,N,FALSE,OE,p,851,alt
CVOE updated,97,1,3,75,I 45,Letter,Y,FALSE,CV,p,932,alt
CVOE updated,97,1,3,76,J 70,Letter,N,FALSE,CV,q,1114,alt
CVOE updated,97,1,3,77,O 22,Number,Y,TRUE,OE,p,816,alt
CVOE updated,97,1,3,78,P 41,Number,N,TRUE,OE,q,1355,alt
CVOE updated,97,1,3,79,S 93,Letter,Y,TRUE,CV,q,2040,alt
CVOE updated,97,1,3,80,U 70,Letter,N,TRUE,CV,p,1114,alt
CVOE updated,97,1,3,81,A 42,Number,Y,TRUE,OE,p,1976,alt
CVOE updated,97,1,3,82,D 85,Number,N,TRUE,OE,q,1012,alt
CVOE updated,97,1,3,83,E 68,Letter,Y,TRUE,CV,q,1367,alt
CVOE updated,97,1,3,84,H 17,Letter,N,TRUE,CV,q,1811,alt
CVOE updated,97,1,3,85,I 70,Number,Y,TRUE,OE,p,1262,alt
CVOE updated,97,1,3,86,J 88,Number,N,FALSE,OE,p,1022,alt
CVOE updated,97,1,3,87,O 32,Letter,Y,TRUE,CV,p,1177,alt
CVOE updated,97,1,3,88,P 95,Letter,N,TRUE,CV,q,973,alt
CVOE updated,97,1,3,89,S 98,Number,Y,FALSE,OE,p,1233,alt
CVOE updated,97,1,3,90,U 37,Number,N,FALSE,OE,q,835,alt
CVOE updated,97,1,3,91,A 56,Letter,Y,TRUE,CV,p,1397,alt
CVOE updated,97,1,3,92,D 57,Letter,N,TRUE,CV,q,1376,alt
CVOE updated,97,1,3,93,E 93,Number,Y,FALSE,OE,q,2292,alt
CVOE updated,97,1,3,94,H 27,Number,N,TRUE,OE,q,3540,alt
CVOE updated,97,1,3,95,I 35,Letter,Y,FALSE,CV,q,522,alt
CVOE updated,97,1,3,96,J 03,Letter,N,TRUE,CV,q,2328,alt
CVOE updated,97,1,3,97,O 28,Number,Y,TRUE,OE,p,1286,alt
CVOE updated,97,1,3,98,P 59,Number,N,TRUE,OE,q,1038,alt
CVOE updated,97,1,3,99,S 77,Letter,Y,TRUE,CV,q,1424,alt
CVOE updated,97,1,3,100,U 05,Letter,N,FALSE,CV,p,843,alt
CVOE updated,97,1,3,101,A 56,Number,Y,TRUE,OE,p,1084,alt
CVOE updated,97,1,3,102,D 01,Number,N,TRUE,OE,q,1052,alt
CVOE updated,97,1,3,103,E 02,Letter,Y,TRUE,CV,p,1438,alt
CVOE updated,97,1,3,104,H 68,Letter,N,FALSE,CV,q,1479,alt
CVOE updated,97,1,3,105,I 05,Number,Y,FALSE,OE,q,895,alt
CVOE updated,97,1,3,106,J 55,Number,N,TRUE,OE,q,830,alt
CVOE updated,97,1,3,107,O 73,Letter,Y,FALSE,CV,p,1144,alt
CVOE updated,97,1,3,108,P 41,Letter,N,TRUE,CV,q,2510,alt
CVOE updated,97,1,3,109,S 92,Number,Y,FALSE,OE,p,804,alt
CVOE updated,97,1,3,110,U 34,Number,N,TRUE,OE,p,855,alt
CVOE updated,97,1,3,111,A 09,Letter,Y,FALSE,CV,p,1081,alt
CVOE updated,97,1,3,112,D 92,Letter,N,FALSE,CV,q,968,alt
CVOE updated,97,1,3,113,E 48,Number,Y,TRUE,OE,p,1037,alt
CVOE updated,97,1,3,114,H 76,Number,N,FALSE,OE,p,799,alt
CVOE updated,97,1,3,115,I 44,Letter,Y,TRUE,CV,p,1346,alt
CVOE updated,97,1,3,116,J 67,Letter,N,TRUE,CV,q,1015,alt
CVOE updated,97,1,3,117,O 48,Number,Y,TRUE,OE,p,826,alt
CVOE updated,97,1,3,118,P 22,Number,N,FALSE,OE,p,732,alt
CVOE updated,97,1,3,119,S 86,Letter,Y,FALSE,CV,q,1026,alt
CVOE updated,97,1,3,120,U 35,Letter,N,FALSE,CV,p,1916,alt
CVOE updated,97,1,3,121,A 91,Number,Y,FALSE,OE,q,1075,alt
CVOE updated,97,1,3,122,D 78,Number,N,FALSE,OE,p,1363,alt
CVOE updated,97,1,3,123,E 91,Letter,Y,FALSE,CV,p,1096,alt
CVOE updated,97,1,3,124,H 54,Letter,N,FALSE,CV,q,1287,alt
CVOE updated,97,1,3,125,I 65,Number,Y,FALSE,OE,q,1087,alt
CVOE updated,97,1,3,126,J 52,Number,N,FALSE,OE,p,1551,alt
CVOE updated,97,1,3,127,O 19,Letter,Y,FALSE,CV,p,1620,alt
CVOE updated,97,1,3,128,P 48,Letter,N,FALSE,CV,q,1183,alt
CVOE updated,97,1,3,129,S 45,Number,Y,TRUE,OE,q,955,alt
CVOE updated,97,1,3,130,U 26,Number,N,TRUE,OE,p,1376,alt
CVOE updated,97,1,4,1,U 38,Number,N,TRUE,OE,p,1896,shuf
CVOE updated,97,1,4,2,P 73,Number,N,TRUE,OE,q,1447,shuf
CVOE updated,97,1,4,3,U 95,Letter,Y,FALSE,CV,q,792,shuf
CVOE updated,97,1,4,4,J 61,Number,Y,TRUE,OE,q,1716,shuf
CVOE updated,97,1,4,5,D 51,Number,N,TRUE,OE,q,1034,shuf
CVOE updated,97,1,4,6,S 28,Number,N,FALSE,OE,p,708,shuf
CVOE updated,97,1,4,7,A 56,Letter,Y,TRUE,CV,p,1924,shuf
CVOE updated,97,1,4,8,H 78,Letter,N,FALSE,CV,q,1882,shuf
CVOE updated,97,1,4,9,P 92,Letter,N,FALSE,CV,q,1082,shuf
CVOE updated,97,1,4,10,E 05,Number,Y,FALSE,OE,q,3394,shuf
CVOE updated,97,1,4,11,P 57,Letter,Y,TRUE,CV,q,1621,shuf
CVOE updated,97,1,4,12,D 88,Number,Y,FALSE,OE,p,1207,shuf
CVOE updated,97,1,4,13,O 89,Letter,Y,FALSE,CV,p,1363,shuf
CVOE updated,97,1,4,14,U 43,Number,Y,FALSE,OE,q,1231,shuf
CVOE updated,97,1,4,15,H 10,Number,N,FALSE,OE,p,1441,shuf
CVOE updated,97,1,4,16,S 07,Letter,Y,TRUE,CV,q,2003,shuf
CVOE updated,97,1,4,17,J 10,Letter,N,FALSE,CV,q,2582,shuf
CVOE updated,97,1,4,18,H 54,Number,Y,FALSE,OE,p,986,shuf
CVOE updated,97,1,4,19,E 99,Number,N,FALSE,OE,q,862,shuf
CVOE updated,97,1,4,20,J 36,Letter,Y,FALSE,CV,q,1094,shuf
CVOE updated,97,1,4,21,I 94,Letter,N,TRUE,CV,p,1238,shuf
CVOE updated,97,1,4,22,A 82,Letter,N,TRUE,CV,p,1223,shuf
CVOE updated,97,1,4,23,H 79,Number,Y,TRUE,OE,q,1106,shuf
CVOE updated,97,1,4,24,J 60,Number,N,FALSE,OE,p,1345,shuf
CVOE updated,97,1,4,25,S 28,Letter,Y,FALSE,CV,q,1134,shuf
CVOE updated,97,1,4,26,P 11,Number,Y,TRUE,OE,q,1332,shuf
CVOE updated,97,1,4,27,D 39,Number,N,TRUE,OE,q,1690,shuf
CVOE updated,97,1,4,28,E 90,Number,N,TRUE,OE,p,1170,shuf
CVOE updated,97,1,4,29,I 38,Number,N,TRUE,OE,p,735,shuf
CVOE updated,97,1,4,30,S 35,Letter,Y,TRUE,CV,q,1308,shuf
CVOE updated,97,1,4,31,D 41,Number,Y,TRUE,OE,q,1212,shuf
CVOE updated,97,1,4,32,E 06,Number,N,TRUE,OE,p,1334,shuf
CVOE updated,97,1,4,33,A 27,Number,N,FALSE,OE,q,1812,shuf
CVOE updated,97,1,4,34,U 95,Letter,Y,FALSE,CV,p,1263,shuf
CVOE updated,97,1,4,35,A 53,Letter,N,FALSE,CV,p,775,shuf
CVOE updated,97,1,4,36,E 43,Letter,N,FALSE,CV,p,628,shuf
CVOE updated,97,1,4,37,P 05,Number,Y,TRUE,OE,q,1278,shuf
CVOE updated,97,1,4,38,O 19,Letter,Y,FALSE,CV,p,1134,shuf
CVOE updated,97,1,4,39,I 96,Number,Y,TRUE,OE,p,947,shuf
CVOE updated,97,1,4,40,A 88,Number,N,TRUE,OE,p,841,shuf
CVOE updated,97,1,4,41,I 67,Number,N,FALSE,OE,q,1219,shuf
CVOE updated,97,1,4,42,D 40,Number,N,FALSE,OE,p,757,shuf
CVOE updated,97,1,4,43,P 79,Letter,Y,TRUE,CV,q,1114,shuf
CVOE updated,97,1,4,44,U 24,Number,Y,TRUE,OE,p,2281,shuf
CVOE updated,97,1,4,45,P 74,Number,N,FALSE,OE,p,1177,shuf
CVOE updated,97,1,4,46,E 70,Number,N,TRUE,OE,p,853,shuf
CVOE updated,97,1,4,47,S 27,Number,N,TRUE,OE,q,1134,shuf
CVOE updated,97,1,4,48,E 54,Letter,Y,TRUE,CV,p,1956,shuf
CVOE updated,97,1,4,49,A 53,Letter,N,FALSE,CV,p,1249,shuf
CVOE updated,97,1,4,50,P 34,Letter,N,FALSE,CV,q,1194,shuf
CVOE updated,97,1,4,51,D 74,Number,Y,FALSE,OE,p,2021,shuf
CVOE updated,97,1,4,52,A 03,Letter,Y,FALSE,CV,p,1128,shuf
CVOE updated,97,1,4,53,E 24,Number,Y,TRUE,OE,p,1022,shuf
CVOE updated,97,1,4,54,I 58,Letter,Y,TRUE,CV,p,944,shuf
CVOE updated,97,1,4,55,D 77,Number,Y,TRUE,OE,q,1069,shuf
CVOE updated,97,1,4,56,S 75,Number,N,TRUE,OE,q,1230,shuf
CVOE updated,97,1,4,57,I 20,Letter,Y,TRUE,CV,p,1128,shuf
CVOE updated,97,1,4,58,J 52,Letter,N,FALSE,CV,q,1038,shuf
CVOE updated,97,1,4,59,A 38,Number,Y,TRUE,OE,p,960,shuf
CVOE updated,97,1,4,60,I 60,Letter,Y,TRUE,CV,p,1020,shuf
CVOE updated,97,1,4,61,S 51,Number,Y,TRUE,OE,q,1039,shuf
CVOE updated,97,1,4,62,D 63,Letter,Y,TRUE,CV,q,1465,shuf
CVOE updated,97,1,4,63,U 27,Letter,N,FALSE,CV,p,1625,shuf
CVOE updated,97,1,4,64,J 77,Letter,N,TRUE,CV,q,1388,shuf
CVOE updated,97,1,4,65,O 15,Number,Y,FALSE,OE,q,1184,shuf
CVOE updated,97,1,4,66,J 20,Letter,Y,FALSE,CV,q,940,shuf
CVOE updated,97,1,4,67,U 97,Number,Y,FALSE,OE,q,1785,shuf
CVOE updated,97,1,4,68,H 03,Number,N,TRUE,OE,q,1653,shuf
CVOE updated,97,1,4,69,O 04,Letter,Y,TRUE,CV,p,798,shuf
CVOE updated,97,1,4,70,E 10,Letter,N,TRUE,CV,p,1058,shuf
CVOE updated,97,1,4,71,I 52,Letter,N,TRUE,CV,p,1755,shuf
CVOE updated,97,1,4,72,H 81,Number,Y,TRUE,OE,q,1320,shuf
CVOE updated,97,1,4,73,I 41,Number,N,FALSE,OE,q,1191,shuf
CVOE updated,97,1,4,74,U 19,Letter,Y,FALSE,CV,p,1027,shuf
CVOE updated,97,1,4,75,O 17,Number,Y,FALSE,OE,q,1332,shuf
CVOE updated,97,1,4,76,A 10,Number,N,TRUE,OE,p,1146,shuf
CVOE updated,97,1,4,77,P 93,Letter,Y,TRUE,CV,q,1520,shuf
CVOE updated,97,1,4,78,E 59,Letter,N,FALSE,CV,p,838,shuf
CVOE updated,97,1,4,79,O 53,Letter,N,FALSE,CV,p,1312,shuf
CVOE updated,97,1,4,80,A 96,Letter,N,TRUE,CV,p,1151,shuf
CVOE updated,97,1,4,81,H 36,Letter,Y,FALSE,CV,q,1556,shuf
CVOE updated,97,1,4,82,A 63,Letter,N,FALSE,CV,p,737,shuf
CVOE updated,97,1,4,83,I 38,Letter,N,TRUE,CV,p,703,shuf
CVOE updated,97,1,4,84,O 51,Number,Y,FALSE,OE,q,1038,shuf
CVOE updated,97,1,4,85,J 26,Number,N,FALSE,OE,p,1448,shuf
CVOE updated,97,1,4,86,S 34,Letter,Y,FALSE,CV,q,1385,shuf
CVOE updated,97,1,4,87,U 85,Number,Y,FALSE,OE,q,861,shuf
CVOE updated,97,1,4,88,J 77,Number,N,TRUE,OE,q,2262,shuf
CVOE updated,97,1,4,89,I 73,Letter,Y,FALSE,CV,p,1262,shuf
CVOE updated,97,1,4,90,H 46,Number,Y,FALSE,OE,p,1103,shuf
CVOE updated,97,1,4,91,D 04,Number,N,FALSE,OE,p,862,shuf
CVOE updated,97,1,4,92,P 72,Letter,Y,FALSE,CV,q,910,shuf
CVOE updated,97,1,4,93,D 99,Number,Y,TRUE,OE,q,1165,shuf
CVOE updated,97,1,4,94,U 25,Letter,Y,FALSE,CV,p,1122,shuf
CVOE updated,97,1,4,95,O 32,Letter,N,TRUE,CV,p,672,shuf
CVOE updated,97,1,4,96,E 80,Letter,N,TRUE,CV,p,993,shuf
CVOE updated,97,1,4,97,O 84,Number,Y,TRUE,OE,p,1188,shuf
CVOE updated,97,1,4,98,A 78,Number,N,TRUE,OE,p,1280,shuf
CVOE updated,97,1,4,99,S 05,Number,N,TRUE,OE,q,1672,shuf
CVOE updated,97,1,4,100,U 35,Letter,Y,FALSE,CV,p,1112,shuf
CVOE updated,97,1,4,101,H 14,Letter,N,FALSE,CV,q,655,shuf
CVOE updated,97,1,4,102,U 15,Number,Y,FALSE,OE,q,952,shuf
CVOE updated,97,1,4,103,E 36,Letter,Y,TRUE,CV,p,1205,shuf
CVOE updated,97,1,4,104,P 70,Letter,N,FALSE,CV,q,1208,shuf
CVOE updated,97,1,4,105,O 44,Number,Y,TRUE,OE,p,1148,shuf
CVOE updated,97,1,4,106,S 41,Letter,Y,TRUE,CV,q,1057,shuf
CVOE updated,97,1,4,107,D 83,Letter,N,TRUE,CV,q,1330,shuf
CVOE updated,97,1,4,108,J 39,Letter,N,TRUE,CV,q,840,shuf
CVOE updated,97,1,4,109,S 22,Number,Y,FALSE,OE,p,946,shuf
CVOE updated,97,1,4,110,D 89,Letter,Y,TRUE,CV,q,2223,shuf
CVOE updated,97,1,4,111,P 87,Letter,N,TRUE,CV,q,1690,shuf
CVOE updated,97,1,4,112,H 42,Letter,N,FALSE,CV,q,753,shuf
CVOE updated,97,1,4,113,S 49,Letter,N,TRUE,CV,q,695,shuf
CVOE updated,97,1,4,114,J 20,Number,Y,FALSE,OE,p,934,shuf
CVOE updated,97,1,4,115,O 19,Letter,Y,FALSE,CV,p,1340,shuf
CVOE updated,97,1,4,116,H 50,Letter,N,FALSE,CV,q,1666,shuf
CVOE updated,97,1,4,117,I 68,Number,Y,TRUE,OE,p,1050,shuf
CVOE updated,97,1,4,118,J 72,Number,N,FALSE,OE,p,963,shuf
CVOE updated,97,1,4,119,O 21,Number,N,FALSE,OE,q,928,shuf
CVOE updated,97,1,4,120,H 22,Number,N,FALSE,OE,p,718,shuf
CVOE_B,102,1,1,11,A 24,,,TRUE,OE,p,1109,oe
CVOE_B,102,1,1,12,O 83,,,FALSE,OE,q,596,oe
CVOE_B,102,1,1,13,H 55,,,TRUE,OE,q,727,oe
CVOE_B,102,1,1,14,P 10,,,FALSE,OE,p,485,oe
CVOE_B,102,1,1,15,D 30,,,FALSE,OE,p,525,oe
CVOE_B,102,1,1,16,U 62,,,TRUE,OE,p,571,oe
CVOE_B,102,1,1,17,P 95,,,TRUE,OE,q,488,oe
CVOE_B,102,1,1,18,U 06,,,TRUE,OE,p,536,oe
CVOE_B,102,1,1,19,E 75,,,FALSE,OE,q,1038,oe
CVOE_B,102,1,1,20,I 67,,,FALSE,OE,q,1024,oe
CVOE_B,102,1,1,21,S 13,,,TRUE,OE,q,586,oe
CVOE_B,102,1,1,22,P 78,,,FALSE,OE,p,446,oe
CVOE_B,102,1,1,23,I 15,,,FALSE,OE,q,472,oe
CVOE_B,102,1,1,24,D 27,,,TRUE,OE,q,384,oe
CVOE_B,102,1,1,25,O 94,,,TRUE,OE,p,564,oe
CVOE_B,102,1,1,26,A 65,,,FALSE,OE,q,465,oe
CVOE_B,102,1,1,27,I 42,,,TRUE,OE,p,353,oe
CVOE_B,102,1,1,28,E 25,,,FALSE,OE,q,511,oe
CVOE_B,102,1,1,29,H 49,,,TRUE,OE,q,789,oe
CVOE_B,102,1,1,30,S 18,,,FALSE,OE,p,713,oe
CVOE_B,102,1,1,31,H 51,,,TRUE,OE,q,584,oe
CVOE_B,102,1,1,32,U 14,,,TRUE,OE,p,772,oe
CVOE_B,102,1,1,33,E 02,,,TRUE,OE,p,632,oe
CVOE_B,102,1,1,34,J 26,,,FALSE,OE,p,530,oe
CVOE_B,102,1,1,35,D 24,,,FALSE,OE,p,328,oe
CVOE_B,102,1,1,36,O 50,,,TRUE,OE,p,494,oe
CVOE_B,102,1,1,37,U 16,,,TRUE,OE,p,1125,oe
CVOE_B,102,1,1,38,O 15,,,FALSE,OE,q,556,oe
CVOE_B,102,1,1,39,D 32,,,FALSE,OE,p,529,oe
CVOE_B,102,1,1,40,S 67,,,TRUE,OE,q,415,oe
CVOE_B,102,1,1,41,J 74,,,FALSE,OE,p,610,oe
CVOE_B,102,1,1,42,D 92,,,FALSE,OE,p,652,oe
CVOE_B,102,1,1,43,A 65,,,FALSE,OE,q,757,oe
CVOE_B,102,1,1,44,I 87,,,FALSE,OE,q,659,oe
CVOE_B,102,1,1,45,H 61,,,TRUE,OE,q,668,oe
CVOE_B,102,1,1,46,E 59,,,FALSE,OE,q,668,oe
CVOE_B,102,1,1,47,I 33,,,FALSE,OE,q,557,oe
CVOE_B,102,1,1,48,O 90,,,TRUE,OE,p,578,oe
CVOE_B,102,1,1,49,U 51,,,FALSE,OE,q,662,oe
CVOE_B,102,1,1,50,A 10,,,TRUE,OE,p,447,oe
CVOE_B,102,1,1,51,E 50,,,TRUE,OE,p,424,oe
CVOE_B,102,1,1,52,D 92,,,FALSE,OE,p,539,oe
CVOE_B,102,1,1,53,E 60,,,TRUE,OE,p,601,oe
CVOE_B,102,1,1,54,A 95,,,FALSE,OE,q,428,oe
CVOE_B,102,1,1,55,E 64,,,TRUE,OE,p,566,oe
CVOE_B,102,1,1,56,P 20,,,FALSE,OE,p,522,oe
CVOE_B,102,1,1,57,S 06,,,FALSE,OE,p,401,oe
CVOE_B,102,1,1,58,P 64,,,FALSE,OE,p,564,oe
CVOE_B,102,1,1,59,U 70,,,TRUE,OE,p,593,oe
CVOE_B,102,1,1,60,S 16,,,FALSE,OE,p,580,oe
CVOE_B,102,1,1,61,E 35,,,FALSE,OE,q,432,oe
CVOE_B,102,1,1,62,I 93,,,FALSE,OE,q,794,oe
CVOE_B,102,1,1,63,D 63,,,TRUE,OE,q,469,oe
CVOE_B,102,1,1,64,U 89,,,FALSE,OE,q,878,oe
CVOE_B,102,1,1,65,E 91,,,FALSE,OE,q,526,oe
CVOE_B,102,1,1,66,A 12,,,TRUE,OE,p,508,oe
CVOE_B,102,1,1,67,P 56,,,FALSE,OE,p,707,oe
CVOE_B,102,1,1,68,S 65,,,TRUE,OE,q,578,oe
CVOE_B,102,1,1,69,P 07,,,TRUE,OE,q,694,oe
CVOE_B,102,1,1,70,I 77,,,FALSE,OE,q,653,oe
CVOE_B,102,1,1,71,J 19,,,TRUE,OE,q,591,oe
CVOE_B,102,1,1,72,O 59,,,FALSE,OE,q,595,oe
CVOE_B,102,1,1,73,J 15,,,TRUE,OE,q,1062,oe
CVOE_B,102,1,1,74,I 89,,,FALSE,OE,q,926,oe
CVOE_B,102,1,1,75,O 97,,,FALSE,OE,q,524,oe
CVOE_B,102,1,1,76,A 92,,,TRUE,OE,p,459,oe
CVOE_B,102,1,1,77,J 90,,,FALSE,OE,p,572,oe
CVOE_B,102,1,1,78,H 65,,,TRUE,OE,q,465,oe
CVOE_B,102,1,1,79,H 17,,,TRUE,OE,q,553,oe
CVOE_B,102,1,1,80,S 26,,,FALSE,OE,p,479,oe
CVOE_B,102,1,1,81,D 56,,,FALSE,OE,p,735,oe
CVOE_B,102,1,1,82,I 91,,,FALSE,OE,q,572,oe
CVOE_B,102,1,1,83,J 11,,,TRUE,OE,q,777,oe
CVOE_B,102,1,1,84,O 28,,,TRUE,OE,p,589,oe
CVOE_B,102,1,1,85,H 29,,,TRUE,OE,q,585,oe
CVOE_B,102,1,1,86,J 25,,,TRUE,OE,q,701,oe
CVOE_B,102,1,1,87,A 73,,,FALSE,OE,q,668,oe
CVOE_B,102,1,1,88,J 63,,,TRUE,OE,q,477,oe
CVOE_B,102,1,1,89,U 84,,,TRUE,OE,p,653,oe
CVOE_B,102,1,1,90,A 58,,,TRUE,OE,p,694,oe
CVOE_B,102,1,1,91,S 43,,,TRUE,OE,q,965,oe
CVOE_B,102,1,1,92,H 54,,,FALSE,OE,p,738,oe
CVOE_B,102,1,1,93,D 4,,,FALSE,OE,p,760,oe
CVOE_B,102,1,1,94,J 75,,,TRUE,OE,q,476,oe
CVOE_B,102,1,1,95,D 19,,,TRUE,OE,q,532,oe
CVOE_B,102,1,1,96,J 38,,,FALSE,OE,p,474,oe
CVOE_B,102,1,1,97,I 56,,,TRUE,OE,p,515,oe
CVOE_B,102,1,1,98,P 87,,,TRUE,OE,q,633,oe
CVOE_B,102,1,1,99,O 80,,,TRUE,OE,p,547,oe
CVOE_B,102,1,1,100,U 60,,,TRUE,OE,p,520,oe
CVOE_B,102,1,1,101,P 48,,,FALSE,OE,p,495,oe
CVOE_B,102,1,1,102,H 64,,,FALSE,OE,p,766,oe
CVOE_B,102,1,1,103,A 13,,,FALSE,OE,q,483,oe
CVOE_B,102,1,1,104,H 68,,,FALSE,OE,p,643,oe
CVOE_B,102,1,1,105,E 16,,,TRUE,OE,p,548,oe
CVOE_B,102,1,1,106,S 71,,,TRUE,OE,q,457,oe
CVOE_B,102,1,2,11,A 71,,,FALSE,CV,p,1700,cv
CVOE_B,102,1,2,12,I 66,,,TRUE,CV,p,651,cv
CVOE_B,102,1,2,13,S 30,,,FALSE,CV,q,541,cv
CVOE_B,102,1,2,14,D 20,,,FALSE,CV,q,507,cv
CVOE_B,102,1,2,15,I 31,,,FALSE,CV,p,530,cv
CVOE_B,102,1,2,16,P 16,,,FALSE,CV,q,424,cv
CVOE_B,102,1,2,17,A 49,,,FALSE,CV,p,930,cv
CVOE_B,102,1,2,18,O 64,,,TRUE,CV,p,960,cv
CVOE_B,102,1,2,19,D 02,,,FALSE,CV,q,565,cv
CVOE_B,102,1,2,20,P 81,,,TRUE,CV,q,625,cv
CVOE_B,102,1,2,21,J 58,,,FALSE,CV,q,540,cv
CVOE_B,102,1,2,22,A 22,,,TRUE,CV,p,554,cv
CVOE_B,102,1,2,23,J 72,,,FALSE,CV,q,463,cv
CVOE_B,102,1,2,24,P 91,,,TRUE,CV,q,680,cv
CVOE_B,102,1,2,25,E 19,,,FALSE,CV,p,416,cv
CVOE_B,102,1,2,26,I 30,,,TRUE,CV,p,386,cv
CVOE_B,102,1,2,27,D 91,,,TRUE,CV,q,398,cv
CVOE_B,102,1,2,28,O 48,,,TRUE,CV,p,650,cv
CVOE_B,102,1,2,29,A 89,,,FALSE,CV,q,555,cv
CVOE_B,102,1,2,30,U 11,,,FALSE,CV,p,1480,cv
CVOE_B,102,1,2,31,I 76,,,TRUE,CV,p,864,cv
CVOE_B,102,1,2,32,U 89,,,FALSE,CV,p,648,cv
CVOE_B,102,1,2,33,D 63,,,TRUE,CV,q,546,cv
CVOE_B,102,1,2,34,H 70,,,FALSE,CV,q,1039,cv
CVOE_B,102,1,2,35,D 48,,,FALSE,CV,q,1169,cv
CVOE_B,102,1,2,36,P 56,,,FALSE,CV,q,405,cv
CVOE_B,102,1,2,37,O 77,,,FALSE,CV,p,425,cv
CVOE_B,102,1,2,38,P 42,,,FALSE,CV,q,395,cv
CVOE_B,102,1,2,39,H 22,,,FALSE,CV,q,447,cv
CVOE_B,102,1,2,40,E 42,,,TRUE,CV,p,352,cv
CVOE_B,102,1,2,41,J 28,,,FALSE,CV,q,421,cv
CVOE_B,102,1,2,42,E 95,,,FALSE,CV,p,456,cv
CVOE_B,102,1,2,43,S 63,,,TRUE,CV,q,457,cv
CVOE_B,102,1,2,44,H 50,,,FALSE,CV,q,490,cv
CVOE_B,102,1,2,45,S 33,,,TRUE,CV,q,410,cv
CVOE_B,102,1,2,46,P 57,,,TRUE,CV,q,389,cv
CVOE_B,102,1,2,47,E 23,,,FALSE,CV,p,417,cv
CVOE_B,102,1,2,48,S 61,,,TRUE,CV,q,307,cv
CVOE_B,102,1,2,49,U 67,,,FALSE,CV,q,499,cv
CVOE_B,102,1,2,50,H 32,,,FALSE,CV,q,762,cv
CVOE_B,102,1,2,51,U 50,,,TRUE,CV,p,702,cv
CVOE_B,102,1,2,52,O 49,,,FALSE,CV,p,598,cv
CVOE_B,102,1,2,53,U 32,,,TRUE,CV,p,441,cv
CVOE_B,102,1,2,54,J 78,,,FALSE,CV,q,451,cv
CVOE_B,102,1,2,55,S 54,,,FALSE,CV,q,476,cv
CVOE_B,102,1,2,56,J 27,,,TRUE,CV,q,500,cv
CVOE_B,102,1,2,57,S 06,,,FALSE,CV,q,531,cv
CVOE_B,102,1,2,58,D 67,,,TRUE,CV,q,409,cv
CVOE_B,102,1,2,59,A 79,,,FALSE,CV,p,516,cv
CVOE_B,102,1,2,60,S 52,,,FALSE,CV,q,507,cv
CVOE_B,102,1,2,61,U 16,,,TRUE,CV,p,482,cv
CVOE_B,102,1,2,62,O 82,,,TRUE,CV,p,498,cv
CVOE_B,102,1,2,63,H 87,,,TRUE,CV,q,433,cv
CVOE_B,102,1,2,64,I 32,,,TRUE,CV,p,403,cv
CVOE_B,102,1,2,65,U 37,,,FALSE,CV,p,502,cv
CVOE_B,102,1,2,66,I 42,,,TRUE,CV,p,549,cv
CVOE_B,102,1,2,67,D 65,,,TRUE,CV,q,379,cv
CVOE_B,102,1,2,68,U 77,,,FALSE,CV,p,383,cv
CVOE_B,102,1,2,69,E 12,,,TRUE,CV,p,331,cv
CVOE_B,102,1,2,70,I 60,,,TRUE,CV,p,297,cv
CVOE_B,102,1,2,71,J 36,,,FALSE,CV,q,344,cv
CVOE_B,102,1,2,72,H 75,,,TRUE,CV,q,581,cv
CVOE_B,102,1,2,73,I 50,,,TRUE,CV,p,489,cv
CVOE_B,102,1,2,74,E 99,,,FALSE,CV,p,417,cv
CVOE_B,102,1,2,75,A 86,,,TRUE,CV,p,444,cv
CVOE_B,102,1,2,76,U 48,,,TRUE,CV,p,469,cv
CVOE_B,102,1,2,77,E 01,,,FALSE,CV,p,389,cv
CVOE_B,102,1,2,78,A 78,,,TRUE,CV,p,321,cv
CVOE_B,102,1,2,79,P 60,,,FALSE,CV,q,376,cv
CVOE_B,102,1,2,80,E 43,,,FALSE,CV,q,500,cv
CVOE_B,102,1,2,81,D 69,,,TRUE,CV,p,675,cv
CVOE_B,102,1,2,82,H 11,,,TRUE,CV,q,1548,cv
CVOE_B,102,1,2,83,P 43,,,TRUE,CV,q,561,cv
CVOE_B,102,1,2,84,O 67,,,FALSE,CV,p,542,cv
CVOE_B,102,1,2,85,S 91,,,FALSE,CV,q,843,cv
CVOE_B,102,1,2,86,J 68,,,TRUE,CV,q,957,cv
CVOE_B,102,1,2,87,S 47,,,FALSE,CV,q,850,cv
CVOE_B,102,1,2,88,I 81,,,TRUE,CV,p,339,cv
CVOE_B,102,1,2,89,J 39,,,FALSE,CV,q,441,cv
CVOE_B,102,1,2,90,A 11,,,TRUE,CV,p,491,cv
CVOE_B,102,1,2,91,O 76,,,FALSE,CV,p,651,cv
CVOE_B,102,1,2,92,A 62,,,FALSE,CV,p,340,cv
CVOE_B,102,1,2,93,O 27,,,TRUE,CV,p,394,cv
CVOE_B,102,1,2,94,E 66,,,FALSE,CV,p,325,cv
CVOE_B,102,1,2,95,J 62,,,TRUE,CV,q,500,cv
CVOE_B,102,1,2,96,H 72,,,TRUE,CV,q,1019,cv
CVOE_B,102,1,2,97,E 49,,,TRUE,CV,p,1614,cv
CVOE_B,102,1,2,98,D 52,,,TRUE,CV,q,768,cv
CVOE_B,102,1,2,99,H 62,,,TRUE,CV,q,365,cv
CVOE_B,102,1,2,100,I 11,,,TRUE,CV,p,426,cv
CVOE_B,102,1,2,101,A 98,,,FALSE,CV,p,372,cv
CVOE_B,102,1,2,102,H 29,,,FALSE,CV,q,432,cv
CVOE_B,102,1,2,103,E 83,,,TRUE,CV,p,314,cv
CVOE_B,102,1,2,104,D 43,,,FALSE,CV,q,433,cv
CVOE_B,102,1,2,105,P 45,,,TRUE,CV,q,427,cv
CVOE_B,102,1,2,106,J 17,,,TRUE,CV,q,596,cv
CVOE_B,102,1,3,11,U 38,Number,N,TRUE,OE,p,3046,shuf
CVOE_B,102,1,3,12,P 73,Number,N,TRUE,OE,q,1087,shuf
CVOE_B,102,1,3,13,U 95,Letter,Y,FALSE,CV,p,1111,shuf
CVOE_B,102,1,3,14,J 61,Number,Y,TRUE,OE,q,1765,shuf
CVOE_B,102,1,3,15,D 51,Number,N,TRUE,OE,q,1586,shuf
CVOE_B,102,1,3,16,S 28,Number,N,FALSE,OE,p,1030,shuf
CVOE_B,102,1,3,17,A 56,Letter,Y,TRUE,CV,p,1047,shuf
CVOE_B,102,1,3,18,H 78,Letter,N,FALSE,CV,q,1689,shuf
CVOE_B,102,1,3,19,P 92,Letter,N,FALSE,CV,q,1888,shuf
CVOE_B,102,1,3,20,E 05,Number,Y,FALSE,OE,q,1120,shuf
CVOE_B,102,1,3,21,P 57,Letter,Y,TRUE,CV,q,1527,shuf
CVOE_B,102,1,3,22,D 88,Number,Y,FALSE,OE,p,1077,shuf
CVOE_B,102,1,3,23,O 89,Letter,Y,FALSE,CV,p,1245,shuf
CVOE_B,102,1,3,24,U 43,Number,Y,FALSE,OE,q,1262,shuf
CVOE_B,102,1,3,25,H 10,Number,N,FALSE,OE,p,1214,shuf
CVOE_B,102,1,3,26,S 07,Letter,Y,TRUE,CV,q,1649,shuf
CVOE_B,102,1,3,27,J 10,Letter,N,FALSE,CV,q,2282,shuf
CVOE_B,102,1,3,28,H 54,Number,Y,FALSE,OE,p,1610,shuf
CVOE_B,102,1,3,29,E 99,Number,N,FALSE,OE,q,1140,shuf
CVOE_B,102,1,3,30,J 36,Letter,Y,FALSE,CV,q,1058,shuf
CVOE_B,102,1,3,31,I 94,Letter,N,TRUE,CV,p,860,shuf
CVOE_B,102,1,3,32,A 82,Letter,N,TRUE,CV,p,916,shuf
CVOE_B,102,1,3,33,H 79,Number,Y,TRUE,OE,q,891,shuf
CVOE_B,102,1,3,34,J 60,Number,N,FALSE,OE,p,1027,shuf
CVOE_B,102,1,3,35,S 28,Letter,Y,FALSE,CV,q,838,shuf
CVOE_B,102,1,3,36,P 11,Number,Y,TRUE,OE,p,1142,shuf
CVOE_B,102,1,3,37,D 39,Number,N,TRUE,OE,q,1660,shuf
CVOE_B,102,1,3,38,E 90,Number,N,TRUE,OE,p,1348,shuf
CVOE_B,102,1,3,39,I 38,Number,N,TRUE,OE,p,1409,shuf
CVOE_B,102,1,3,40,S 35,Letter,Y,TRUE,CV,q,1148,shuf
CVOE_B,102,1,3,41,D 41,Number,Y,TRUE,OE,q,1473,shuf
CVOE_B,102,1,3,42,E 06,Number,N,TRUE,OE,p,954,shuf
CVOE_B,102,1,3,43,A 27,Number,N,FALSE,OE,q,1055,shuf
CVOE_B,102,1,3,44,U 95,Letter,Y,FALSE,CV,q,1072,shuf
CVOE_B,102,1,3,45,A 53,Letter,N,FALSE,CV,q,1113,shuf
CVOE_B,102,1,3,46,E 43,Letter,N,FALSE,CV,p,4191,shuf
CVOE_B,102,1,3,47,P 05,Number,Y,TRUE,OE,q,1803,shuf
CVOE_B,102,1,3,48,O 19,Letter,Y,FALSE,CV,p,2142,shuf
CVOE_B,102,1,3,49,I 96,Number,Y,TRUE,OE,q,1132,shuf
CVOE_B,102,1,3,50,A 88,Number,N,TRUE,OE,p,7178,shuf
CVOE_B,102,1,3,51,I 67,Number,N,FALSE,OE,q,1893,shuf
CVOE_B,102,1,3,52,D 40,Number,N,FALSE,OE,p,812,shuf
CVOE_B,102,1,3,53,P 79,Letter,Y,TRUE,CV,q,975,shuf
CVOE_B,102,1,3,54,U 24,Number,Y,TRUE,OE,p,1220,shuf
CVOE_B,102,1,3,55,P 74,Number,N,FALSE,OE,p,1334,shuf
CVOE_B,102,1,3,56,E 70,Number,N,TRUE,OE,p,860,shuf
CVOE_B,102,1,3,57,S 27,Number,N,TRUE,OE,q,669,shuf
CVOE_B,102,1,3,58,E 54,Letter,Y,TRUE,CV,p,845,shuf
CVOE_B,102,1,3,59,A 53,Letter,N,FALSE,CV,p,1102,shuf
CVOE_B,102,1,3,60,P 34,Letter,N,FALSE,CV,q,958,shuf
CVOE_B,102,1,3,61,D 74,Number,Y,FALSE,OE,p,1579,shuf
CVOE_B,102,1,3,62,A 03,Letter,Y,FALSE,CV,p,1479,shuf
CVOE_B,102,1,3,63,E 24,Number,Y,TRUE,OE,p,1911,shuf
CVOE_B,102,1,3,64,I 58,Letter,Y,TRUE,CV,p,1093,shuf
CVOE_B,102,1,3,65,D 77,Number,Y,TRUE,OE,q,796,shuf
CVOE_B,102,1,3,66,S 75,Number,N,TRUE,OE,q,3200,shuf
CVOE_B,102,1,3,67,I 20,Letter,Y,TRUE,CV,p,1563,shuf
CVOE_B,102,1,3,68,J 52,Letter,N,FALSE,CV,q,1151,shuf
CVOE_B,102,1,3,69,A 38,Number,Y,TRUE,OE,p,684,shuf
CVOE_B,102,1,3,70,I 60,Letter,Y,TRUE,CV,p,1092,shuf
CVOE_B,102,1,3,71,S 51,Number,Y,TRUE,OE,q,1235,shuf
CVOE_B,102,1,3,72,D 63,Letter,Y,TRUE,CV,q,1701,shuf
CVOE_B,102,1,3,73,U 27,Letter,N,FALSE,CV,p,781,shuf
CVOE_B,102,1,3,74,J 77,Letter,N,TRUE,CV,q,752,shuf
CVOE_B,102,1,3,75,O 15,Number,Y,FALSE,OE,q,998,shuf
CVOE_B,102,1,3,76,J 20,Letter,Y,FALSE,CV,p,1177,shuf
CVOE_B,102,1,3,77,U 97,Number,Y,FALSE,OE,q,2062,shuf
CVOE_B,102,1,3,78,H 03,Number,N,TRUE,OE,q,2062,shuf
CVOE_B,102,1,3,79,O 04,Letter,Y,TRUE,CV,p,1479,shuf
CVOE_B,102,1,3,80,E 10,Letter,N,TRUE,CV,p,895,shuf
CVOE_B,102,1,3,81,I 52,Letter,N,TRUE,CV,p,797,shuf
CVOE_B,102,1,3,82,H 81,Number,Y,TRUE,OE,q,689,shuf
CVOE_B,102,1,3,83,I 41,Number,N,FALSE,OE,q,1496,shuf
CVOE_B,102,1,3,84,U 19,Letter,Y,FALSE,CV,p,1008,shuf
CVOE_B,102,1,3,85,O 17,Number,Y,FALSE,OE,q,1210,shuf
CVOE_B,102,1,3,86,A 10,Number,N,TRUE,OE,p,1406,shuf
CVOE_B,102,1,3,87,P 93,Letter,Y,TRUE,CV,q,1480,shuf
CVOE_B,102,1,3,88,E 59,Letter,N,FALSE,CV,q,1768,shuf
CVOE_B,102,1,3,89,O 53,Letter,N,FALSE,CV,p,3341,shuf
CVOE_B,102,1,3,90,A 96,Letter,N,TRUE,CV,p,650,shuf
CVOE_B,102,1,3,91,H 36,Letter,Y,FALSE,CV,q,469,shuf
CVOE_B,102,1,3,92,A 63,Letter,N,FALSE,CV,p,1125,shuf
CVOE_B,102,1,3,93,I 38,Letter,N,TRUE,CV,p,932,shuf
CVOE_B,102,1,3,94,O 51,Number,Y,FALSE,OE,q,1369,shuf
CVOE_B,102,1,3,95,J 26,Number,N,FALSE,OE,q,853,shuf
CVOE_B,102,1,3,96,S 34,Letter,Y,FALSE,CV,q,1807,shuf
CVOE_B,102,1,3,97,U 85,Number,Y,FALSE,OE,p,875,shuf
CVOE_B,102,1,3,98,J 77,Number,N,TRUE,OE,q,2715,shuf
CVOE_B,102,1,3,99,I 73,Letter,Y,FALSE,CV,p,802,shuf
CVOE_B,102,1,3,100,H 46,Number,Y,FALSE,OE,p,1069,shuf
CVOE_B,102,1,3,101,D 04,Number,N,FALSE,OE,p,1085,shuf
CVOE_B,102,1,3,102,P 72,Letter,Y,FALSE,CV,q,1557,shuf
CVOE_B,102,1,3,103,D 99,Number,Y,TRUE,OE,q,1178,shuf
CVOE_B,102,1,3,104,U 25,Letter,Y,FALSE,CV,p,1614,shuf
CVOE_B,102,1,3,105,O 32,Letter,N,TRUE,CV,p,913,shuf
CVOE_B,102,1,3,106,E 80,Letter,N,TRUE,CV,p,760,shuf
CVOE_B,102,1,3,107,O 84,Number,Y,TRUE,OE,p,805,shuf
CVOE_B,102,1,3,108,A 78,Number,N,TRUE,OE,p,1839,shuf
CVOE_B,102,1,3,109,S 05,Number,N,TRUE,OE,q,1226,shuf
CVOE_B,102,1,3,110,U 35,Letter,Y,FALSE,CV,p,1324,shuf
CVOE_B,102,1,3,111,H 14,Letter,N,FALSE,CV,q,1379,shuf
CVOE_B,102,1,3,112,U 15,Number,Y,FALSE,OE,q,1135,shuf
CVOE_B,102,1,3,113,E 36,Letter,Y,TRUE,CV,p,1413,shuf
CVOE_B,102,1,3,114,P 70,Letter,N,FALSE,CV,q,887,shuf
CVOE_B,102,1,3,115,O 44,Number,Y,TRUE,OE,p,3519,shuf
CVOE_B,102,1,3,116,S 41,Letter,Y,TRUE,CV,q,2021,shuf
CVOE_B,102,1,3,117,D 83,Letter,N,TRUE,CV,q,1088,shuf
CVOE_B,102,1,3,118,J 39,Letter,N,TRUE,CV,q,728,shuf
CVOE_B,102,1,3,119,S 22,Number,Y,FALSE,OE,p,790,shuf
CVOE_B,102,1,3,120,D 89,Letter,Y,TRUE,CV,q,1073,shuf
CVOE_B,102,1,3,121,P 87,Letter,N,TRUE,CV,q,986,shuf
CVOE_B,102,1,3,122,H 42,Letter,N,FALSE,CV,p,1294,shuf
CVOE_B,102,1,3,123,S 49,Letter,N,TRUE,CV,q,1069,shuf
CVOE_B,102,1,3,124,J 20,Number,Y,FALSE,OE,p,3302,shuf
CVOE_B,102,1,3,125,O 19,Letter,Y,FALSE,CV,q,2021,shuf
CVOE_B,102,1,3,126,H 50,Letter,N,FALSE,CV,q,2943,shuf
CVOE_B,102,1,3,127,I 68,Number,Y,TRUE,OE,p,837,shuf
CVOE_B,102,1,3,128,J 72,Number,N,FALSE,OE,q,1070,shuf
CVOE_B,102,1,3,129,O 21,Number,N,FALSE,OE,q,3439,shuf
CVOE_B,102,1,3,130,H 22,Number,N,FALSE,OE,p,1377,shuf
CVOE_B,102,1,4,1,A 44,Letter,N,TRUE,CV,p,2329,alt
CVOE_B,102,1,4,2,D 94,Letter,N,FALSE,CV,q,1511,alt
CVOE_B,102,1,4,3,E 75,Number,Y,FALSE,OE,q,2453,alt
CVOE_B,102,1,4,4,H 81,Number,N,TRUE,OE,q,3086,alt
CVOE_B,102,1,4,5,I 64,Letter,Y,TRUE,CV,p,894,alt
CVOE_B,102,1,4,6,J 54,Letter,N,FALSE,CV,q,925,alt
CVOE_B,102,1,4,7,O 23,Number,Y,FALSE,OE,q,924,alt
CVOE_B,102,1,4,8,P 05,Number,N,TRUE,OE,q,2058,alt
CVOE_B,102,1,4,9,S 34,Letter,Y,FALSE,CV,q,764,alt
CVOE_B,102,1,4,10,U 88,Letter,N,TRUE,CV,p,680,alt
CVOE_B,102,1,4,11,A 70,Number,Y,TRUE,OE,q,1784,alt
CVOE_B,102,1,4,12,D 12,Number,N,FALSE,OE,p,1324,alt
CVOE_B,102,1,4,13,E 79,Letter,Y,FALSE,CV,p,922,alt
CVOE_B,102,1,4,14,H 72,Letter,N,FALSE,CV,q,1353,alt
CVOE_B,102,1,4,15,I 41,Number,Y,FALSE,OE,p,1102,alt
CVOE_B,102,1,4,16,J 63,Number,N,TRUE,OE,q,3733,alt
CVOE_B,102,1,4,17,O 03,Letter,Y,FALSE,CV,p,1435,alt
CVOE_B,102,1,4,18,P 75,Letter,N,TRUE,CV,q,2109,alt
CVOE_B,102,1,4,19,S 61,Number,Y,TRUE,OE,q,1260,alt
CVOE_B,102,1,4,20,U 28,Number,N,TRUE,OE,p,1085,alt
CVOE_B,102,1,4,21,A 21,Letter,Y,FALSE,CV,q,1773,alt
CVOE_B,102,1,4,22,D 18,Letter,N,FALSE,CV,q,2985,alt
CVOE_B,102,1,4,23,E 35,Number,Y,FALSE,OE,q,981,alt
CVOE_B,102,1,4,24,H 62,Number,N,FALSE,OE,p,2129,alt
CVOE_B,102,1,4,25,I 82,Letter,Y,TRUE,CV,p,3391,alt
CVOE_B,102,1,4,26,J 78,Letter,N,FALSE,CV,q,1338,alt
CVOE_B,102,1,4,27,O 12,Number,Y,TRUE,OE,p,672,alt
CVOE_B,102,1,4,28,P 13,Number,N,TRUE,OE,q,889,alt
CVOE_B,102,1,4,29,S 07,Letter,Y,TRUE,CV,q,1065,alt
CVOE_B,102,1,4,30,U 36,Letter,N,TRUE,CV,p,945,alt
CVOE_B,102,1,4,31,A 96,Number,Y,TRUE,OE,q,838,alt
CVOE_B,102,1,4,32,D 04,Number,N,FALSE,OE,p,1928,alt
CVOE_B,102,1,4,33,E 60,Letter,Y,TRUE,CV,p,758,alt
CVOE_B,102,1,4,34,H 83,Letter,N,TRUE,CV,q,707,alt
CVOE_B,102,1,4,35,I 64,Number,Y,TRUE,OE,p,683,alt
CVOE_B,102,1,4,36,J 76,Number,N,FALSE,OE,p,691,alt
CVOE_B,102,1,4,37,O 78,Letter,Y,TRUE,CV,p,627,alt
CVOE_B,102,1,4,38,P 09,Letter,N,TRUE,CV,q,1556,alt
CVOE_B,102,1,4,39,S 72,Number,Y,FALSE,OE,p,874,alt
CVOE_B,102,1,4,40,U 47,Number,N,FALSE,OE,q,970,alt
CVOE_B,102,1,4,41,A 31,Letter,Y,FALSE,CV,q,959,alt
CVOE_B,102,1,4,42,D 96,Letter,N,FALSE,CV,q,4244,alt
CVOE_B,102,1,4,43,E 40,Number,Y,TRUE,OE,p,677,alt
CVOE_B,102,1,4,44,H 79,Number,N,TRUE,OE,q,1349,alt
CVOE_B,102,1,4,45,I 15,Letter,Y,FALSE,CV,p,1338,alt
CVOE_B,102,1,4,46,J 07,Letter,N,TRUE,CV,q,1040,alt
CVOE_B,102,1,4,47,O 61,Number,Y,FALSE,OE,p,970,alt
CVOE_B,102,1,4,48,P 58,Number,N,FALSE,OE,p,2911,alt
CVOE_B,102,1,4,49,S 37,Letter,Y,TRUE,CV,q,1141,alt
CVOE_B,102,1,4,50,U 61,Letter,N,FALSE,CV,p,2779,alt
CVOE_B,102,1,4,51,A 17,Number,Y,FALSE,OE,q,3271,alt
CVOE_B,102,1,4,52,D 85,Number,N,TRUE,OE,q,1263,alt
CVOE_B,102,1,4,53,E 20,Letter,Y,TRUE,CV,p,2640,alt
CVOE_B,102,1,4,54,H 86,Letter,N,FALSE,CV,q,1385,alt
CVOE_B,102,1,4,55,I 21,Number,Y,FALSE,OE,q,821,alt
CVOE_B,102,1,4,56,J 29,Number,N,TRUE,OE,q,896,alt
CVOE_B,102,1,4,57,O 13,Letter,Y,FALSE,CV,p,951,alt
CVOE_B,102,1,4,58,P 82,Letter,N,FALSE,CV,q,724,alt
CVOE_B,102,1,4,59,S 72,Number,Y,FALSE,OE,p,955,alt
CVOE_B,102,1,4,60,U 84,Number,N,TRUE,OE,p,2008,alt
CVOE_B,102,1,4,61,A 49,Letter,Y,FALSE,CV,p,1595,alt
CVOE_B,102,1,4,62,D 91,Letter,N,TRUE,CV,q,1374,alt
CVOE_B,102,1,4,63,E 99,Number,Y,FALSE,OE,q,1235,alt
CVOE_B,102,1,4,64,H 16,Number,N,FALSE,OE,p,1021,alt
CVOE_B,102,1,4,65,I 45,Letter,Y,FALSE,CV,p,1007,alt
CVOE_B,102,1,4,66,J 70,Letter,N,FALSE,CV,q,1859,alt
CVOE_B,102,1,4,67,O 22,Number,Y,TRUE,OE,p,1500,alt
CVOE_B,102,1,4,68,P 41,Number,N,TRUE,OE,q,971,alt
CVOE_B,102,1,4,69,S 93,Letter,Y,TRUE,CV,q,1872,alt
CVOE_B,102,1,4,70,U 70,Letter,N,TRUE,CV,p,1288,alt
CVOE_B,102,1,4,71,A 42,Number,Y,TRUE,OE,p,968,alt
CVOE_B,102,1,4,72,D 85,Number,N,TRUE,OE,q,1669,alt
CVOE_B,102,1,4,73,E 68,Letter,Y,TRUE,CV,p,1325,alt
CVOE_B,102,1,4,74,H 17,Letter,N,TRUE,CV,p,2276,alt
CVOE_B,102,1,4,75,I 70,Number,Y,TRUE,OE,p,3004,alt
CVOE_B,102,1,4,76,J 88,Number,N,FALSE,OE,q,591,alt
CVOE_B,102,1,4,77,O 32,Letter,Y,TRUE,CV,p,3771,alt
CVOE_B,102,1,4,78,P 95,Letter,N,TRUE,CV,q,1735,alt
CVOE_B,102,1,4,79,S 98,Number,Y,FALSE,OE,p,1477,alt
CVOE_B,102,1,4,80,U 37,Number,N,FALSE,OE,q,1429,alt
CVOE_B,102,1,4,81,A 56,Letter,Y,TRUE,CV,p,719,alt
CVOE_B,102,1,4,82,D 57,Letter,N,TRUE,CV,q,734,alt
CVOE_B,102,1,4,83,E 93,Number,Y,FALSE,OE,q,908,alt
CVOE_B,102,1,4,84,H 27,Number,N,TRUE,OE,q,931,alt
CVOE_B,102,1,4,85,I 35,Letter,Y,FALSE,CV,p,745,alt
CVOE_B,102,1,4,86,J 03,Letter,N,TRUE,CV,q,822,alt
CVOE_B,102,1,4,87,O 28,Number,Y,TRUE,OE,p,1016,alt
CVOE_B,102,1,4,88,P 59,Number,N,TRUE,OE,q,1875,alt
CVOE_B,102,1,4,89,S 77,Letter,Y,TRUE,CV,q,1068,alt
CVOE_B,102,1,4,90,U 05,Letter,N,FALSE,CV,p,1100,alt
CVOE_B,102,1,4,91,A 56,Number,Y,TRUE,OE,p,1747,alt
CVOE_B,102,1,4,92,D 01,Number,N,TRUE,OE,q,1025,alt
CVOE_B,102,1,4,93,E 02,Letter,Y,TRUE,CV,p,1259,alt
CVOE_B,102,1,4,94,H 68,Letter,N,FALSE,CV,q,1300,alt
CVOE_B,102,1,4,95,I 05,Number,Y,FALSE,OE,p,947,alt
CVOE_B,102,1,4,96,J 55,Number,N,TRUE,OE,q,1489,alt
CVOE_B,102,1,4,97,O 73,Letter,Y,FALSE,CV,p,1345,alt
CVOE_B,102,1,4,98,P 41,Letter,N,TRUE,CV,q,2270,alt
CVOE_B,102,1,4,99,S 92,Number,Y,FALSE,OE,p,1054,alt
CVOE_B,102,1,4,100,U 34,Number,N,TRUE,OE,p,927,alt
CVOE_B,102,1,4,101,A 09,Letter,Y,FALSE,CV,q,725,alt
CVOE_B,102,1,4,102,D 92,Letter,N,FALSE,CV,q,5108,alt
CVOE_B,102,1,4,103,E 48,Number,Y,TRUE,OE,p,891,alt
CVOE_B,102,1,4,104,H 76,Number,N,FALSE,OE,q,803,alt
CVOE_B,102,1,4,105,I 44,Letter,Y,TRUE,CV,p,814,alt
CVOE_B,102,1,4,106,J 67,Letter,N,TRUE,CV,q,1441,alt
CVOE_B,102,1,4,107,O 48,Number,Y,TRUE,OE,p,731,alt
CVOE_B,102,1,4,108,P 22,Number,N,FALSE,OE,p,1288,alt
CVOE_B,102,1,4,109,S 86,Letter,Y,FALSE,CV,q,1472,alt
CVOE_B,102,1,4,110,U 35,Letter,N,FALSE,CV,p,2105,alt
CVOE_B,102,1,4,111,A 91,Number,Y,FALSE,OE,q,1552,alt
CVOE_B,102,1,4,112,D 78,Number,N,FALSE,OE,p,941,alt
CVOE_B,102,1,4,113,E 91,Letter,Y,FALSE,CV,p,1595,alt
CVOE_B,102,1,4,114,H 54,Letter,N,FALSE,CV,q,766,alt
CVOE_B,102,1,4,115,I 65,Number,Y,FALSE,OE,q,963,alt
CVOE_B,102,1,4,116,J 52,Number,N,FALSE,OE,q,1695,alt
CVOE_B,102,1,4,117,O 19,Letter,Y,FALSE,CV,p,1999,alt
CVOE_B,102,1,4,118,P 48,Letter,N,FALSE,CV,q,1434,alt
CVOE_B,102,1,4,119,S 45,Number,Y,TRUE,OE,p,772,alt
CVOE_B,102,1,4,120,U 26,Number,N,TRUE,OE,p,4856,alt
CVOE_B,86,1,1,11,A 24,,,TRUE,OE,p,1287,oe
CVOE_B,86,1,1,12,O 83,,,FALSE,OE,q,863,oe
CVOE_B,86,1,1,13,H 55,,,TRUE,OE,q,1344,oe
CVOE_B,86,1,1,14,P 10,,,FALSE,OE,p,773,oe
CVOE_B,86,1,1,15,D 30,,,FALSE,OE,p,562,oe
CVOE_B,86,1,1,16,U 62,,,TRUE,OE,p,558,oe
CVOE_B,86,1,1,17,P 95,,,TRUE,OE,q,683,oe
CVOE_B,86,1,1,18,U 06,,,TRUE,OE,p,907,oe
CVOE_B,86,1,1,19,E 75,,,FALSE,OE,q,763,oe
CVOE_B,86,1,1,20,I 67,,,FALSE,OE,q,863,oe
CVOE_B,86,1,1,21,S 13,,,TRUE,OE,q,624,oe
CVOE_B,86,1,1,22,P 78,,,FALSE,OE,p,642,oe
CVOE_B,86,1,1,23,I 15,,,FALSE,OE,q,548,oe
CVOE_B,86,1,1,24,D 27,,,TRUE,OE,q,810,oe
CVOE_B,86,1,1,25,O 94,,,TRUE,OE,p,693,oe
CVOE_B,86,1,1,26,A 65,,,FALSE,OE,q,637,oe
CVOE_B,86,1,1,27,I 42,,,TRUE,OE,p,647,oe
CVOE_B,86,1,1,28,E 25,,,FALSE,OE,q,656,oe
CVOE_B,86,1,1,29,H 49,,,TRUE,OE,q,697,oe
CVOE_B,86,1,1,30,S 18,,,FALSE,OE,p,912,oe
CVOE_B,86,1,1,31,H 51,,,TRUE,OE,q,711,oe
CVOE_B,86,1,1,32,U 14,,,TRUE,OE,p,782,oe
CVOE_B,86,1,1,33,E 02,,,TRUE,OE,p,633,oe
CVOE_B,86,1,1,34,J 26,,,FALSE,OE,p,939,oe
CVOE_B,86,1,1,35,D 24,,,FALSE,OE,p,825,oe
CVOE_B,86,1,1,36,O 50,,,TRUE,OE,p,548,oe
CVOE_B,86,1,1,37,U 16,,,TRUE,OE,p,481,oe
CVOE_B,86,1,1,38,O 15,,,FALSE,OE,q,625,oe
CVOE_B,86,1,1,39,D 32,,,FALSE,OE,p,708,oe
CVOE_B,86,1,1,40,S 67,,,TRUE,OE,q,603,oe
CVOE_B,86,1,1,41,J 74,,,FALSE,OE,p,974,oe
CVOE_B,86,1,1,42,D 92,,,FALSE,OE,p,1123,oe
CVOE_B,86,1,1,43,A 65,,,FALSE,OE,q,577,oe
CVOE_B,86,1,1,44,I 87,,,FALSE,OE,q,629,oe
CVOE_B,86,1,1,45,H 61,,,TRUE,OE,q,1207,oe
CVOE_B,86,1,1,46,E 59,,,FALSE,OE,q,490,oe
CVOE_B,86,1,1,47,I 33,,,FALSE,OE,q,746,oe
CVOE_B,86,1,1,48,O 90,,,TRUE,OE,p,560,oe
CVOE_B,86,1,1,49,U 51,,,FALSE,OE,q,733,oe
CVOE_B,86,1,1,50,A 10,,,TRUE,OE,p,611,oe
CVOE_B,86,1,1,51,E 50,,,TRUE,OE,p,389,oe
CVOE_B,86,1,1,52,D 92,,,FALSE,OE,p,625,oe
CVOE_B,86,1,1,53,E 60,,,TRUE,OE,p,444,oe
CVOE_B,86,1,1,54,A 95,,,FALSE,OE,q,549,oe
CVOE_B,86,1,1,55,E 64,,,TRUE,OE,p,514,oe
CVOE_B,86,1,1,56,P 20,,,FALSE,OE,p,673,oe
CVOE_B,86,1,1,57,S 06,,,FALSE,OE,p,570,oe
CVOE_B,86,1,1,58,P 64,,,FALSE,OE,p,454,oe
CVOE_B,86,1,1,59,U 70,,,TRUE,OE,p,671,oe
CVOE_B,86,1,1,60,S 16,,,FALSE,OE,p,552,oe
CVOE_B,86,1,1,61,E 35,,,FALSE,OE,q,749,oe
CVOE_B,86,1,1,62,I 93,,,FALSE,OE,q,659,oe
CVOE_B,86,1,1,63,D 63,,,TRUE,OE,q,508,oe
CVOE_B,86,1,1,64,U 89,,,FALSE,OE,p,563,oe
CVOE_B,86,1,1,65,E 91,,,FALSE,OE,q,1120,oe
CVOE_B,86,1,1,66,A 12,,,TRUE,OE,p,670,oe
CVOE_B,86,1,1,67,P 56,,,FALSE,OE,p,1183,oe
CVOE_B,86,1,1,68,S 65,,,TRUE,OE,q,635,oe
CVOE_B,86,1,1,69,P 07,,,TRUE,OE,q,853,oe
CVOE_B,86,1,1,70,I 77,,,FALSE,OE,q,902,oe
CVOE_B,86,1,1,71,J 19,,,TRUE,OE,q,837,oe
CVOE_B,86,1,1,72,O 59,,,FALSE,OE,q,687,oe
CVOE_B,86,1,1,73,J 15,,,TRUE,OE,q,543,oe
CVOE_B,86,1,1,74,I 89,,,FALSE,OE,q,525,oe
CVOE_B,86,1,1,75,O 97,,,FALSE,OE,q,555,oe
CVOE_B,86,1,1,76,A 92,,,TRUE,OE,p,585,oe
CVOE_B,86,1,1,77,J 90,,,FALSE,OE,p,469,oe
CVOE_B,86,1,1,78,H 65,,,TRUE,OE,q,677,oe
CVOE_B,86,1,1,79,H 17,,,TRUE,OE,q,701,oe
CVOE_B,86,1,1,80,S 26,,,FALSE,OE,p,636,oe
CVOE_B,86,1,1,81,D 56,,,FALSE,OE,p,526,oe
CVOE_B,86,1,1,82,I 91,,,FALSE,OE,q,1005,oe
CVOE_B,86,1,1,83,J 11,,,TRUE,OE,q,616,oe
CVOE_B,86,1,1,84,O 28,,,TRUE,OE,p,875,oe
CVOE_B,86,1,1,85,H 29,,,TRUE,OE,q,499,oe
CVOE_B,86,1,1,86,J 25,,,TRUE,OE,q,755,oe
CVOE_B,86,1,1,87,A 73,,,FALSE,OE,q,624,oe
CVOE_B,86,1,1,88,J 63,,,TRUE,OE,q,490,oe
CVOE_B,86,1,1,89,U 84,,,TRUE,OE,p,482,oe
CVOE_B,86,1,1,90,A 58,,,TRUE,OE,p,490,oe
CVOE_B,86,1,1,91,S 43,,,TRUE,OE,q,538,oe
CVOE_B,86,1,1,92,H 54,,,FALSE,OE,q,1408,oe
CVOE_B,86,1,1,93,D 4,,,FALSE,OE,p,779,oe
CVOE_B,86,1,1,94,J 75,,,TRUE,OE,q,767,oe
CVOE_B,86,1,1,95,D 19,,,TRUE,OE,q,692,oe
CVOE_B,86,1,1,96,J 38,,,FALSE,OE,p,588,oe
CVOE_B,86,1,1,97,I 56,,,TRUE,OE,p,672,oe
CVOE_B,86,1,1,98,P 87,,,TRUE,OE,q,584,oe
CVOE_B,86,1,1,99,O 80,,,TRUE,OE,p,620,oe
CVOE_B,86,1,1,100,U 60,,,TRUE,OE,p,695,oe
CVOE_B,86,1,1,101,P 48,,,FALSE,OE,p,910,oe
CVOE_B,86,1,1,102,H 64,,,FALSE,OE,p,541,oe
CVOE_B,86,1,1,103,A 13,,,FALSE,OE,q,531,oe
CVOE_B,86,1,1,104,H 68,,,FALSE,OE,p,552,oe
CVOE_B,86,1,1,105,E 16,,,TRUE,OE,p,486,oe
CVOE_B,86,1,1,106,S 71,,,TRUE,OE,q,622,oe
CVOE_B,86,1,2,11,A 71,,,FALSE,CV,p,1381,cv
CVOE_B,86,1,2,12,I 66,,,TRUE,CV,p,697,cv
CVOE_B,86,1,2,13,S 30,,,FALSE,CV,q,729,cv
CVOE_B,86,1,2,14,D 20,,,FALSE,CV,q,1246,cv
CVOE_B,86,1,2,15,I 31,,,FALSE,CV,p,768,cv
CVOE_B,86,1,2,16,P 16,,,FALSE,CV,q,708,cv
CVOE_B,86,1,2,17,A 49,,,FALSE,CV,p,668,cv
CVOE_B,86,1,2,18,O 64,,,TRUE,CV,p,564,cv
CVOE_B,86,1,2,19,D 02,,,FALSE,CV,q,633,cv
CVOE_B,86,1,2,20,P 81,,,TRUE,CV,q,1027,cv
CVOE_B,86,1,2,21,J 58,,,FALSE,CV,q,645,cv
CVOE_B,86,1,2,22,A 22,,,TRUE,CV,p,526,cv
CVOE_B,86,1,2,23,J 72,,,FALSE,CV,q,532,cv
CVOE_B,86,1,2,24,P 91,,,TRUE,CV,q,890,cv
CVOE_B,86,1,2,25,E 19,,,FALSE,CV,p,1002,cv
CVOE_B,86,1,2,26,I 30,,,TRUE,CV,p,461,cv
CVOE_B,86,1,2,27,D 91,,,TRUE,CV,q,566,cv
CVOE_B,86,1,2,28,O 48,,,TRUE,CV,p,531,cv
CVOE_B,86,1,2,29,A 89,,,FALSE,CV,p,529,cv
CVOE_B,86,1,2,30,U 11,,,FALSE,CV,p,631,cv
CVOE_B,86,1,2,31,I 76,,,TRUE,CV,p,632,cv
CVOE_B,86,1,2,32,U 89,,,FALSE,CV,p,466,cv
CVOE_B,86,1,2,33,D 63,,,TRUE,CV,q,595,cv
CVOE_B,86,1,2,34,H 70,,,FALSE,CV,q,494,cv
CVOE_B,86,1,2,35,D 48,,,FALSE,CV,q,469,cv
CVOE_B,86,1,2,36,P 56,,,FALSE,CV,q,526,cv
CVOE_B,86,1,2,37,O 77,,,FALSE,CV,p,549,cv
CVOE_B,86,1,2,38,P 42,,,FALSE,CV,p,698,cv
CVOE_B,86,1,2,39,H 22,,,FALSE,CV,q,1513,cv
CVOE_B,86,1,2,40,E 42,,,TRUE,CV,p,1296,cv
CVOE_B,86,1,2,41,J 28,,,FALSE,CV,q,727,cv
CVOE_B,86,1,2,42,E 95,,,FALSE,CV,p,669,cv
CVOE_B,86,1,2,43,S 63,,,TRUE,CV,q,1253,cv
CVOE_B,86,1,2,44,H 50,,,FALSE,CV,q,735,cv
CVOE_B,86,1,2,45,S 33,,,TRUE,CV,q,605,cv
CVOE_B,86,1,2,46,P 57,,,TRUE,CV,q,984,cv
CVOE_B,86,1,2,47,E 23,,,FALSE,CV,p,924,cv
CVOE_B,86,1,2,48,S 61,,,TRUE,CV,q,706,cv
CVOE_B,86,1,2,49,U 67,,,FALSE,CV,p,594,cv
CVOE_B,86,1,2,50,H 32,,,FALSE,CV,q,893,cv
CVOE_B,86,1,2,51,U 50,,,TRUE,CV,p,837,cv
CVOE_B,86,1,2,52,O 49,,,FALSE,CV,p,623,cv
CVOE_B,86,1,2,53,U 32,,,TRUE,CV,p,561,cv
CVOE_B,86,1,2,54,J 78,,,FALSE,CV,q,630,cv
CVOE_B,86,1,2,55,S 54,,,FALSE,CV,q,1128,cv
CVOE_B,86,1,2,56,J 27,,,TRUE,CV,q,702,cv
CVOE_B,86,1,2,57,S 06,,,FALSE,CV,q,821,cv
CVOE_B,86,1,2,58,D 67,,,TRUE,CV,q,743,cv
CVOE_B,86,1,2,59,A 79,,,FALSE,CV,p,1045,cv
CVOE_B,86,1,2,60,S 52,,,FALSE,CV,q,926,cv
CVOE_B,86,1,2,61,U 16,,,TRUE,CV,p,541,cv
CVOE_B,86,1,2,62,O 82,,,TRUE,CV,p,522,cv
CVOE_B,86,1,2,63,H 87,,,TRUE,CV,q,665,cv
CVOE_B,86,1,2,64,I 32,,,TRUE,CV,p,570,cv
CVOE_B,86,1,2,65,U 37,,,FALSE,CV,p,526,cv
CVOE_B,86,1,2,66,I 42,,,TRUE,CV,p,629,cv
CVOE_B,86,1,2,67,D 65,,,TRUE,CV,q,543,cv
CVOE_B,86,1,2,68,U 77,,,FALSE,CV,p,461,cv
CVOE_B,86,1,2,69,E 12,,,TRUE,CV,p,541,cv
CVOE_B,86,1,2,70,I 60,,,TRUE,CV,p,515,cv
CVOE_B,86,1,2,71,J 36,,,FALSE,CV,q,522,cv
CVOE_B,86,1,2,72,H 75,,,TRUE,CV,q,560,cv
CVOE_B,86,1,2,73,I 50,,,TRUE,CV,p,477,cv
CVOE_B,86,1,2,74,E 99,,,FALSE,CV,p,565,cv
CVOE_B,86,1,2,75,A 86,,,TRUE,CV,p,570,cv
CVOE_B,86,1,2,76,U 48,,,TRUE,CV,p,510,cv
CVOE_B,86,1,2,77,E 01,,,FALSE,CV,p,501,cv
CVOE_B,86,1,2,78,A 78,,,TRUE,CV,p,388,cv
CVOE_B,86,1,2,79,P 60,,,FALSE,CV,q,520,cv
CVOE_B,86,1,2,80,E 43,,,FALSE,CV,p,519,cv
CVOE_B,86,1,2,81,D 69,,,TRUE,CV,q,581,cv
CVOE_B,86,1,2,82,H 11,,,TRUE,CV,q,897,cv
CVOE_B,86,1,2,83,P 43,,,TRUE,CV,q,816,cv
CVOE_B,86,1,2,84,O 67,,,FALSE,CV,p,507,cv
CVOE_B,86,1,2,85,S 91,,,FALSE,CV,q,602,cv
CVOE_B,86,1,2,86,J 68,,,TRUE,CV,q,501,cv
CVOE_B,86,1,2,87,S 47,,,FALSE,CV,q,477,cv
CVOE_B,86,1,2,88,I 81,,,TRUE,CV,p,397,cv
CVOE_B,86,1,2,89,J 39,,,FALSE,CV,q,640,cv
CVOE_B,86,1,2,90,A 11,,,TRUE,CV,p,594,cv
CVOE_B,86,1,2,91,O 76,,,FALSE,CV,p,477,cv
CVOE_B,86,1,2,92,A 62,,,FALSE,CV,p,421,cv
CVOE_B,86,1,2,93,O 27,,,TRUE,CV,p,528,cv
CVOE_B,86,1,2,94,E 66,,,FALSE,CV,p,438,cv
CVOE_B,86,1,2,95,J 62,,,TRUE,CV,p,383,cv
CVOE_B,86,1,2,96,H 72,,,TRUE,CV,q,755,cv
CVOE_B,86,1,2,97,E 49,,,TRUE,CV,p,777,cv
CVOE_B,86,1,2,98,D 52,,,TRUE,CV,q,661,cv
CVOE_B,86,1,2,99,H 62,,,TRUE,CV,q,814,cv
CVOE_B,86,1,2,100,I 11,,,TRUE,CV,p,512,cv
CVOE_B,86,1,2,101,A 98,,,FALSE,CV,p,599,cv
CVOE_B,86,1,2,102,H 29,,,FALSE,CV,q,562,cv
CVOE_B,86,1,2,103,E 83,,,TRUE,CV,p,583,cv
CVOE_B,86,1,2,104,D 43,,,FALSE,CV,q,683,cv
CVOE_B,86,1,2,105,P 45,,,TRUE,CV,q,467,cv
CVOE_B,86,1,2,106,J 17,,,TRUE,CV,q,531,cv
CVOE_B,86,1,3,11,U 38,Number,N,TRUE,OE,p,4933,shuf
CVOE_B,86,1,3,12,P 73,Number,N,TRUE,OE,q,1683,shuf
CVOE_B,86,1,3,13,U 95,Letter,Y,FALSE,CV,p,3187,shuf
CVOE_B,86,1,3,14,J 61,Number,Y,TRUE,OE,q,974,shuf
CVOE_B,86,1,3,15,D 51,Number,N,TRUE,OE,q,5035,shuf
CVOE_B,86,1,3,16,S 28,Number,N,FALSE,OE,p,1485,shuf
CVOE_B,86,1,3,17,A 56,Letter,Y,TRUE,CV,p,2261,shuf
CVOE_B,86,1,3,18,H 78,Letter,N,FALSE,CV,q,1829,shuf
CVOE_B,86,1,3,19,P 92,Letter,N,FALSE,CV,q,1775,shuf
CVOE_B,86,1,3,20,E 05,Number,Y,FALSE,OE,q,1643,shuf
CVOE_B,86,1,3,21,P 57,Letter,Y,TRUE,CV,q,2669,shuf
CVOE_B,86,1,3,22,D 88,Number,Y,FALSE,OE,p,3229,shuf
CVOE_B,86,1,3,23,O 89,Letter,Y,FALSE,CV,p,1911,shuf
CVOE_B,86,1,3,24,U 43,Number,Y,FALSE,OE,q,2205,shuf
CVOE_B,86,1,3,25,H 10,Number,N,FALSE,OE,p,1632,shuf
CVOE_B,86,1,3,26,S 07,Letter,Y,TRUE,CV,q,1826,shuf
CVOE_B,86,1,3,27,J 10,Letter,N,FALSE,CV,q,2557,shuf
CVOE_B,86,1,3,28,H 54,Number,Y,FALSE,OE,p,1322,shuf
CVOE_B,86,1,3,29,E 99,Number,N,FALSE,OE,q,1552,shuf
CVOE_B,86,1,3,30,J 36,Letter,Y,FALSE,CV,p,1622,shuf
CVOE_B,86,1,3,31,I 94,Letter,N,TRUE,CV,p,2768,shuf
CVOE_B,86,1,3,32,A 82,Letter,N,TRUE,CV,p,2245,shuf
CVOE_B,86,1,3,33,H 79,Number,Y,TRUE,OE,q,2038,shuf
CVOE_B,86,1,3,34,J 60,Number,N,FALSE,OE,p,1264,shuf
CVOE_B,86,1,3,35,S 28,Letter,Y,FALSE,CV,q,2640,shuf
CVOE_B,86,1,3,36,P 11,Number,Y,TRUE,OE,q,1682,shuf
CVOE_B,86,1,3,37,D 39,Number,N,TRUE,OE,q,1250,shuf
CVOE_B,86,1,3,38,E 90,Number,N,TRUE,OE,p,1083,shuf
CVOE_B,86,1,3,39,I 38,Number,N,TRUE,OE,p,1339,shuf
CVOE_B,86,1,3,40,S 35,Letter,Y,TRUE,CV,q,1273,shuf
CVOE_B,86,1,3,41,D 41,Number,Y,TRUE,OE,q,1233,shuf
CVOE_B,86,1,3,42,E 06,Number,N,TRUE,OE,p,1931,shuf
CVOE_B,86,1,3,43,A 27,Number,N,FALSE,OE,q,1625,shuf
CVOE_B,86,1,3,44,U 95,Letter,Y,FALSE,CV,p,3956,shuf
CVOE_B,86,1,3,45,A 53,Letter,N,FALSE,CV,p,1145,shuf
CVOE_B,86,1,3,46,E 43,Letter,N,FALSE,CV,p,1150,shuf
CVOE_B,86,1,3,47,P 05,Number,Y,TRUE,OE,q,1683,shuf
CVOE_B,86,1,3,48,O 19,Letter,Y,FALSE,CV,p,2515,shuf
CVOE_B,86,1,3,49,I 96,Number,Y,TRUE,OE,p,1289,shuf
CVOE_B,86,1,3,50,A 88,Number,N,TRUE,OE,p,1129,shuf
CVOE_B,86,1,3,51,I 67,Number,N,FALSE,OE,q,999,shuf
CVOE_B,86,1,3,52,D 40,Number,N,FALSE,OE,p,850,shuf
CVOE_B,86,1,3,53,P 79,Letter,Y,TRUE,CV,q,1820,shuf
CVOE_B,86,1,3,54,U 24,Number,Y,TRUE,OE,p,1158,shuf
CVOE_B,86,1,3,55,P 74,Number,N,FALSE,OE,p,1179,shuf
CVOE_B,86,1,3,56,E 70,Number,N,TRUE,OE,p,1127,shuf
CVOE_B,86,1,3,57,S 27,Number,N,TRUE,OE,q,1021,shuf
CVOE_B,86,1,3,58,E 54,Letter,Y,TRUE,CV,p,1032,shuf
CVOE_B,86,1,3,59,A 53,Letter,N,FALSE,CV,p,930,shuf
