"","ExperimentName","Subject","Group","Block","Trial","STIM","TASK","Switch","Congruent","CVOE","Response","RT","block_type","letter","number","key2","response2","match2","score2"
"1","CVOE updated",45,1,1,11,"A 71","","",FALSE,"CV","p",1248,"cv","A","1","v","v",TRUE,1
"2","CVOE updated",45,1,1,12,"I 66","","",TRUE,"CV","p",611,"cv","I","6","v","v",TRUE,1
"3","CVOE updated",45,1,1,13,"S 30","","",FALSE,"CV","q",518,"cv","S","0","c","c",TRUE,1
"4","CVOE updated",45,1,1,14,"D 20","","",FALSE,"CV","q",622,"cv","D","0","c","c",TRUE,1
"5","CVOE updated",45,1,1,15,"I 31","","",FALSE,"CV","p",516,"cv","I","1","v","v",TRUE,1
"6","CVOE updated",45,1,1,16,"P 16","","",FALSE,"CV","q",781,"cv","P","6","c","c",TRUE,1
"7","CVOE updated",45,1,1,17,"A 49","","",FALSE,"CV","p",746,"cv","A","9","v","v",TRUE,1
"8","CVOE updated",45,1,1,18,"O 64","","",TRUE,"CV","p",448,"cv","O","4","v","v",TRUE,1
"9","CVOE updated",45,1,1,19,"D 02","","",FALSE,"CV","q",428,"cv","D","2","c","c",TRUE,1
"10","CVOE updated",45,1,1,20,"P 81","","",TRUE,"CV","q",473,"cv","P","1","c","c",TRUE,1
"11","CVOE updated",45,1,1,21,"J 58","","",FALSE,"CV","q",503,"cv","J","8","c","c",TRUE,1
"12","CVOE updated",45,1,1,22,"A 22","","",TRUE,"CV","p",404,"cv","A","2","v","v",TRUE,1
"13","CVOE updated",45,1,1,23,"J 72","","",FALSE,"CV","q",445,"cv","J","2","c","c",TRUE,1
"14","CVOE updated",45,1,1,24,"P 91","","",TRUE,"CV","q",533,"cv","P","1","c","c",TRUE,1
"15","CVOE updated",45,1,1,25,"E 19","","",FALSE,"CV","p",440,"cv","E","9","v","v",TRUE,1
"16","CVOE updated",45,1,1,26,"I 30","","",TRUE,"CV","p",473,"cv","I","0","v","v",TRUE,1
"17","CVOE updated",45,1,1,27,"D 91","","",TRUE,"CV","q",494,"cv","D","1","c","c",TRUE,1
"18","CVOE updated",45,1,1,28,"O 48","","",TRUE,"CV","p",593,"cv","O","8","v","v",TRUE,1
"19","CVOE updated",45,1,1,29,"A 89","","",FALSE,"CV","p",554,"cv","A","9","v","v",TRUE,1
"20","CVOE updated",45,1,1,30,"U 11","","",FALSE,"CV","p",562,"cv","U","1","v","v",TRUE,1
"21","CVOE updated",45,1,1,31,"I 76","","",TRUE,"CV","p",387,"cv","I","6","v","v",TRUE,1
"22","CVOE updated",45,1,1,32,"U 89","","",FALSE,"CV","p",432,"cv","U","9","v","v",TRUE,1
"23","CVOE updated",45,1,1,33,"D 63","","",TRUE,"CV","q",526,"cv","D","3","c","c",TRUE,1
"24","CVOE updated",45,1,1,34,"H 70","","",FALSE,"CV","q",606,"cv","H","0","c","c",TRUE,1
"25","CVOE updated",45,1,1,35,"D 48","","",FALSE,"CV","q",473,"cv","D","8","c","c",TRUE,1
"26","CVOE updated",45,1,1,36,"P 56","","",FALSE,"CV","q",442,"cv","P","6","c","c",TRUE,1
"27","CVOE updated",45,1,1,37,"O 77","","",FALSE,"CV","p",562,"cv","O","7","v","v",TRUE,1
"28","CVOE updated",45,1,1,38,"P 42","","",FALSE,"CV","q",611,"cv","P","2","c","c",TRUE,1
"29","CVOE updated",45,1,1,39,"H 22","","",FALSE,"CV","q",638,"cv","H","2","c","c",TRUE,1
"30","CVOE updated",45,1,1,40,"E 42","","",TRUE,"CV","p",670,"cv","E","2","v","v",TRUE,1
"31","CVOE updated",45,1,1,41,"J 28","","",FALSE,"CV","q",436,"cv","J","8","c","c",TRUE,1
"32","CVOE updated",45,1,1,42,"E 95","","",FALSE,"CV","p",404,"cv","E","5","v","v",TRUE,1
"33","CVOE updated",45,1,1,43,"S 63","","",TRUE,"CV","q",517,"cv","S","3","c","c",TRUE,1
"34","CVOE updated",45,1,1,44,"H 50","","",FALSE,"CV","q",357,"cv","H","0","c","c",TRUE,1
"35","CVOE updated",45,1,1,45,"S 33","","",TRUE,"CV","q",381,"cv","S","3","c","c",TRUE,1
"36","CVOE updated",45,1,1,46,"P 57","","",TRUE,"CV","q",419,"cv","P","7","c","c",TRUE,1
"37","CVOE updated",45,1,1,47,"E 23","","",FALSE,"CV","p",414,"cv","E","3","v","v",TRUE,1
"38","CVOE updated",45,1,1,48,"S 61","","",TRUE,"CV","q",425,"cv","S","1","c","c",TRUE,1
"39","CVOE updated",45,1,1,49,"U 67","","",FALSE,"CV","p",728,"cv","U","7","v","v",TRUE,1
"40","CVOE updated",45,1,1,50,"H 32","","",FALSE,"CV","q",482,"cv","H","2","c","c",TRUE,1
"41","CVOE updated",45,1,1,51,"U 50","","",TRUE,"CV","p",586,"cv","U","0","v","v",TRUE,1
"42","CVOE updated",45,1,1,52,"O 49","","",FALSE,"CV","p",544,"cv","O","9","v","v",TRUE,1
"43","CVOE updated",45,1,1,53,"U 32","","",TRUE,"CV","p",502,"cv","U","2","v","v",TRUE,1
"44","CVOE updated",45,1,1,54,"J 78","","",FALSE,"CV","q",412,"cv","J","8","c","c",TRUE,1
"45","CVOE updated",45,1,1,55,"S 54","","",FALSE,"CV","q",503,"cv","S","4","c","c",TRUE,1
"46","CVOE updated",45,1,1,56,"J 27","","",TRUE,"CV","q",396,"cv","J","7","c","c",TRUE,1
"47","CVOE updated",45,1,1,57,"S 06","","",FALSE,"CV","q",389,"cv","S","6","c","c",TRUE,1
"48","CVOE updated",45,1,1,58,"D 67","","",TRUE,"CV","q",466,"cv","D","7","c","c",TRUE,1
"49","CVOE updated",45,1,1,59,"A 79","","",FALSE,"CV","p",552,"cv","A","9","v","v",TRUE,1
"50","CVOE updated",45,1,1,60,"S 52","","",FALSE,"CV","q",430,"cv","S","2","c","c",TRUE,1
"51","CVOE updated",45,1,1,61,"U 16","","",TRUE,"CV","p",459,"cv","U","6","v","v",TRUE,1
"52","CVOE updated",45,1,1,62,"O 82","","",TRUE,"CV","p",454,"cv","O","2","v","v",TRUE,1
"53","CVOE updated",45,1,1,63,"H 87","","",TRUE,"CV","q",449,"cv","H","7","c","c",TRUE,1
"54","CVOE updated",45,1,1,64,"I 32","","",TRUE,"CV","p",565,"cv","I","2","v","v",TRUE,1
"55","CVOE updated",45,1,1,65,"U 37","","",FALSE,"CV","q",629,"cv","U","7","v","c",FALSE,0
"56","CVOE updated",45,1,1,66,"I 42","","",TRUE,"CV","p",1347,"cv","I","2","v","v",TRUE,1
"57","CVOE updated",45,1,1,67,"D 65","","",TRUE,"CV","q",633,"cv","D","5","c","c",TRUE,1
"58","CVOE updated",45,1,1,68,"U 77","","",FALSE,"CV","p",687,"cv","U","7","v","v",TRUE,1
"59","CVOE updated",45,1,1,69,"E 12","","",TRUE,"CV","p",514,"cv","E","2","v","v",TRUE,1
"60","CVOE updated",45,1,1,70,"I 60","","",TRUE,"CV","p",378,"cv","I","0","v","v",TRUE,1
"61","CVOE updated",45,1,1,71,"J 36","","",FALSE,"CV","q",469,"cv","J","6","c","c",TRUE,1
"62","CVOE updated",45,1,1,72,"H 75","","",TRUE,"CV","q",555,"cv","H","5","c","c",TRUE,1
"63","CVOE updated",45,1,1,73,"I 50","","",TRUE,"CV","p",547,"cv","I","0","v","v",TRUE,1
"64","CVOE updated",45,1,1,74,"E 99","","",FALSE,"CV","p",497,"cv","E","9","v","v",TRUE,1
"65","CVOE updated",45,1,1,75,"A 86","","",TRUE,"CV","p",868,"cv","A","6","v","v",TRUE,1
"66","CVOE updated",45,1,1,76,"U 48","","",TRUE,"CV","p",946,"cv","U","8","v","v",TRUE,1
"67","CVOE updated",45,1,1,77,"E 01","","",FALSE,"CV","p",512,"cv","E","1","v","v",TRUE,1
"68","CVOE updated",45,1,1,78,"A 78","","",TRUE,"CV","p",421,"cv","A","8","v","v",TRUE,1
"69","CVOE updated",45,1,1,79,"P 60","","",FALSE,"CV","q",467,"cv","P","0","c","c",TRUE,1
"70","CVOE updated",45,1,1,80,"E 43","","",FALSE,"CV","p",417,"cv","E","3","v","v",TRUE,1
"71","CVOE updated",45,1,1,81,"D 69","","",TRUE,"CV","q",492,"cv","D","9","c","c",TRUE,1
"72","CVOE updated",45,1,1,82,"H 11","","",TRUE,"CV","q",903,"cv","H","1","c","c",TRUE,1
"73","CVOE updated",45,1,1,83,"P 43","","",TRUE,"CV","q",461,"cv","P","3","c","c",TRUE,1
"74","CVOE updated",45,1,1,84,"O 67","","",FALSE,"CV","p",835,"cv","O","7","v","v",TRUE,1
"75","CVOE updated",45,1,1,85,"S 91","","",FALSE,"CV","q",1251,"cv","S","1","c","c",TRUE,1
"76","CVOE updated",45,1,1,86,"J 68","","",TRUE,"CV","q",702,"cv","J","8","c","c",TRUE,1
"77","CVOE updated",45,1,1,87,"S 47","","",FALSE,"CV","q",452,"cv","S","7","c","c",TRUE,1
"78","CVOE updated",45,1,1,88,"I 81","","",TRUE,"CV","p",503,"cv","I","1","v","v",TRUE,1
"79","CVOE updated",45,1,1,89,"J 39","","",FALSE,"CV","q",405,"cv","J","9","c","c",TRUE,1
"80","CVOE updated",45,1,1,90,"A 11","","",TRUE,"CV","p",501,"cv","A","1","v","v",TRUE,1
"81","CVOE updated",45,1,1,91,"O 76","","",FALSE,"CV","p",555,"cv","O","6","v","v",TRUE,1
"82","CVOE updated",45,1,1,92,"A 62","","",FALSE,"CV","p",379,"cv","A","2","v","v",TRUE,1
"83","CVOE updated",45,1,1,93,"O 27","","",TRUE,"CV","p",470,"cv","O","7","v","v",TRUE,1
"84","CVOE updated",45,1,1,94,"E 66","","",FALSE,"CV","p",356,"cv","E","6","v","v",TRUE,1
"85","CVOE updated",45,1,1,95,"J 62","","",TRUE,"CV","q",653,"cv","J","2","c","c",TRUE,1
"86","CVOE updated",45,1,1,96,"H 72","","",TRUE,"CV","q",472,"cv","H","2","c","c",TRUE,1
"87","CVOE updated",45,1,1,97,"E 49","","",TRUE,"CV","p",533,"cv","E","9","v","v",TRUE,1
"88","CVOE updated",45,1,1,98,"D 52","","",TRUE,"CV","q",392,"cv","D","2","c","c",TRUE,1
"89","CVOE updated",45,1,1,99,"H 62","","",TRUE,"CV","q",358,"cv","H","2","c","c",TRUE,1
"90","CVOE updated",45,1,1,100,"I 11","","",TRUE,"CV","p",510,"cv","I","1","v","v",TRUE,1
"91","CVOE updated",45,1,1,101,"A 98","","",FALSE,"CV","p",580,"cv","A","8","v","v",TRUE,1
"92","CVOE updated",45,1,1,102,"H 29","","",FALSE,"CV","q",562,"cv","H","9","c","c",TRUE,1
"93","CVOE updated",45,1,1,103,"E 83","","",TRUE,"CV","p",442,"cv","E","3","v","v",TRUE,1
"94","CVOE updated",45,1,1,104,"D 43","","",FALSE,"CV","q",459,"cv","D","3","c","c",TRUE,1
"95","CVOE updated",45,1,1,105,"P 45","","",TRUE,"CV","q",718,"cv","P","5","c","c",TRUE,1
"96","CVOE updated",45,1,1,106,"J 17","","",TRUE,"CV","q",406,"cv","J","7","c","c",TRUE,1
"433","CVOE updated",49,1,1,11,"A 71","","",FALSE,"CV","p",1233,"cv","A","1","v","v",TRUE,1
"434","CVOE updated",49,1,1,12,"I 66","","",TRUE,"CV","p",414,"cv","I","6","v","v",TRUE,1
"435","CVOE updated",49,1,1,13,"S 30","","",FALSE,"CV","q",555,"cv","S","0","c","c",TRUE,1
"436","CVOE updated",49,1,1,14,"D 20","","",FALSE,"CV","q",643,"cv","D","0","c","c",TRUE,1
"437","CVOE updated",49,1,1,15,"I 31","","",FALSE,"CV","p",452,"cv","I","1","v","v",TRUE,1
"438","CVOE updated",49,1,1,16,"P 16","","",FALSE,"CV","q",963,"cv","P","6","c","c",TRUE,1
"439","CVOE updated",49,1,1,17,"A 49","","",FALSE,"CV","p",522,"cv","A","9","v","v",TRUE,1
"440","CVOE updated",49,1,1,18,"O 64","","",TRUE,"CV","p",536,"cv","O","4","v","v",TRUE,1
"441","CVOE updated",49,1,1,19,"D 02","","",FALSE,"CV","q",472,"cv","D","2","c","c",TRUE,1
"442","CVOE updated",49,1,1,20,"P 81","","",TRUE,"CV","p",394,"cv","P","1","c","v",FALSE,0
"443","CVOE updated",49,1,1,21,"J 58","","",FALSE,"CV","q",2659,"cv","J","8","c","c",TRUE,1
"444","CVOE updated",49,1,1,22,"A 22","","",TRUE,"CV","p",541,"cv","A","2","v","v",TRUE,1
"445","CVOE updated",49,1,1,23,"J 72","","",FALSE,"CV","q",477,"cv","J","2","c","c",TRUE,1
"446","CVOE updated",49,1,1,24,"P 91","","",TRUE,"CV","q",378,"cv","P","1","c","c",TRUE,1
"447","CVOE updated",49,1,1,25,"E 19","","",FALSE,"CV","p",469,"cv","E","9","v","v",TRUE,1
"448","CVOE updated",49,1,1,26,"I 30","","",TRUE,"CV","p",2079,"cv","I","0","v","v",TRUE,1
"449","CVOE updated",49,1,1,27,"D 91","","",TRUE,"CV","q",471,"cv","D","1","c","c",TRUE,1
"450","CVOE updated",49,1,1,28,"O 48","","",TRUE,"CV","p",6053,"cv","O","8","v","v",TRUE,1
"451","CVOE updated",49,1,1,29,"A 89","","",FALSE,"CV","p",460,"cv","A","9","v","v",TRUE,1
"452","CVOE updated",49,1,1,30,"U 11","","",FALSE,"CV","p",504,"cv","U","1","v","v",TRUE,1
"453","CVOE updated",49,1,1,31,"I 76","","",TRUE,"CV","p",445,"cv","I","6","v","v",TRUE,1
"454","CVOE updated",49,1,1,32,"U 89","","",FALSE,"CV","p",666,"cv","U","9","v","v",TRUE,1
"455","CVOE updated",49,1,1,33,"D 63","","",TRUE,"CV","q",593,"cv","D","3","c","c",TRUE,1
"456","CVOE updated",49,1,1,34,"H 70","","",FALSE,"CV","q",725,"cv","H","0","c","c",TRUE,1
"457","CVOE updated",49,1,1,35,"D 48","","",FALSE,"CV","q",475,"cv","D","8","c","c",TRUE,1
"458","CVOE updated",49,1,1,36,"P 56","","",FALSE,"CV","q",411,"cv","P","6","c","c",TRUE,1
"459","CVOE updated",49,1,1,37,"O 77","","",FALSE,"CV","p",502,"cv","O","7","v","v",TRUE,1
"460","CVOE updated",49,1,1,38,"P 42","","",FALSE,"CV","q",611,"cv","P","2","c","c",TRUE,1
"461","CVOE updated",49,1,1,39,"H 22","","",FALSE,"CV","q",394,"cv","H","2","c","c",TRUE,1
"462","CVOE updated",49,1,1,40,"E 42","","",TRUE,"CV","p",439,"cv","E","2","v","v",TRUE,1
"463","CVOE updated",49,1,1,41,"J 28","","",FALSE,"CV","q",566,"cv","J","8","c","c",TRUE,1
"464","CVOE updated",49,1,1,42,"E 95","","",FALSE,"CV","p",462,"cv","E","5","v","v",TRUE,1
"465","CVOE updated",49,1,1,43,"S 63","","",TRUE,"CV","q",530,"cv","S","3","c","c",TRUE,1
"466","CVOE updated",49,1,1,44,"H 50","","",FALSE,"CV","q",579,"cv","H","0","c","c",TRUE,1
"467","CVOE updated",49,1,1,45,"S 33","","",TRUE,"CV","q",448,"cv","S","3","c","c",TRUE,1
"468","CVOE updated",49,1,1,46,"P 57","","",TRUE,"CV","q",340,"cv","P","7","c","c",TRUE,1
"469","CVOE updated",49,1,1,47,"E 23","","",FALSE,"CV","p",469,"cv","E","3","v","v",TRUE,1
"470","CVOE updated",49,1,1,48,"S 61","","",TRUE,"CV","q",594,"cv","S","1","c","c",TRUE,1
"471","CVOE updated",49,1,1,49,"U 67","","",FALSE,"CV","p",603,"cv","U","7","v","v",TRUE,1
"472","CVOE updated",49,1,1,50,"H 32","","",FALSE,"CV","q",556,"cv","H","2","c","c",TRUE,1
"473","CVOE updated",49,1,1,51,"U 50","","",TRUE,"CV","p",551,"cv","U","0","v","v",TRUE,1
"474","CVOE updated",49,1,1,52,"O 49","","",FALSE,"CV","p",653,"cv","O","9","v","v",TRUE,1
"475","CVOE updated",49,1,1,53,"U 32","","",TRUE,"CV","p",511,"cv","U","2","v","v",TRUE,1
"476","CVOE updated",49,1,1,54,"J 78","","",FALSE,"CV","q",577,"cv","J","8","c","c",TRUE,1
"477","CVOE updated",49,1,1,55,"S 54","","",FALSE,"CV","q",586,"cv","S","4","c","c",TRUE,1
"478","CVOE updated",49,1,1,56,"J 27","","",TRUE,"CV","q",368,"cv","J","7","c","c",TRUE,1
"479","CVOE updated",49,1,1,57,"S 06","","",FALSE,"CV","q",576,"cv","S","6","c","c",TRUE,1
"480","CVOE updated",49,1,1,58,"D 67","","",TRUE,"CV","q",349,"cv","D","7","c","c",TRUE,1
"481","CVOE updated",49,1,1,59,"A 79","","",FALSE,"CV","p",531,"cv","A","9","v","v",TRUE,1
"482","CVOE updated",49,1,1,60,"S 52","","",FALSE,"CV","q",712,"cv","S","2","c","c",TRUE,1
"483","CVOE updated",49,1,1,61,"U 16","","",TRUE,"CV","p",631,"cv","U","6","v","v",TRUE,1
"484","CVOE updated",49,1,1,62,"O 82","","",TRUE,"CV","p",1176,"cv","O","2","v","v",TRUE,1
"485","CVOE updated",49,1,1,63,"H 87","","",TRUE,"CV","q",615,"cv","H","7","c","c",TRUE,1
"486","CVOE updated",49,1,1,64,"I 32","","",TRUE,"CV","p",634,"cv","I","2","v","v",TRUE,1
"487","CVOE updated",49,1,1,65,"U 37","","",FALSE,"CV","p",1029,"cv","U","7","v","v",TRUE,1
"488","CVOE updated",49,1,1,66,"I 42","","",TRUE,"CV","p",451,"cv","I","2","v","v",TRUE,1
"489","CVOE updated",49,1,1,67,"D 65","","",TRUE,"CV","q",641,"cv","D","5","c","c",TRUE,1
"490","CVOE updated",49,1,1,68,"U 77","","",FALSE,"CV","p",977,"cv","U","7","v","v",TRUE,1
"491","CVOE updated",49,1,1,69,"E 12","","",TRUE,"CV","p",352,"cv","E","2","v","v",TRUE,1
"492","CVOE updated",49,1,1,70,"I 60","","",TRUE,"CV","p",339,"cv","I","0","v","v",TRUE,1
"493","CVOE updated",49,1,1,71,"J 36","","",FALSE,"CV","q",515,"cv","J","6","c","c",TRUE,1
"494","CVOE updated",49,1,1,72,"H 75","","",TRUE,"CV","q",658,"cv","H","5","c","c",TRUE,1
"495","CVOE updated",49,1,1,73,"I 50","","",TRUE,"CV","q",271,"cv","I","0","v","c",FALSE,0
"496","CVOE updated",49,1,1,74,"E 99","","",FALSE,"CV","p",758,"cv","E","9","v","v",TRUE,1
"497","CVOE updated",49,1,1,75,"A 86","","",TRUE,"CV","p",1183,"cv","A","6","v","v",TRUE,1
"498","CVOE updated",49,1,1,76,"U 48","","",TRUE,"CV","p",605,"cv","U","8","v","v",TRUE,1
"499","CVOE updated",49,1,1,77,"E 01","","",FALSE,"CV","p",593,"cv","E","1","v","v",TRUE,1
"500","CVOE updated",49,1,1,78,"A 78","","",TRUE,"CV","p",545,"cv","A","8","v","v",TRUE,1
"501","CVOE updated",49,1,1,79,"P 60","","",FALSE,"CV","q",599,"cv","P","0","c","c",TRUE,1
"502","CVOE updated",49,1,1,80,"E 43","","",FALSE,"CV","p",886,"cv","E","3","v","v",TRUE,1
"503","CVOE updated",49,1,1,81,"D 69","","",TRUE,"CV","q",601,"cv","D","9","c","c",TRUE,1
"504","CVOE updated",49,1,1,82,"H 11","","",TRUE,"CV","q",1810,"cv","H","1","c","c",TRUE,1
"505","CVOE updated",49,1,1,83,"P 43","","",TRUE,"CV","q",345,"cv","P","3","c","c",TRUE,1
"506","CVOE updated",49,1,1,84,"O 67","","",FALSE,"CV","p",534,"cv","O","7","v","v",TRUE,1
"507","CVOE updated",49,1,1,85,"S 91","","",FALSE,"CV","q",723,"cv","S","1","c","c",TRUE,1
"508","CVOE updated",49,1,1,86,"J 68","","",TRUE,"CV","q",371,"cv","J","8","c","c",TRUE,1
"509","CVOE updated",49,1,1,87,"S 47","","",FALSE,"CV","q",503,"cv","S","7","c","c",TRUE,1
"510","CVOE updated",49,1,1,88,"I 81","","",TRUE,"CV","p",523,"cv","I","1","v","v",TRUE,1
"511","CVOE updated",49,1,1,89,"J 39","","",FALSE,"CV","q",2020,"cv","J","9","c","c",TRUE,1
"512","CVOE updated",49,1,1,90,"A 11","","",TRUE,"CV","p",501,"cv","A","1","v","v",TRUE,1
"513","CVOE updated",49,1,1,91,"O 76","","",FALSE,"CV","p",2940,"cv","O","6","v","v",TRUE,1
"514","CVOE updated",49,1,1,92,"A 62","","",FALSE,"CV","p",319,"cv","A","2","v","v",TRUE,1
"515","CVOE updated",49,1,1,93,"O 27","","",TRUE,"CV","p",299,"cv","O","7","v","v",TRUE,1
"516","CVOE updated",49,1,1,94,"E 66","","",FALSE,"CV","p",317,"cv","E","6","v","v",TRUE,1
"517","CVOE updated",49,1,1,95,"J 62","","",TRUE,"CV","q",653,"cv","J","2","c","c",TRUE,1
"518","CVOE updated",49,1,1,96,"H 72","","",TRUE,"CV","q",679,"cv","H","2","c","c",TRUE,1
"519","CVOE updated",49,1,1,97,"E 49","","",TRUE,"CV","p",527,"cv","E","9","v","v",TRUE,1
"520","CVOE updated",49,1,1,98,"D 52","","",TRUE,"CV","q",553,"cv","D","2","c","c",TRUE,1
"521","CVOE updated",49,1,1,99,"H 62","","",TRUE,"CV","q",658,"cv","H","2","c","c",TRUE,1
"522","CVOE updated",49,1,1,100,"I 11","","",TRUE,"CV","p",431,"cv","I","1","v","v",TRUE,1
"523","CVOE updated",49,1,1,101,"A 98","","",FALSE,"CV","p",1144,"cv","A","8","v","v",TRUE,1
"524","CVOE updated",49,1,1,102,"H 29","","",FALSE,"CV","q",535,"cv","H","9","c","c",TRUE,1
"525","CVOE updated",49,1,1,103,"E 83","","",TRUE,"CV","p",589,"cv","E","3","v","v",TRUE,1
"526","CVOE updated",49,1,1,104,"D 43","","",FALSE,"CV","p",347,"cv","D","3","c","v",FALSE,0
"527","CVOE updated",49,1,1,105,"P 45","","",TRUE,"CV","q",985,"cv","P","5","c","c",TRUE,1
"528","CVOE updated",49,1,1,106,"J 17","","",TRUE,"CV","q",650,"cv","J","7","c","c",TRUE,1
"865","CVOE updated",53,1,1,11,"A 71","","",FALSE,"CV","p",779,"cv","A","1","v","v",TRUE,1
"866","CVOE updated",53,1,1,12,"I 66","","",TRUE,"CV","p",550,"cv","I","6","v","v",TRUE,1
"867","CVOE updated",53,1,1,13,"S 30","","",FALSE,"CV","q",489,"cv","S","0","c","c",TRUE,1
"868","CVOE updated",53,1,1,14,"D 20","","",FALSE,"CV","q",469,"cv","D","0","c","c",TRUE,1
"869","CVOE updated",53,1,1,15,"I 31","","",FALSE,"CV","p",396,"cv","I","1","v","v",TRUE,1
"870","CVOE updated",53,1,1,16,"P 16","","",FALSE,"CV","q",416,"cv","P","6","c","c",TRUE,1
"871","CVOE updated",53,1,1,17,"A 49","","",FALSE,"CV","p",348,"cv","A","9","v","v",TRUE,1
"872","CVOE updated",53,1,1,18,"O 64","","",TRUE,"CV","p",481,"cv","O","4","v","v",TRUE,1
"873","CVOE updated",53,1,1,19,"D 02","","",FALSE,"CV","q",465,"cv","D","2","c","c",TRUE,1
"874","CVOE updated",53,1,1,20,"P 81","","",TRUE,"CV","q",440,"cv","P","1","c","c",TRUE,1
"875","CVOE updated",53,1,1,21,"J 58","","",FALSE,"CV","q",565,"cv","J","8","c","c",TRUE,1
"876","CVOE updated",53,1,1,22,"A 22","","",TRUE,"CV","p",401,"cv","A","2","v","v",TRUE,1
"877","CVOE updated",53,1,1,23,"J 72","","",FALSE,"CV","q",446,"cv","J","2","c","c",TRUE,1
"878","CVOE updated",53,1,1,24,"P 91","","",TRUE,"CV","q",552,"cv","P","1","c","c",TRUE,1
"879","CVOE updated",53,1,1,25,"E 19","","",FALSE,"CV","p",471,"cv","E","9","v","v",TRUE,1
"880","CVOE updated",53,1,1,26,"I 30","","",TRUE,"CV","p",449,"cv","I","0","v","v",TRUE,1
"881","CVOE updated",53,1,1,27,"D 91","","",TRUE,"CV","q",448,"cv","D","1","c","c",TRUE,1
"882","CVOE updated",53,1,1,28,"O 48","","",TRUE,"CV","p",399,"cv","O","8","v","v",TRUE,1
"883","CVOE updated",53,1,1,29,"A 89","","",FALSE,"CV","q",422,"cv","A","9","v","c",FALSE,0
"884","CVOE updated",53,1,1,30,"U 11","","",FALSE,"CV","p",688,"cv","U","1","v","v",TRUE,1
"885","CVOE updated",53,1,1,31,"I 76","","",TRUE,"CV","p",454,"cv","I","6","v","v",TRUE,1
"886","CVOE updated",53,1,1,32,"U 89","","",FALSE,"CV","p",536,"cv","U","9","v","v",TRUE,1
"887","CVOE updated",53,1,1,33,"D 63","","",TRUE,"CV","q",484,"cv","D","3","c","c",TRUE,1
"888","CVOE updated",53,1,1,34,"H 70","","",FALSE,"CV","q",625,"cv","H","0","c","c",TRUE,1
"889","CVOE updated",53,1,1,35,"D 48","","",FALSE,"CV","q",577,"cv","D","8","c","c",TRUE,1
"890","CVOE updated",53,1,1,36,"P 56","","",FALSE,"CV","q",474,"cv","P","6","c","c",TRUE,1
"891","CVOE updated",53,1,1,37,"O 77","","",FALSE,"CV","p",475,"cv","O","7","v","v",TRUE,1
"892","CVOE updated",53,1,1,38,"P 42","","",FALSE,"CV","q",458,"cv","P","2","c","c",TRUE,1
"893","CVOE updated",53,1,1,39,"H 22","","",FALSE,"CV","q",428,"cv","H","2","c","c",TRUE,1
"894","CVOE updated",53,1,1,40,"E 42","","",TRUE,"CV","p",544,"cv","E","2","v","v",TRUE,1
"895","CVOE updated",53,1,1,41,"J 28","","",FALSE,"CV","q",556,"cv","J","8","c","c",TRUE,1
"896","CVOE updated",53,1,1,42,"E 95","","",FALSE,"CV","p",396,"cv","E","5","v","v",TRUE,1
"897","CVOE updated",53,1,1,43,"S 63","","",TRUE,"CV","q",435,"cv","S","3","c","c",TRUE,1
"898","CVOE updated",53,1,1,44,"H 50","","",FALSE,"CV","q",572,"cv","H","0","c","c",TRUE,1
"899","CVOE updated",53,1,1,45,"S 33","","",TRUE,"CV","q",444,"cv","S","3","c","c",TRUE,1
"900","CVOE updated",53,1,1,46,"P 57","","",TRUE,"CV","q",444,"cv","P","7","c","c",TRUE,1
"901","CVOE updated",53,1,1,47,"E 23","","",FALSE,"CV","p",709,"cv","E","3","v","v",TRUE,1
"902","CVOE updated",53,1,1,48,"S 61","","",TRUE,"CV","q",500,"cv","S","1","c","c",TRUE,1
"903","CVOE updated",53,1,1,49,"U 67","","",FALSE,"CV","p",391,"cv","U","7","v","v",TRUE,1
"904","CVOE updated",53,1,1,50,"H 32","","",FALSE,"CV","q",449,"cv","H","2","c","c",TRUE,1
"905","CVOE updated",53,1,1,51,"U 50","","",TRUE,"CV","p",577,"cv","U","0","v","v",TRUE,1
"906","CVOE updated",53,1,1,52,"O 49","","",FALSE,"CV","p",470,"cv","O","9","v","v",TRUE,1
"907","CVOE updated",53,1,1,53,"U 32","","",TRUE,"CV","p",439,"cv","U","2","v","v",TRUE,1
"908","CVOE updated",53,1,1,54,"J 78","","",FALSE,"CV","q",560,"cv","J","8","c","c",TRUE,1
"909","CVOE updated",53,1,1,55,"S 54","","",FALSE,"CV","q",517,"cv","S","4","c","c",TRUE,1
"910","CVOE updated",53,1,1,56,"J 27","","",TRUE,"CV","q",481,"cv","J","7","c","c",TRUE,1
"911","CVOE updated",53,1,1,57,"S 06","","",FALSE,"CV","q",440,"cv","S","6","c","c",TRUE,1
"912","CVOE updated",53,1,1,58,"D 67","","",TRUE,"CV","q",393,"cv","D","7","c","c",TRUE,1
"913","CVOE updated",53,1,1,59,"A 79","","",FALSE,"CV","p",497,"cv","A","9","v","v",TRUE,1
"914","CVOE updated",53,1,1,60,"S 52","","",FALSE,"CV","q",509,"cv","S","2","c","c",TRUE,1
"915","CVOE updated",53,1,1,61,"U 16","","",TRUE,"CV","p",638,"cv","U","6","v","v",TRUE,1
"916","CVOE updated",53,1,1,62,"O 82","","",TRUE,"CV","p",1026,"cv","O","2","v","v",TRUE,1
"917","CVOE updated",53,1,1,63,"H 87","","",TRUE,"CV","q",530,"cv","H","7","c","c",TRUE,1
"918","CVOE updated",53,1,1,64,"I 32","","",TRUE,"CV","p",495,"cv","I","2","v","v",TRUE,1
"919","CVOE updated",53,1,1,65,"U 37","","",FALSE,"CV","p",569,"cv","U","7","v","v",TRUE,1
"920","CVOE updated",53,1,1,66,"I 42","","",TRUE,"CV","p",601,"cv","I","2","v","v",TRUE,1
"921","CVOE updated",53,1,1,67,"D 65","","",TRUE,"CV","q",405,"cv","D","5","c","c",TRUE,1
"922","CVOE updated",53,1,1,68,"U 77","","",FALSE,"CV","p",400,"cv","U","7","v","v",TRUE,1
"923","CVOE updated",53,1,1,69,"E 12","","",TRUE,"CV","p",576,"cv","E","2","v","v",TRUE,1
"924","CVOE updated",53,1,1,70,"I 60","","",TRUE,"CV","p",423,"cv","I","0","v","v",TRUE,1
"925","CVOE updated",53,1,1,71,"J 36","","",FALSE,"CV","q",564,"cv","J","6","c","c",TRUE,1
"926","CVOE updated",53,1,1,72,"H 75","","",TRUE,"CV","q",630,"cv","H","5","c","c",TRUE,1
"927","CVOE updated",53,1,1,73,"I 50","","",TRUE,"CV","p",560,"cv","I","0","v","v",TRUE,1
"928","CVOE updated",53,1,1,74,"E 99","","",FALSE,"CV","p",511,"cv","E","9","v","v",TRUE,1
"929","CVOE updated",53,1,1,75,"A 86","","",TRUE,"CV","p",504,"cv","A","6","v","v",TRUE,1
"930","CVOE updated",53,1,1,76,"U 48","","",TRUE,"CV","p",473,"cv","U","8","v","v",TRUE,1
"931","CVOE updated",53,1,1,77,"E 01","","",FALSE,"CV","p",517,"cv","E","1","v","v",TRUE,1
"932","CVOE updated",53,1,1,78,"A 78","","",TRUE,"CV","p",465,"cv","A","8","v","v",TRUE,1
"933","CVOE updated",53,1,1,79,"P 60","","",FALSE,"CV","q",508,"cv","P","0","c","c",TRUE,1
"934","CVOE updated",53,1,1,80,"E 43","","",FALSE,"CV","p",348,"cv","E","3","v","v",TRUE,1
"935","CVOE updated",53,1,1,81,"D 69","","",TRUE,"CV","q",476,"cv","D","9","c","c",TRUE,1
"936","CVOE updated",53,1,1,82,"H 11","","",TRUE,"CV","p",376,"cv","H","1","c","v",FALSE,0
"937","CVOE updated",53,1,1,83,"P 43","","",TRUE,"CV","q",795,"cv","P","3","c","c",TRUE,1
"938","CVOE updated",53,1,1,84,"O 67","","",FALSE,"CV","p",442,"cv","O","7","v","v",TRUE,1
"939","CVOE updated",53,1,1,85,"S 91","","",FALSE,"CV","q",394,"cv","S","1","c","c",TRUE,1
"940","CVOE updated",53,1,1,86,"J 68","","",TRUE,"CV","q",416,"cv","J","8","c","c",TRUE,1
"941","CVOE updated",53,1,1,87,"S 47","","",FALSE,"CV","q",376,"cv","S","7","c","c",TRUE,1
"942","CVOE updated",53,1,1,88,"I 81","","",TRUE,"CV","p",581,"cv","I","1","v","v",TRUE,1
"943","CVOE updated",53,1,1,89,"J 39","","",FALSE,"CV","q",429,"cv","J","9","c","c",TRUE,1
"944","CVOE updated",53,1,1,90,"A 11","","",TRUE,"CV","p",522,"cv","A","1","v","v",TRUE,1
"945","CVOE updated",53,1,1,91,"O 76","","",FALSE,"CV","p",666,"cv","O","6","v","v",TRUE,1
"946","CVOE updated",53,1,1,92,"A 62","","",FALSE,"CV","p",326,"cv","A","2","v","v",TRUE,1
"947","CVOE updated",53,1,1,93,"O 27","","",TRUE,"CV","p",341,"cv","O","7","v","v",TRUE,1
"948","CVOE updated",53,1,1,94,"E 66","","",FALSE,"CV","p",319,"cv","E","6","v","v",TRUE,1
"949","CVOE updated",53,1,1,95,"J 62","","",TRUE,"CV","q",434,"cv","J","2","c","c",TRUE,1
"950","CVOE updated",53,1,1,96,"H 72","","",TRUE,"CV","q",359,"cv","H","2","c","c",TRUE,1
"951","CVOE updated",53,1,1,97,"E 49","","",TRUE,"CV","p",541,"cv","E","9","v","v",TRUE,1
"952","CVOE updated",53,1,1,98,"D 52","","",TRUE,"CV","q",420,"cv","D","2","c","c",TRUE,1
"953","CVOE updated",53,1,1,99,"H 62","","",TRUE,"CV","q",454,"cv","H","2","c","c",TRUE,1
"954","CVOE updated",53,1,1,100,"I 11","","",TRUE,"CV","p",456,"cv","I","1","v","v",TRUE,1
"955","CVOE updated",53,1,1,101,"A 98","","",FALSE,"CV","p",454,"cv","A","8","v","v",TRUE,1
"956","CVOE updated",53,1,1,102,"H 29","","",FALSE,"CV","q",522,"cv","H","9","c","c",TRUE,1
"957","CVOE updated",53,1,1,103,"E 83","","",TRUE,"CV","p",391,"cv","E","3","v","v",TRUE,1
"958","CVOE updated",53,1,1,104,"D 43","","",FALSE,"CV","q",495,"cv","D","3","c","c",TRUE,1
"959","CVOE updated",53,1,1,105,"P 45","","",TRUE,"CV","q",543,"cv","P","5","c","c",TRUE,1
"960","CVOE updated",53,1,1,106,"J 17","","",TRUE,"CV","q",371,"cv","J","7","c","c",TRUE,1
"1297","CVOE updated",57,1,1,11,"A 71","","",FALSE,"CV","p",550,"cv","A","1","v","v",TRUE,1
"1298","CVOE updated",57,1,1,12,"I 66","","",TRUE,"CV","p",580,"cv","I","6","v","v",TRUE,1
"1299","CVOE updated",57,1,1,13,"S 30","","",FALSE,"CV","q",519,"cv","S","0","c","c",TRUE,1
"1300","CVOE updated",57,1,1,14,"D 20","","",FALSE,"CV","q",415,"cv","D","0","c","c",TRUE,1
"1301","CVOE updated",57,1,1,15,"I 31","","",FALSE,"CV","p",402,"cv","I","1","v","v",TRUE,1
"1302","CVOE updated",57,1,1,16,"P 16","","",FALSE,"CV","q",451,"cv","P","6","c","c",TRUE,1
"1303","CVOE updated",57,1,1,17,"A 49","","",FALSE,"CV","p",510,"cv","A","9","v","v",TRUE,1
"1304","CVOE updated",57,1,1,18,"O 64","","",TRUE,"CV","p",436,"cv","O","4","v","v",TRUE,1
"1305","CVOE updated",57,1,1,19,"D 02","","",FALSE,"CV","q",396,"cv","D","2","c","c",TRUE,1
"1306","CVOE updated",57,1,1,20,"P 81","","",TRUE,"CV","q",508,"cv","P","1","c","c",TRUE,1
"1307","CVOE updated",57,1,1,21,"J 58","","",FALSE,"CV","q",482,"cv","J","8","c","c",TRUE,1
"1308","CVOE updated",57,1,1,22,"A 22","","",TRUE,"CV","p",434,"cv","A","2","v","v",TRUE,1
"1309","CVOE updated",57,1,1,23,"J 72","","",FALSE,"CV","q",355,"cv","J","2","c","c",TRUE,1
"1310","CVOE updated",57,1,1,24,"P 91","","",TRUE,"CV","q",395,"cv","P","1","c","c",TRUE,1
"1311","CVOE updated",57,1,1,25,"E 19","","",FALSE,"CV","p",323,"cv","E","9","v","v",TRUE,1
"1312","CVOE updated",57,1,1,26,"I 30","","",TRUE,"CV","p",316,"cv","I","0","v","v",TRUE,1
"1313","CVOE updated",57,1,1,27,"D 91","","",TRUE,"CV","q",372,"cv","D","1","c","c",TRUE,1
"1314","CVOE updated",57,1,1,28,"O 48","","",TRUE,"CV","p",375,"cv","O","8","v","v",TRUE,1
"1315","CVOE updated",57,1,1,29,"A 89","","",FALSE,"CV","q",338,"cv","A","9","v","c",FALSE,0
"1316","CVOE updated",57,1,1,30,"U 11","","",FALSE,"CV","q",341,"cv","U","1","v","c",FALSE,0
"1317","CVOE updated",57,1,1,31,"I 76","","",TRUE,"CV","p",483,"cv","I","6","v","v",TRUE,1
"1318","CVOE updated",57,1,1,32,"U 89","","",FALSE,"CV","p",363,"cv","U","9","v","v",TRUE,1
"1319","CVOE updated",57,1,1,33,"D 63","","",TRUE,"CV","q",419,"cv","D","3","c","c",TRUE,1
"1320","CVOE updated",57,1,1,34,"H 70","","",FALSE,"CV","q",415,"cv","H","0","c","c",TRUE,1
"1321","CVOE updated",57,1,1,35,"D 48","","",FALSE,"CV","q",434,"cv","D","8","c","c",TRUE,1
"1322","CVOE updated",57,1,1,36,"P 56","","",FALSE,"CV","q",386,"cv","P","6","c","c",TRUE,1
"1323","CVOE updated",57,1,1,37,"O 77","","",FALSE,"CV","p",360,"cv","O","7","v","v",TRUE,1
"1324","CVOE updated",57,1,1,38,"P 42","","",FALSE,"CV","q",344,"cv","P","2","c","c",TRUE,1
"1325","CVOE updated",57,1,1,39,"H 22","","",FALSE,"CV","q",422,"cv","H","2","c","c",TRUE,1
"1326","CVOE updated",57,1,1,40,"E 42","","",TRUE,"CV","p",331,"cv","E","2","v","v",TRUE,1
"1327","CVOE updated",57,1,1,41,"J 28","","",FALSE,"CV","q",478,"cv","J","8","c","c",TRUE,1
"1328","CVOE updated",57,1,1,42,"E 95","","",FALSE,"CV","p",383,"cv","E","5","v","v",TRUE,1
"1329","CVOE updated",57,1,1,43,"S 63","","",TRUE,"CV","q",468,"cv","S","3","c","c",TRUE,1
"1330","CVOE updated",57,1,1,44,"H 50","","",FALSE,"CV","q",354,"cv","H","0","c","c",TRUE,1
"1331","CVOE updated",57,1,1,45,"S 33","","",TRUE,"CV","p",434,"cv","S","3","c","v",FALSE,0
"1332","CVOE updated",57,1,1,46,"P 57","","",TRUE,"CV","q",595,"cv","P","7","c","c",TRUE,1
"1333","CVOE updated",57,1,1,47,"E 23","","",FALSE,"CV","q",395,"cv","E","3","v","c",FALSE,0
"1334","CVOE updated",57,1,1,48,"S 61","","",TRUE,"CV","q",411,"cv","S","1","c","c",TRUE,1
"1335","CVOE updated",57,1,1,49,"U 67","","",FALSE,"CV","q",503,"cv","U","7","v","c",FALSE,0
"1336","CVOE updated",57,1,1,50,"H 32","","",FALSE,"CV","q",404,"cv","H","2","c","c",TRUE,1
"1337","CVOE updated",57,1,1,51,"U 50","","",TRUE,"CV","p",365,"cv","U","0","v","v",TRUE,1
"1338","CVOE updated",57,1,1,52,"O 49","","",FALSE,"CV","p",437,"cv","O","9","v","v",TRUE,1
"1339","CVOE updated",57,1,1,53,"U 32","","",TRUE,"CV","p",821,"cv","U","2","v","v",TRUE,1
"1340","CVOE updated",57,1,1,54,"J 78","","",FALSE,"CV","q",363,"cv","J","8","c","c",TRUE,1
"1341","CVOE updated",57,1,1,55,"S 54","","",FALSE,"CV","q",411,"cv","S","4","c","c",TRUE,1
"1342","CVOE updated",57,1,1,56,"J 27","","",TRUE,"CV","q",318,"cv","J","7","c","c",TRUE,1
"1343","CVOE updated",57,1,1,57,"S 06","","",FALSE,"CV","q",327,"cv","S","6","c","c",TRUE,1
"1344","CVOE updated",57,1,1,58,"D 67","","",TRUE,"CV","q",391,"cv","D","7","c","c",TRUE,1
"1345","CVOE updated",57,1,1,59,"A 79","","",FALSE,"CV","p",341,"cv","A","9","v","v",TRUE,1
"1346","CVOE updated",57,1,1,60,"S 52","","",FALSE,"CV","q",434,"cv","S","2","c","c",TRUE,1
"1347","CVOE updated",57,1,1,61,"U 16","","",TRUE,"CV","p",379,"cv","U","6","v","v",TRUE,1
"1348","CVOE updated",57,1,1,62,"O 82","","",TRUE,"CV","p",342,"cv","O","2","v","v",TRUE,1
"1349","CVOE updated",57,1,1,63,"H 87","","",TRUE,"CV","q",380,"cv","H","7","c","c",TRUE,1
"1350","CVOE updated",57,1,1,64,"I 32","","",TRUE,"CV","p",351,"cv","I","2","v","v",TRUE,1
"1351","CVOE updated",57,1,1,65,"U 37","","",FALSE,"CV","q",324,"cv","U","7","v","c",FALSE,0
"1352","CVOE updated",57,1,1,66,"I 42","","",TRUE,"CV","p",508,"cv","I","2","v","v",TRUE,1
"1353","CVOE updated",57,1,1,67,"D 65","","",TRUE,"CV","q",650,"cv","D","5","c","c",TRUE,1
"1354","CVOE updated",57,1,1,68,"U 77","","",FALSE,"CV","p",405,"cv","U","7","v","v",TRUE,1
"1355","CVOE updated",57,1,1,69,"E 12","","",TRUE,"CV","p",406,"cv","E","2","v","v",TRUE,1
"1356","CVOE updated",57,1,1,70,"I 60","","",TRUE,"CV","p",374,"cv","I","0","v","v",TRUE,1
"1357","CVOE updated",57,1,1,71,"J 36","","",FALSE,"CV","q",497,"cv","J","6","c","c",TRUE,1
"1358","CVOE updated",57,1,1,72,"H 75","","",TRUE,"CV","q",460,"cv","H","5","c","c",TRUE,1
"1359","CVOE updated",57,1,1,73,"I 50","","",TRUE,"CV","p",343,"cv","I","0","v","v",TRUE,1
"1360","CVOE updated",57,1,1,74,"E 99","","",FALSE,"CV","p",413,"cv","E","9","v","v",TRUE,1
"1361","CVOE updated",57,1,1,75,"A 86","","",TRUE,"CV","p",344,"cv","A","6","v","v",TRUE,1
"1362","CVOE updated",57,1,1,76,"U 48","","",TRUE,"CV","p",309,"cv","U","8","v","v",TRUE,1
"1363","CVOE updated",57,1,1,77,"E 01","","",FALSE,"CV","p",451,"cv","E","1","v","v",TRUE,1
"1364","CVOE updated",57,1,1,78,"A 78","","",TRUE,"CV","p",358,"cv","A","8","v","v",TRUE,1
"1365","CVOE updated",57,1,1,79,"P 60","","",FALSE,"CV","q",454,"cv","P","0","c","c",TRUE,1
"1366","CVOE updated",57,1,1,80,"E 43","","",FALSE,"CV","p",378,"cv","E","3","v","v",TRUE,1
"1367","CVOE updated",57,1,1,81,"D 69","","",TRUE,"CV","q",453,"cv","D","9","c","c",TRUE,1
"1368","CVOE updated",57,1,1,82,"H 11","","",TRUE,"CV","q",368,"cv","H","1","c","c",TRUE,1
"1369","CVOE updated",57,1,1,83,"P 43","","",TRUE,"CV","q",395,"cv","P","3","c","c",TRUE,1
"1370","CVOE updated",57,1,1,84,"O 67","","",FALSE,"CV","p",355,"cv","O","7","v","v",TRUE,1
"1371","CVOE updated",57,1,1,85,"S 91","","",FALSE,"CV","p",323,"cv","S","1","c","v",FALSE,0
"1372","CVOE updated",57,1,1,86,"J 68","","",TRUE,"CV","q",500,"cv","J","8","c","c",TRUE,1
"1373","CVOE updated",57,1,1,87,"S 47","","",FALSE,"CV","q",511,"cv","S","7","c","c",TRUE,1
"1374","CVOE updated",57,1,1,88,"I 81","","",TRUE,"CV","p",364,"cv","I","1","v","v",TRUE,1
"1375","CVOE updated",57,1,1,89,"J 39","","",FALSE,"CV","p",373,"cv","J","9","c","v",FALSE,0
"1376","CVOE updated",57,1,1,90,"A 11","","",TRUE,"CV","p",384,"cv","A","1","v","v",TRUE,1
"1377","CVOE updated",57,1,1,91,"O 76","","",FALSE,"CV","q",349,"cv","O","6","v","c",FALSE,0
"1378","CVOE updated",57,1,1,92,"A 62","","",FALSE,"CV","p",523,"cv","A","2","v","v",TRUE,1
"1379","CVOE updated",57,1,1,93,"O 27","","",TRUE,"CV","p",387,"cv","O","7","v","v",TRUE,1
"1380","CVOE updated",57,1,1,94,"E 66","","",FALSE,"CV","p",361,"cv","E","6","v","v",TRUE,1
"1381","CVOE updated",57,1,1,95,"J 62","","",TRUE,"CV","q",417,"cv","J","2","c","c",TRUE,1
"1382","CVOE updated",57,1,1,96,"H 72","","",TRUE,"CV","q",436,"cv","H","2","c","c",TRUE,1
"1383","CVOE updated",57,1,1,97,"E 49","","",TRUE,"CV","p",373,"cv","E","9","v","v",TRUE,1
"1384","CVOE updated",57,1,1,98,"D 52","","",TRUE,"CV","q",352,"cv","D","2","c","c",TRUE,1
"1385","CVOE updated",57,1,1,99,"H 62","","",TRUE,"CV","q",382,"cv","H","2","c","c",TRUE,1
"1386","CVOE updated",57,1,1,100,"I 11","","",TRUE,"CV","p",483,"cv","I","1","v","v",TRUE,1
"1387","CVOE updated",57,1,1,101,"A 98","","",FALSE,"CV","p",444,"cv","A","8","v","v",TRUE,1
"1388","CVOE updated",57,1,1,102,"H 29","","",FALSE,"CV","q",428,"cv","H","9","c","c",TRUE,1
"1389","CVOE updated",57,1,1,103,"E 83","","",TRUE,"CV","p",386,"cv","E","3","v","v",TRUE,1
"1390","CVOE updated",57,1,1,104,"D 43","","",FALSE,"CV","q",319,"cv","D","3","c","c",TRUE,1
"1391","CVOE updated",57,1,1,105,"P 45","","",TRUE,"CV","q",384,"cv","P","5","c","c",TRUE,1
"1392","CVOE updated",57,1,1,106,"J 17","","",TRUE,"CV","p",349,"cv","J","7","c","v",FALSE,0
"1729","CVOE updated",61,1,1,11,"A 71","","",FALSE,"CV","p",2085,"cv","A","1","v","v",TRUE,1
"1730","CVOE updated",61,1,1,12,"I 66","","",TRUE,"CV","p",702,"cv","I","6","v","v",TRUE,1
"1731","CVOE updated",61,1,1,13,"S 30","","",FALSE,"CV","q",500,"cv","S","0","c","c",TRUE,1
"1732","CVOE updated",61,1,1,14,"D 20","","",FALSE,"CV","q",463,"cv","D","0","c","c",TRUE,1
"1733","CVOE updated",61,1,1,15,"I 31","","",FALSE,"CV","p",444,"cv","I","1","v","v",TRUE,1
"1734","CVOE updated",61,1,1,16,"P 16","","",FALSE,"CV","q",461,"cv","P","6","c","c",TRUE,1
"1735","CVOE updated",61,1,1,17,"A 49","","",FALSE,"CV","p",475,"cv","A","9","v","v",TRUE,1
"1736","CVOE updated",61,1,1,18,"O 64","","",TRUE,"CV","q",475,"cv","O","4","v","c",FALSE,0
"1737","CVOE updated",61,1,1,19,"D 02","","",FALSE,"CV","q",659,"cv","D","2","c","c",TRUE,1
"1738","CVOE updated",61,1,1,20,"P 81","","",TRUE,"CV","q",470,"cv","P","1","c","c",TRUE,1
"1739","CVOE updated",61,1,1,21,"J 58","","",FALSE,"CV","q",372,"cv","J","8","c","c",TRUE,1
"1740","CVOE updated",61,1,1,22,"A 22","","",TRUE,"CV","p",575,"cv","A","2","v","v",TRUE,1
"1741","CVOE updated",61,1,1,23,"J 72","","",FALSE,"CV","q",562,"cv","J","2","c","c",TRUE,1
"1742","CVOE updated",61,1,1,24,"P 91","","",TRUE,"CV","q",763,"cv","P","1","c","c",TRUE,1
"1743","CVOE updated",61,1,1,25,"E 19","","",FALSE,"CV","p",555,"cv","E","9","v","v",TRUE,1
"1744","CVOE updated",61,1,1,26,"I 30","","",TRUE,"CV","p",547,"cv","I","0","v","v",TRUE,1
"1745","CVOE updated",61,1,1,27,"D 91","","",TRUE,"CV","q",505,"cv","D","1","c","c",TRUE,1
"1746","CVOE updated",61,1,1,28,"O 48","","",TRUE,"CV","p",431,"cv","O","8","v","v",TRUE,1
"1747","CVOE updated",61,1,1,29,"A 89","","",FALSE,"CV","p",509,"cv","A","9","v","v",TRUE,1
"1748","CVOE updated",61,1,1,30,"U 11","","",FALSE,"CV","p",522,"cv","U","1","v","v",TRUE,1
"1749","CVOE updated",61,1,1,31,"I 76","","",TRUE,"CV","p",579,"cv","I","6","v","v",TRUE,1
"1750","CVOE updated",61,1,1,32,"U 89","","",FALSE,"CV","p",478,"cv","U","9","v","v",TRUE,1
"1751","CVOE updated",61,1,1,33,"D 63","","",TRUE,"CV","q",622,"cv","D","3","c","c",TRUE,1
"1752","CVOE updated",61,1,1,34,"H 70","","",FALSE,"CV","q",708,"cv","H","0","c","c",TRUE,1
"1753","CVOE updated",61,1,1,35,"D 48","","",FALSE,"CV","q",506,"cv","D","8","c","c",TRUE,1
"1754","CVOE updated",61,1,1,36,"P 56","","",FALSE,"CV","q",440,"cv","P","6","c","c",TRUE,1
"1755","CVOE updated",61,1,1,37,"O 77","","",FALSE,"CV","p",440,"cv","O","7","v","v",TRUE,1
"1756","CVOE updated",61,1,1,38,"P 42","","",FALSE,"CV","q",512,"cv","P","2","c","c",TRUE,1
"1757","CVOE updated",61,1,1,39,"H 22","","",FALSE,"CV","q",478,"cv","H","2","c","c",TRUE,1
"1758","CVOE updated",61,1,1,40,"E 42","","",TRUE,"CV","p",446,"cv","E","2","v","v",TRUE,1
"1759","CVOE updated",61,1,1,41,"J 28","","",FALSE,"CV","q",423,"cv","J","8","c","c",TRUE,1
"1760","CVOE updated",61,1,1,42,"E 95","","",FALSE,"CV","p",436,"cv","E","5","v","v",TRUE,1
"1761","CVOE updated",61,1,1,43,"S 63","","",TRUE,"CV","q",461,"cv","S","3","c","c",TRUE,1
"1762","CVOE updated",61,1,1,44,"H 50","","",FALSE,"CV","q",482,"cv","H","0","c","c",TRUE,1
"1763","CVOE updated",61,1,1,45,"S 33","","",TRUE,"CV","q",403,"cv","S","3","c","c",TRUE,1
"1764","CVOE updated",61,1,1,46,"P 57","","",TRUE,"CV","q",419,"cv","P","7","c","c",TRUE,1
"1765","CVOE updated",61,1,1,47,"E 23","","",FALSE,"CV","p",414,"cv","E","3","v","v",TRUE,1
"1766","CVOE updated",61,1,1,48,"S 61","","",TRUE,"CV","q",441,"cv","S","1","c","c",TRUE,1
"1767","CVOE updated",61,1,1,49,"U 67","","",FALSE,"CV","p",426,"cv","U","7","v","v",TRUE,1
"1768","CVOE updated",61,1,1,50,"H 32","","",FALSE,"CV","q",367,"cv","H","2","c","c",TRUE,1
"1769","CVOE updated",61,1,1,51,"U 50","","",TRUE,"CV","p",418,"cv","U","0","v","v",TRUE,1
"1770","CVOE updated",61,1,1,52,"O 49","","",FALSE,"CV","p",445,"cv","O","9","v","v",TRUE,1
"1771","CVOE updated",61,1,1,53,"U 32","","",TRUE,"CV","p",470,"cv","U","2","v","v",TRUE,1
"1772","CVOE updated",61,1,1,54,"J 78","","",FALSE,"CV","q",443,"cv","J","8","c","c",TRUE,1
"1773","CVOE updated",61,1,1,55,"S 54","","",FALSE,"CV","q",556,"cv","S","4","c","c",TRUE,1
"1774","CVOE updated",61,1,1,56,"J 27","","",TRUE,"CV","q",444,"cv","J","7","c","c",TRUE,1
"1775","CVOE updated",61,1,1,57,"S 06","","",FALSE,"CV","q",349,"cv","S","6","c","c",TRUE,1
"1776","CVOE updated",61,1,1,58,"D 67","","",TRUE,"CV","q",338,"cv","D","7","c","c",TRUE,1
"1777","CVOE updated",61,1,1,59,"A 79","","",FALSE,"CV","q",309,"cv","A","9","v","c",FALSE,0
"1778","CVOE updated",61,1,1,60,"S 52","","",FALSE,"CV","q",643,"cv","S","2","c","c",TRUE,1
"1779","CVOE updated",61,1,1,61,"U 16","","",TRUE,"CV","p",499,"cv","U","6","v","v",TRUE,1
"1780","CVOE updated",61,1,1,62,"O 82","","",TRUE,"CV","p",478,"cv","O","2","v","v",TRUE,1
"1781","CVOE updated",61,1,1,63,"H 87","","",TRUE,"CV","q",639,"cv","H","7","c","c",TRUE,1
"1782","CVOE updated",61,1,1,64,"I 32","","",TRUE,"CV","p",631,"cv","I","2","v","v",TRUE,1
"1783","CVOE updated",61,1,1,65,"U 37","","",FALSE,"CV","p",549,"cv","U","7","v","v",TRUE,1
"1784","CVOE updated",61,1,1,66,"I 42","","",TRUE,"CV","p",539,"cv","I","2","v","v",TRUE,1
"1785","CVOE updated",61,1,1,67,"D 65","","",TRUE,"CV","q",622,"cv","D","5","c","c",TRUE,1
"1786","CVOE updated",61,1,1,68,"U 77","","",FALSE,"CV","p",508,"cv","U","7","v","v",TRUE,1
"1787","CVOE updated",61,1,1,69,"E 12","","",TRUE,"CV","p",545,"cv","E","2","v","v",TRUE,1
"1788","CVOE updated",61,1,1,70,"I 60","","",TRUE,"CV","p",439,"cv","I","0","v","v",TRUE,1
"1789","CVOE updated",61,1,1,71,"J 36","","",FALSE,"CV","q",503,"cv","J","6","c","c",TRUE,1
"1790","CVOE updated",61,1,1,72,"H 75","","",TRUE,"CV","q",517,"cv","H","5","c","c",TRUE,1
"1791","CVOE updated",61,1,1,73,"I 50","","",TRUE,"CV","p",589,"cv","I","0","v","v",TRUE,1
"1792","CVOE updated",61,1,1,74,"E 99","","",FALSE,"CV","p",603,"cv","E","9","v","v",TRUE,1
"1793","CVOE updated",61,1,1,75,"A 86","","",TRUE,"CV","p",588,"cv","A","6","v","v",TRUE,1
"1794","CVOE updated",61,1,1,76,"U 48","","",TRUE,"CV","p",553,"cv","U","8","v","v",TRUE,1
"1795","CVOE updated",61,1,1,77,"E 01","","",FALSE,"CV","p",530,"cv","E","1","v","v",TRUE,1
"1796","CVOE updated",61,1,1,78,"A 78","","",TRUE,"CV","p",533,"cv","A","8","v","v",TRUE,1
"1797","CVOE updated",61,1,1,79,"P 60","","",FALSE,"CV","q",488,"cv","P","0","c","c",TRUE,1
"1798","CVOE updated",61,1,1,80,"E 43","","",FALSE,"CV","p",555,"cv","E","3","v","v",TRUE,1
"1799","CVOE updated",61,1,1,81,"D 69","","",TRUE,"CV","q",467,"cv","D","9","c","c",TRUE,1
"1800","CVOE updated",61,1,1,82,"H 11","","",TRUE,"CV","q",473,"cv","H","1","c","c",TRUE,1
"1801","CVOE updated",61,1,1,83,"P 43","","",TRUE,"CV","q",450,"cv","P","3","c","c",TRUE,1
"1802","CVOE updated",61,1,1,84,"O 67","","",FALSE,"CV","p",461,"cv","O","7","v","v",TRUE,1
"1803","CVOE updated",61,1,1,85,"S 91","","",FALSE,"CV","q",570,"cv","S","1","c","c",TRUE,1
"1804","CVOE updated",61,1,1,86,"J 68","","",TRUE,"CV","q",533,"cv","J","8","c","c",TRUE,1
"1805","CVOE updated",61,1,1,87,"S 47","","",FALSE,"CV","q",504,"cv","S","7","c","c",TRUE,1
"1806","CVOE updated",61,1,1,88,"I 81","","",TRUE,"CV","p",470,"cv","I","1","v","v",TRUE,1
"1807","CVOE updated",61,1,1,89,"J 39","","",FALSE,"CV","q",500,"cv","J","9","c","c",TRUE,1
"1808","CVOE updated",61,1,1,90,"A 11","","",TRUE,"CV","p",479,"cv","A","1","v","v",TRUE,1
"1809","CVOE updated",61,1,1,91,"O 76","","",FALSE,"CV","p",519,"cv","O","6","v","v",TRUE,1
"1810","CVOE updated",61,1,1,92,"A 62","","",FALSE,"CV","p",536,"cv","A","2","v","v",TRUE,1
"1811","CVOE updated",61,1,1,93,"O 27","","",TRUE,"CV","p",563,"cv","O","7","v","v",TRUE,1
"1812","CVOE updated",61,1,1,94,"E 66","","",FALSE,"CV","p",483,"cv","E","6","v","v",TRUE,1
"1813","CVOE updated",61,1,1,95,"J 62","","",TRUE,"CV","q",460,"cv","J","2","c","c",TRUE,1
"1814","CVOE updated",61,1,1,96,"H 72","","",TRUE,"CV","q",727,"cv","H","2","c","c",TRUE,1
"1815","CVOE updated",61,1,1,97,"E 49","","",TRUE,"CV","p",522,"cv","E","9","v","v",TRUE,1
"1816","CVOE updated",61,1,1,98,"D 52","","",TRUE,"CV","q",522,"cv","D","2","c","c",TRUE,1
"1817","CVOE updated",61,1,1,99,"H 62","","",TRUE,"CV","q",483,"cv","H","2","c","c",TRUE,1
"1818","CVOE updated",61,1,1,100,"I 11","","",TRUE,"CV","p",515,"cv","I","1","v","v",TRUE,1
"1819","CVOE updated",61,1,1,101,"A 98","","",FALSE,"CV","p",467,"cv","A","8","v","v",TRUE,1
"1820","CVOE updated",61,1,1,102,"H 29","","",FALSE,"CV","q",529,"cv","H","9","c","c",TRUE,1
"1821","CVOE updated",61,1,1,103,"E 83","","",TRUE,"CV","p",436,"cv","E","3","v","v",TRUE,1
"1822","CVOE updated",61,1,1,104,"D 43","","",FALSE,"CV","q",484,"cv","D","3","c","c",TRUE,1
"1823","CVOE updated",61,1,1,105,"P 45","","",TRUE,"CV","q",477,"cv","P","5","c","c",TRUE,1
"1824","CVOE updated",61,1,1,106,"J 17","","",TRUE,"CV","q",429,"cv","J","7","c","c",TRUE,1
"2161","CVOE updated",65,1,1,11,"A 71","","",FALSE,"CV","p",957,"cv","A","1","v","v",TRUE,1
"2162","CVOE updated",65,1,1,12,"I 66","","",TRUE,"CV","p",918,"cv","I","6","v","v",TRUE,1
"2163","CVOE updated",65,1,1,13,"S 30","","",FALSE,"CV","q",510,"cv","S","0","c","c",TRUE,1
"2164","CVOE updated",65,1,1,14,"D 20","","",FALSE,"CV","q",589,"cv","D","0","c","c",TRUE,1
"2165","CVOE updated",65,1,1,15,"I 31","","",FALSE,"CV","q",530,"cv","I","1","v","c",FALSE,0
"2166","CVOE updated",65,1,1,16,"P 16","","",FALSE,"CV","q",709,"cv","P","6","c","c",TRUE,1
"2167","CVOE updated",65,1,1,17,"A 49","","",FALSE,"CV","p",579,"cv","A","9","v","v",TRUE,1
"2168","CVOE updated",65,1,1,18,"O 64","","",TRUE,"CV","p",590,"cv","O","4","v","v",TRUE,1
"2169","CVOE updated",65,1,1,19,"D 02","","",FALSE,"CV","q",532,"cv","D","2","c","c",TRUE,1
"2170","CVOE updated",65,1,1,20,"P 81","","",TRUE,"CV","q",647,"cv","P","1","c","c",TRUE,1
"2171","CVOE updated",65,1,1,21,"J 58","","",FALSE,"CV","q",586,"cv","J","8","c","c",TRUE,1
"2172","CVOE updated",65,1,1,22,"A 22","","",TRUE,"CV","p",520,"cv","A","2","v","v",TRUE,1
"2173","CVOE updated",65,1,1,23,"J 72","","",FALSE,"CV","q",552,"cv","J","2","c","c",TRUE,1
"2174","CVOE updated",65,1,1,24,"P 91","","",TRUE,"CV","p",502,"cv","P","1","c","v",FALSE,0
"2175","CVOE updated",65,1,1,25,"E 19","","",FALSE,"CV","p",1035,"cv","E","9","v","v",TRUE,1
"2176","CVOE updated",65,1,1,26,"I 30","","",TRUE,"CV","p",668,"cv","I","0","v","v",TRUE,1
"2177","CVOE updated",65,1,1,27,"D 91","","",TRUE,"CV","q",514,"cv","D","1","c","c",TRUE,1
"2178","CVOE updated",65,1,1,28,"O 48","","",TRUE,"CV","p",674,"cv","O","8","v","v",TRUE,1
"2179","CVOE updated",65,1,1,29,"A 89","","",FALSE,"CV","p",611,"cv","A","9","v","v",TRUE,1
"2180","CVOE updated",65,1,1,30,"U 11","","",FALSE,"CV","p",782,"cv","U","1","v","v",TRUE,1
"2181","CVOE updated",65,1,1,31,"I 76","","",TRUE,"CV","p",580,"cv","I","6","v","v",TRUE,1
"2182","CVOE updated",65,1,1,32,"U 89","","",FALSE,"CV","p",639,"cv","U","9","v","v",TRUE,1
"2183","CVOE updated",65,1,1,33,"D 63","","",TRUE,"CV","q",623,"cv","D","3","c","c",TRUE,1
"2184","CVOE updated",65,1,1,34,"H 70","","",FALSE,"CV","q",637,"cv","H","0","c","c",TRUE,1
"2185","CVOE updated",65,1,1,35,"D 48","","",FALSE,"CV","q",725,"cv","D","8","c","c",TRUE,1
"2186","CVOE updated",65,1,1,36,"P 56","","",FALSE,"CV","q",3510,"cv","P","6","c","c",TRUE,1
"2187","CVOE updated",65,1,1,37,"O 77","","",FALSE,"CV","p",717,"cv","O","7","v","v",TRUE,1
"2188","CVOE updated",65,1,1,38,"P 42","","",FALSE,"CV","q",573,"cv","P","2","c","c",TRUE,1
"2189","CVOE updated",65,1,1,39,"H 22","","",FALSE,"CV","q",592,"cv","H","2","c","c",TRUE,1
"2190","CVOE updated",65,1,1,40,"E 42","","",TRUE,"CV","p",598,"cv","E","2","v","v",TRUE,1
"2191","CVOE updated",65,1,1,41,"J 28","","",FALSE,"CV","q",446,"cv","J","8","c","c",TRUE,1
"2192","CVOE updated",65,1,1,42,"E 95","","",FALSE,"CV","p",561,"cv","E","5","v","v",TRUE,1
"2193","CVOE updated",65,1,1,43,"S 63","","",TRUE,"CV","q",482,"cv","S","3","c","c",TRUE,1
"2194","CVOE updated",65,1,1,44,"H 50","","",FALSE,"CV","q",546,"cv","H","0","c","c",TRUE,1
"2195","CVOE updated",65,1,1,45,"S 33","","",TRUE,"CV","q",480,"cv","S","3","c","c",TRUE,1
"2196","CVOE updated",65,1,1,46,"P 57","","",TRUE,"CV","q",584,"cv","P","7","c","c",TRUE,1
"2197","CVOE updated",65,1,1,47,"E 23","","",FALSE,"CV","p",830,"cv","E","3","v","v",TRUE,1
"2198","CVOE updated",65,1,1,48,"S 61","","",TRUE,"CV","q",516,"cv","S","1","c","c",TRUE,1
"2199","CVOE updated",65,1,1,49,"U 67","","",FALSE,"CV","p",532,"cv","U","7","v","v",TRUE,1
"2200","CVOE updated",65,1,1,50,"H 32","","",FALSE,"CV","q",495,"cv","H","2","c","c",TRUE,1
"2201","CVOE updated",65,1,1,51,"U 50","","",TRUE,"CV","p",570,"cv","U","0","v","v",TRUE,1
"2202","CVOE updated",65,1,1,52,"O 49","","",FALSE,"CV","p",526,"cv","O","9","v","v",TRUE,1
"2203","CVOE updated",65,1,1,53,"U 32","","",TRUE,"CV","p",550,"cv","U","2","v","v",TRUE,1
"2204","CVOE updated",65,1,1,54,"J 78","","",FALSE,"CV","q",460,"cv","J","8","c","c",TRUE,1
"2205","CVOE updated",65,1,1,55,"S 54","","",FALSE,"CV","q",473,"cv","S","4","c","c",TRUE,1
"2206","CVOE updated",65,1,1,56,"J 27","","",TRUE,"CV","q",450,"cv","J","7","c","c",TRUE,1
"2207","CVOE updated",65,1,1,57,"S 06","","",FALSE,"CV","q",493,"cv","S","6","c","c",TRUE,1
"2208","CVOE updated",65,1,1,58,"D 67","","",TRUE,"CV","q",536,"cv","D","7","c","c",TRUE,1
"2209","CVOE updated",65,1,1,59,"A 79","","",FALSE,"CV","p",483,"cv","A","9","v","v",TRUE,1
"2210","CVOE updated",65,1,1,60,"S 52","","",FALSE,"CV","q",531,"cv","S","2","c","c",TRUE,1
"2211","CVOE updated",65,1,1,61,"U 16","","",TRUE,"CV","p",518,"cv","U","6","v","v",TRUE,1
"2212","CVOE updated",65,1,1,62,"O 82","","",TRUE,"CV","p",455,"cv","O","2","v","v",TRUE,1
"2213","CVOE updated",65,1,1,63,"H 87","","",TRUE,"CV","q",498,"cv","H","7","c","c",TRUE,1
"2214","CVOE updated",65,1,1,64,"I 32","","",TRUE,"CV","p",565,"cv","I","2","v","v",TRUE,1
"2215","CVOE updated",65,1,1,65,"U 37","","",FALSE,"CV","p",485,"cv","U","7","v","v",TRUE,1
"2216","CVOE updated",65,1,1,66,"I 42","","",TRUE,"CV","p",510,"cv","I","2","v","v",TRUE,1
"2217","CVOE updated",65,1,1,67,"D 65","","",TRUE,"CV","q",491,"cv","D","5","c","c",TRUE,1
"2218","CVOE updated",65,1,1,68,"U 77","","",FALSE,"CV","p",566,"cv","U","7","v","v",TRUE,1
"2219","CVOE updated",65,1,1,69,"E 12","","",TRUE,"CV","p",458,"cv","E","2","v","v",TRUE,1
"2220","CVOE updated",65,1,1,70,"I 60","","",TRUE,"CV","q",421,"cv","I","0","v","c",FALSE,0
"2221","CVOE updated",65,1,1,71,"J 36","","",FALSE,"CV","q",731,"cv","J","6","c","c",TRUE,1
"2222","CVOE updated",65,1,1,72,"H 75","","",TRUE,"CV","q",693,"cv","H","5","c","c",TRUE,1
"2223","CVOE updated",65,1,1,73,"I 50","","",TRUE,"CV","p",529,"cv","I","0","v","v",TRUE,1
"2224","CVOE updated",65,1,1,74,"E 99","","",FALSE,"CV","p",492,"cv","E","9","v","v",TRUE,1
"2225","CVOE updated",65,1,1,75,"A 86","","",TRUE,"CV","p",495,"cv","A","6","v","v",TRUE,1
"2226","CVOE updated",65,1,1,76,"U 48","","",TRUE,"CV","p",466,"cv","U","8","v","v",TRUE,1
"2227","CVOE updated",65,1,1,77,"E 01","","",FALSE,"CV","p",447,"cv","E","1","v","v",TRUE,1
"2228","CVOE updated",65,1,1,78,"A 78","","",TRUE,"CV","p",458,"cv","A","8","v","v",TRUE,1
"2229","CVOE updated",65,1,1,79,"P 60","","",FALSE,"CV","q",646,"cv","P","0","c","c",TRUE,1
"2230","CVOE updated",65,1,1,80,"E 43","","",FALSE,"CV","p",1070,"cv","E","3","v","v",TRUE,1
"2231","CVOE updated",65,1,1,81,"D 69","","",TRUE,"CV","q",660,"cv","D","9","c","c",TRUE,1
"2232","CVOE updated",65,1,1,82,"H 11","","",TRUE,"CV","q",634,"cv","H","1","c","c",TRUE,1
"2233","CVOE updated",65,1,1,83,"P 43","","",TRUE,"CV","q",514,"cv","P","3","c","c",TRUE,1
"2234","CVOE updated",65,1,1,84,"O 67","","",FALSE,"CV","p",539,"cv","O","7","v","v",TRUE,1
"2235","CVOE updated",65,1,1,85,"S 91","","",FALSE,"CV","q",534,"cv","S","1","c","c",TRUE,1
"2236","CVOE updated",65,1,1,86,"J 68","","",TRUE,"CV","q",529,"cv","J","8","c","c",TRUE,1
"2237","CVOE updated",65,1,1,87,"S 47","","",FALSE,"CV","q",444,"cv","S","7","c","c",TRUE,1
"2238","CVOE updated",65,1,1,88,"I 81","","",TRUE,"CV","p",740,"cv","I","1","v","v",TRUE,1
"2239","CVOE updated",65,1,1,89,"J 39","","",FALSE,"CV","q",506,"cv","J","9","c","c",TRUE,1
"2240","CVOE updated",65,1,1,90,"A 11","","",TRUE,"CV","p",512,"cv","A","1","v","v",TRUE,1
"2241","CVOE updated",65,1,1,91,"O 76","","",FALSE,"CV","p",485,"cv","O","6","v","v",TRUE,1
"2242","CVOE updated",65,1,1,92,"A 62","","",FALSE,"CV","p",470,"cv","A","2","v","v",TRUE,1
"2243","CVOE updated",65,1,1,93,"O 27","","",TRUE,"CV","p",563,"cv","O","7","v","v",TRUE,1
"2244","CVOE updated",65,1,1,94,"E 66","","",FALSE,"CV","p",572,"cv","E","6","v","v",TRUE,1
"2245","CVOE updated",65,1,1,95,"J 62","","",TRUE,"CV","q",639,"cv","J","2","c","c",TRUE,1
"2246","CVOE updated",65,1,1,96,"H 72","","",TRUE,"CV","q",663,"cv","H","2","c","c",TRUE,1
"2247","CVOE updated",65,1,1,97,"E 49","","",TRUE,"CV","p",477,"cv","E","9","v","v",TRUE,1
"2248","CVOE updated",65,1,1,98,"D 52","","",TRUE,"CV","q",574,"cv","D","2","c","c",TRUE,1
"2249","CVOE updated",65,1,1,99,"H 62","","",TRUE,"CV","q",561,"cv","H","2","c","c",TRUE,1
"2250","CVOE updated",65,1,1,100,"I 11","","",TRUE,"CV","p",457,"cv","I","1","v","v",TRUE,1
"2251","CVOE updated",65,1,1,101,"A 98","","",FALSE,"CV","p",476,"cv","A","8","v","v",TRUE,1
"2252","CVOE updated",65,1,1,102,"H 29","","",FALSE,"CV","q",501,"cv","H","9","c","c",TRUE,1
"2253","CVOE updated",65,1,1,103,"E 83","","",TRUE,"CV","p",514,"cv","E","3","v","v",TRUE,1
"2254","CVOE updated",65,1,1,104,"D 43","","",FALSE,"CV","q",483,"cv","D","3","c","c",TRUE,1
"2255","CVOE updated",65,1,1,105,"P 45","","",TRUE,"CV","q",579,"cv","P","5","c","c",TRUE,1
"2256","CVOE updated",65,1,1,106,"J 17","","",TRUE,"CV","q",486,"cv","J","7","c","c",TRUE,1
"2689","CVOE_B",46,1,2,11,"A 71","","",FALSE,"CV","p",1250,"cv","A","1","v","v",TRUE,1
"2690","CVOE_B",46,1,2,12,"I 66","","",TRUE,"CV","q",773,"cv","I","6","v","c",FALSE,0
"2691","CVOE_B",46,1,2,13,"S 30","","",FALSE,"CV","q",608,"cv","S","0","c","c",TRUE,1
"2692","CVOE_B",46,1,2,14,"D 20","","",FALSE,"CV","q",675,"cv","D","0","c","c",TRUE,1
"2693","CVOE_B",46,1,2,15,"I 31","","",FALSE,"CV","p",588,"cv","I","1","v","v",TRUE,1
"2694","CVOE_B",46,1,2,16,"P 16","","",FALSE,"CV","q",650,"cv","P","6","c","c",TRUE,1
"2695","CVOE_B",46,1,2,17,"A 49","","",FALSE,"CV","p",533,"cv","A","9","v","v",TRUE,1
"2696","CVOE_B",46,1,2,18,"O 64","","",TRUE,"CV","p",512,"cv","O","4","v","v",TRUE,1
"2697","CVOE_B",46,1,2,19,"D 02","","",FALSE,"CV","q",838,"cv","D","2","c","c",TRUE,1
"2698","CVOE_B",46,1,2,20,"P 81","","",TRUE,"CV","q",806,"cv","P","1","c","c",TRUE,1
"2699","CVOE_B",46,1,2,21,"J 58","","",FALSE,"CV","q",399,"cv","J","8","c","c",TRUE,1
"2700","CVOE_B",46,1,2,22,"A 22","","",TRUE,"CV","p",567,"cv","A","2","v","v",TRUE,1
"2701","CVOE_B",46,1,2,23,"J 72","","",FALSE,"CV","q",695,"cv","J","2","c","c",TRUE,1
"2702","CVOE_B",46,1,2,24,"P 91","","",TRUE,"CV","q",530,"cv","P","1","c","c",TRUE,1
"2703","CVOE_B",46,1,2,25,"E 19","","",FALSE,"CV","q",406,"cv","E","9","v","c",FALSE,0
"2704","CVOE_B",46,1,2,26,"I 30","","",TRUE,"CV","p",590,"cv","I","0","v","v",TRUE,1
"2705","CVOE_B",46,1,2,27,"D 91","","",TRUE,"CV","q",620,"cv","D","1","c","c",TRUE,1
"2706","CVOE_B",46,1,2,28,"O 48","","",TRUE,"CV","p",543,"cv","O","8","v","v",TRUE,1
"2707","CVOE_B",46,1,2,29,"A 89","","",FALSE,"CV","p",428,"cv","A","9","v","v",TRUE,1
"2708","CVOE_B",46,1,2,30,"U 11","","",FALSE,"CV","p",610,"cv","U","1","v","v",TRUE,1
"2709","CVOE_B",46,1,2,31,"I 76","","",TRUE,"CV","p",429,"cv","I","6","v","v",TRUE,1
"2710","CVOE_B",46,1,2,32,"U 89","","",FALSE,"CV","p",579,"cv","U","9","v","v",TRUE,1
"2711","CVOE_B",46,1,2,33,"D 63","","",TRUE,"CV","q",614,"cv","D","3","c","c",TRUE,1
"2712","CVOE_B",46,1,2,34,"H 70","","",FALSE,"CV","q",465,"cv","H","0","c","c",TRUE,1
"2713","CVOE_B",46,1,2,35,"D 48","","",FALSE,"CV","q",383,"cv","D","8","c","c",TRUE,1
"2714","CVOE_B",46,1,2,36,"P 56","","",FALSE,"CV","q",557,"cv","P","6","c","c",TRUE,1
"2715","CVOE_B",46,1,2,37,"O 77","","",FALSE,"CV","p",525,"cv","O","7","v","v",TRUE,1
"2716","CVOE_B",46,1,2,38,"P 42","","",FALSE,"CV","q",733,"cv","P","2","c","c",TRUE,1
"2717","CVOE_B",46,1,2,39,"H 22","","",FALSE,"CV","q",616,"cv","H","2","c","c",TRUE,1
"2718","CVOE_B",46,1,2,40,"E 42","","",TRUE,"CV","p",764,"cv","E","2","v","v",TRUE,1
"2719","CVOE_B",46,1,2,41,"J 28","","",FALSE,"CV","q",516,"cv","J","8","c","c",TRUE,1
"2720","CVOE_B",46,1,2,42,"E 95","","",FALSE,"CV","p",564,"cv","E","5","v","v",TRUE,1
"2721","CVOE_B",46,1,2,43,"S 63","","",TRUE,"CV","q",397,"cv","S","3","c","c",TRUE,1
"2722","CVOE_B",46,1,2,44,"H 50","","",FALSE,"CV","q",453,"cv","H","0","c","c",TRUE,1
"2723","CVOE_B",46,1,2,45,"S 33","","",TRUE,"CV","q",448,"cv","S","3","c","c",TRUE,1
"2724","CVOE_B",46,1,2,46,"P 57","","",TRUE,"CV","q",355,"cv","P","7","c","c",TRUE,1
"2725","CVOE_B",46,1,2,47,"E 23","","",FALSE,"CV","p",484,"cv","E","3","v","v",TRUE,1
"2726","CVOE_B",46,1,2,48,"S 61","","",TRUE,"CV","q",540,"cv","S","1","c","c",TRUE,1
"2727","CVOE_B",46,1,2,49,"U 67","","",FALSE,"CV","p",495,"cv","U","7","v","v",TRUE,1
"2728","CVOE_B",46,1,2,50,"H 32","","",FALSE,"CV","q",410,"cv","H","2","c","c",TRUE,1
"2729","CVOE_B",46,1,2,51,"U 50","","",TRUE,"CV","p",653,"cv","U","0","v","v",TRUE,1
"2730","CVOE_B",46,1,2,52,"O 49","","",FALSE,"CV","p",576,"cv","O","9","v","v",TRUE,1
"2731","CVOE_B",46,1,2,53,"U 32","","",TRUE,"CV","p",499,"cv","U","2","v","v",TRUE,1
"2732","CVOE_B",46,1,2,54,"J 78","","",FALSE,"CV","q",374,"cv","J","8","c","c",TRUE,1
"2733","CVOE_B",46,1,2,55,"S 54","","",FALSE,"CV","p",689,"cv","S","4","c","v",FALSE,0
"2734","CVOE_B",46,1,2,56,"J 27","","",TRUE,"CV","q",461,"cv","J","7","c","c",TRUE,1
"2735","CVOE_B",46,1,2,57,"S 06","","",FALSE,"CV","q",560,"cv","S","6","c","c",TRUE,1
"2736","CVOE_B",46,1,2,58,"D 67","","",TRUE,"CV","q",480,"cv","D","7","c","c",TRUE,1
"2737","CVOE_B",46,1,2,59,"A 79","","",FALSE,"CV","p",512,"cv","A","9","v","v",TRUE,1
"2738","CVOE_B",46,1,2,60,"S 52","","",FALSE,"CV","q",486,"cv","S","2","c","c",TRUE,1
"2739","CVOE_B",46,1,2,61,"U 16","","",TRUE,"CV","p",518,"cv","U","6","v","v",TRUE,1
"2740","CVOE_B",46,1,2,62,"O 82","","",TRUE,"CV","p",519,"cv","O","2","v","v",TRUE,1
"2741","CVOE_B",46,1,2,63,"H 87","","",TRUE,"CV","q",599,"cv","H","7","c","c",TRUE,1
"2742","CVOE_B",46,1,2,64,"I 32","","",TRUE,"CV","p",2136,"cv","I","2","v","v",TRUE,1
"2743","CVOE_B",46,1,2,65,"U 37","","",FALSE,"CV","p",763,"cv","U","7","v","v",TRUE,1
"2744","CVOE_B",46,1,2,66,"I 42","","",TRUE,"CV","p",828,"cv","I","2","v","v",TRUE,1
"2745","CVOE_B",46,1,2,67,"D 65","","",TRUE,"CV","q",1754,"cv","D","5","c","c",TRUE,1
"2746","CVOE_B",46,1,2,68,"U 77","","",FALSE,"CV","p",1651,"cv","U","7","v","v",TRUE,1
"2747","CVOE_B",46,1,2,69,"E 12","","",TRUE,"CV","p",614,"cv","E","2","v","v",TRUE,1
"2748","CVOE_B",46,1,2,70,"I 60","","",TRUE,"CV","p",497,"cv","I","0","v","v",TRUE,1
"2749","CVOE_B",46,1,2,71,"J 36","","",FALSE,"CV","q",508,"cv","J","6","c","c",TRUE,1
"2750","CVOE_B",46,1,2,72,"H 75","","",TRUE,"CV","q",1298,"cv","H","5","c","c",TRUE,1
"2751","CVOE_B",46,1,2,73,"I 50","","",TRUE,"CV","p",3509,"cv","I","0","v","v",TRUE,1
"2752","CVOE_B",46,1,2,74,"E 99","","",FALSE,"CV","p",2236,"cv","E","9","v","v",TRUE,1
"2753","CVOE_B",46,1,2,75,"A 86","","",TRUE,"CV","p",613,"cv","A","6","v","v",TRUE,1
"2754","CVOE_B",46,1,2,76,"U 48","","",TRUE,"CV","p",432,"cv","U","8","v","v",TRUE,1
"2755","CVOE_B",46,1,2,77,"E 01","","",FALSE,"CV","p",1302,"cv","E","1","v","v",TRUE,1
"2756","CVOE_B",46,1,2,78,"A 78","","",TRUE,"CV","p",460,"cv","A","8","v","v",TRUE,1
"2757","CVOE_B",46,1,2,79,"P 60","","",FALSE,"CV","q",519,"cv","P","0","c","c",TRUE,1
"2758","CVOE_B",46,1,2,80,"E 43","","",FALSE,"CV","p",567,"cv","E","3","v","v",TRUE,1
"2759","CVOE_B",46,1,2,81,"D 69","","",TRUE,"CV","q",475,"cv","D","9","c","c",TRUE,1
"2760","CVOE_B",46,1,2,82,"H 11","","",TRUE,"CV","q",467,"cv","H","1","c","c",TRUE,1
"2761","CVOE_B",46,1,2,83,"P 43","","",TRUE,"CV","q",353,"cv","P","3","c","c",TRUE,1
"2762","CVOE_B",46,1,2,84,"O 67","","",FALSE,"CV","p",470,"cv","O","7","v","v",TRUE,1
"2763","CVOE_B",46,1,2,85,"S 91","","",FALSE,"CV","q",596,"cv","S","1","c","c",TRUE,1
"2764","CVOE_B",46,1,2,86,"J 68","","",TRUE,"CV","q",500,"cv","J","8","c","c",TRUE,1
"2765","CVOE_B",46,1,2,87,"S 47","","",FALSE,"CV","q",770,"cv","S","7","c","c",TRUE,1
"2766","CVOE_B",46,1,2,88,"I 81","","",TRUE,"CV","p",477,"cv","I","1","v","v",TRUE,1
"2767","CVOE_B",46,1,2,89,"J 39","","",FALSE,"CV","q",550,"cv","J","9","c","c",TRUE,1
"2768","CVOE_B",46,1,2,90,"A 11","","",TRUE,"CV","p",971,"cv","A","1","v","v",TRUE,1
"2769","CVOE_B",46,1,2,91,"O 76","","",FALSE,"CV","p",943,"cv","O","6","v","v",TRUE,1
"2770","CVOE_B",46,1,2,92,"A 62","","",FALSE,"CV","p",413,"cv","A","2","v","v",TRUE,1
"2771","CVOE_B",46,1,2,93,"O 27","","",TRUE,"CV","p",416,"cv","O","7","v","v",TRUE,1
"2772","CVOE_B",46,1,2,94,"E 66","","",FALSE,"CV","p",371,"cv","E","6","v","v",TRUE,1
"2773","CVOE_B",46,1,2,95,"J 62","","",TRUE,"CV","q",430,"cv","J","2","c","c",TRUE,1
"2774","CVOE_B",46,1,2,96,"H 72","","",TRUE,"CV","q",355,"cv","H","2","c","c",TRUE,1
"2775","CVOE_B",46,1,2,97,"E 49","","",TRUE,"CV","p",460,"cv","E","9","v","v",TRUE,1
"2776","CVOE_B",46,1,2,98,"D 52","","",TRUE,"CV","q",359,"cv","D","2","c","c",TRUE,1
"2777","CVOE_B",46,1,2,99,"H 62","","",TRUE,"CV","q",439,"cv","H","2","c","c",TRUE,1
"2778","CVOE_B",46,1,2,100,"I 11","","",TRUE,"CV","q",335,"cv","I","1","v","c",FALSE,0
"2779","CVOE_B",46,1,2,101,"A 98","","",FALSE,"CV","p",426,"cv","A","8","v","v",TRUE,1
"2780","CVOE_B",46,1,2,102,"H 29","","",FALSE,"CV","q",632,"cv","H","9","c","c",TRUE,1
"2781","CVOE_B",46,1,2,103,"E 83","","",TRUE,"CV","p",550,"cv","E","3","v","v",TRUE,1
"2782","CVOE_B",46,1,2,104,"D 43","","",FALSE,"CV","q",388,"cv","D","3","c","c",TRUE,1
"2783","CVOE_B",46,1,2,105,"P 45","","",TRUE,"CV","q",417,"cv","P","5","c","c",TRUE,1
"2784","CVOE_B",46,1,2,106,"J 17","","",TRUE,"CV","q",388,"cv","J","7","c","c",TRUE,1
"3121","CVOE_B",50,1,2,11,"A 71","","",FALSE,"CV","p",1700,"cv","A","1","v","v",TRUE,1
"3122","CVOE_B",50,1,2,12,"I 66","","",TRUE,"CV","p",661,"cv","I","6","v","v",TRUE,1
"3123","CVOE_B",50,1,2,13,"S 30","","",FALSE,"CV","q",430,"cv","S","0","c","c",TRUE,1
"3124","CVOE_B",50,1,2,14,"D 20","","",FALSE,"CV","q",602,"cv","D","0","c","c",TRUE,1
"3125","CVOE_B",50,1,2,15,"I 31","","",FALSE,"CV","p",350,"cv","I","1","v","v",TRUE,1
"3126","CVOE_B",50,1,2,16,"P 16","","",FALSE,"CV","q",390,"cv","P","6","c","c",TRUE,1
"3127","CVOE_B",50,1,2,17,"A 49","","",FALSE,"CV","p",354,"cv","A","9","v","v",TRUE,1
"3128","CVOE_B",50,1,2,18,"O 64","","",TRUE,"CV","p",429,"cv","O","4","v","v",TRUE,1
"3129","CVOE_B",50,1,2,19,"D 02","","",FALSE,"CV","q",414,"cv","D","2","c","c",TRUE,1
"3130","CVOE_B",50,1,2,20,"P 81","","",TRUE,"CV","q",316,"cv","P","1","c","c",TRUE,1
"3131","CVOE_B",50,1,2,21,"J 58","","",FALSE,"CV","q",465,"cv","J","8","c","c",TRUE,1
"3132","CVOE_B",50,1,2,22,"A 22","","",TRUE,"CV","p",311,"cv","A","2","v","v",TRUE,1
"3133","CVOE_B",50,1,2,23,"J 72","","",FALSE,"CV","q",321,"cv","J","2","c","c",TRUE,1
"3134","CVOE_B",50,1,2,24,"P 91","","",TRUE,"CV","q",331,"cv","P","1","c","c",TRUE,1
"3135","CVOE_B",50,1,2,25,"E 19","","",FALSE,"CV","p",361,"cv","E","9","v","v",TRUE,1
"3136","CVOE_B",50,1,2,26,"I 30","","",TRUE,"CV","p",432,"cv","I","0","v","v",TRUE,1
"3137","CVOE_B",50,1,2,27,"D 91","","",TRUE,"CV","q",394,"cv","D","1","c","c",TRUE,1
"3138","CVOE_B",50,1,2,28,"O 48","","",TRUE,"CV","p",546,"cv","O","8","v","v",TRUE,1
"3139","CVOE_B",50,1,2,29,"A 89","","",FALSE,"CV","q",471,"cv","A","9","v","c",FALSE,0
"3140","CVOE_B",50,1,2,30,"U 11","","",FALSE,"CV","p",1064,"cv","U","1","v","v",TRUE,1
"3141","CVOE_B",50,1,2,31,"I 76","","",TRUE,"CV","p",420,"cv","I","6","v","v",TRUE,1
"3142","CVOE_B",50,1,2,32,"U 89","","",FALSE,"CV","p",524,"cv","U","9","v","v",TRUE,1
"3143","CVOE_B",50,1,2,33,"D 63","","",TRUE,"CV","q",513,"cv","D","3","c","c",TRUE,1
"3144","CVOE_B",50,1,2,34,"H 70","","",FALSE,"CV","q",417,"cv","H","0","c","c",TRUE,1
"3145","CVOE_B",50,1,2,35,"D 48","","",FALSE,"CV","q",476,"cv","D","8","c","c",TRUE,1
"3146","CVOE_B",50,1,2,36,"P 56","","",FALSE,"CV","q",391,"cv","P","6","c","c",TRUE,1
"3147","CVOE_B",50,1,2,37,"O 77","","",FALSE,"CV","p",381,"cv","O","7","v","v",TRUE,1
"3148","CVOE_B",50,1,2,38,"P 42","","",FALSE,"CV","q",594,"cv","P","2","c","c",TRUE,1
"3149","CVOE_B",50,1,2,39,"H 22","","",FALSE,"CV","q",385,"cv","H","2","c","c",TRUE,1
"3150","CVOE_B",50,1,2,40,"E 42","","",TRUE,"CV","p",430,"cv","E","2","v","v",TRUE,1
"3151","CVOE_B",50,1,2,41,"J 28","","",FALSE,"CV","q",847,"cv","J","8","c","c",TRUE,1
"3152","CVOE_B",50,1,2,42,"E 95","","",FALSE,"CV","p",548,"cv","E","5","v","v",TRUE,1
"3153","CVOE_B",50,1,2,43,"S 63","","",TRUE,"CV","q",723,"cv","S","3","c","c",TRUE,1
"3154","CVOE_B",50,1,2,44,"H 50","","",FALSE,"CV","q",358,"cv","H","0","c","c",TRUE,1
"3155","CVOE_B",50,1,2,45,"S 33","","",TRUE,"CV","q",351,"cv","S","3","c","c",TRUE,1
"3156","CVOE_B",50,1,2,46,"P 57","","",TRUE,"CV","q",407,"cv","P","7","c","c",TRUE,1
"3157","CVOE_B",50,1,2,47,"E 23","","",FALSE,"CV","p",445,"cv","E","3","v","v",TRUE,1
"3158","CVOE_B",50,1,2,48,"S 61","","",TRUE,"CV","q",344,"cv","S","1","c","c",TRUE,1
"3159","CVOE_B",50,1,2,49,"U 67","","",FALSE,"CV","p",483,"cv","U","7","v","v",TRUE,1
"3160","CVOE_B",50,1,2,50,"H 32","","",FALSE,"CV","q",339,"cv","H","2","c","c",TRUE,1
"3161","CVOE_B",50,1,2,51,"U 50","","",TRUE,"CV","p",604,"cv","U","0","v","v",TRUE,1
"3162","CVOE_B",50,1,2,52,"O 49","","",FALSE,"CV","q",271,"cv","O","9","v","c",FALSE,0
"3163","CVOE_B",50,1,2,53,"U 32","","",TRUE,"CV","p",789,"cv","U","2","v","v",TRUE,1
"3164","CVOE_B",50,1,2,54,"J 78","","",FALSE,"CV","q",417,"cv","J","8","c","c",TRUE,1
"3165","CVOE_B",50,1,2,55,"S 54","","",FALSE,"CV","q",402,"cv","S","4","c","c",TRUE,1
"3166","CVOE_B",50,1,2,56,"J 27","","",TRUE,"CV","q",316,"cv","J","7","c","c",TRUE,1
"3167","CVOE_B",50,1,2,57,"S 06","","",FALSE,"CV","q",353,"cv","S","6","c","c",TRUE,1
"3168","CVOE_B",50,1,2,58,"D 67","","",TRUE,"CV","q",359,"cv","D","7","c","c",TRUE,1
"3169","CVOE_B",50,1,2,59,"A 79","","",FALSE,"CV","p",372,"cv","A","9","v","v",TRUE,1
"3170","CVOE_B",50,1,2,60,"S 52","","",FALSE,"CV","q",351,"cv","S","2","c","c",TRUE,1
"3171","CVOE_B",50,1,2,61,"U 16","","",TRUE,"CV","p",455,"cv","U","6","v","v",TRUE,1
"3172","CVOE_B",50,1,2,62,"O 82","","",TRUE,"CV","p",470,"cv","O","2","v","v",TRUE,1
"3173","CVOE_B",50,1,2,63,"H 87","","",TRUE,"CV","q",474,"cv","H","7","c","c",TRUE,1
"3174","CVOE_B",50,1,2,64,"I 32","","",TRUE,"CV","p",367,"cv","I","2","v","v",TRUE,1
"3175","CVOE_B",50,1,2,65,"U 37","","",FALSE,"CV","p",366,"cv","U","7","v","v",TRUE,1
"3176","CVOE_B",50,1,2,66,"I 42","","",TRUE,"CV","p",313,"cv","I","2","v","v",TRUE,1
"3177","CVOE_B",50,1,2,67,"D 65","","",TRUE,"CV","q",559,"cv","D","5","c","c",TRUE,1
"3178","CVOE_B",50,1,2,68,"U 77","","",FALSE,"CV","p",511,"cv","U","7","v","v",TRUE,1
"3179","CVOE_B",50,1,2,69,"E 12","","",TRUE,"CV","p",559,"cv","E","2","v","v",TRUE,1
"3180","CVOE_B",50,1,2,70,"I 60","","",TRUE,"CV","p",677,"cv","I","0","v","v",TRUE,1
"3181","CVOE_B",50,1,2,71,"J 36","","",FALSE,"CV","q",533,"cv","J","6","c","c",TRUE,1
"3182","CVOE_B",50,1,2,72,"H 75","","",TRUE,"CV","q",550,"cv","H","5","c","c",TRUE,1
"3183","CVOE_B",50,1,2,73,"I 50","","",TRUE,"CV","p",389,"cv","I","0","v","v",TRUE,1
"3184","CVOE_B",50,1,2,74,"E 99","","",FALSE,"CV","p",297,"cv","E","9","v","v",TRUE,1
"3185","CVOE_B",50,1,2,75,"A 86","","",TRUE,"CV","p",260,"cv","A","6","v","v",TRUE,1
"3186","CVOE_B",50,1,2,76,"U 48","","",TRUE,"CV","p",388,"cv","U","8","v","v",TRUE,1
"3187","CVOE_B",50,1,2,77,"E 01","","",FALSE,"CV","p",365,"cv","E","1","v","v",TRUE,1
"3188","CVOE_B",50,1,2,78,"A 78","","",TRUE,"CV","p",295,"cv","A","8","v","v",TRUE,1
"3189","CVOE_B",50,1,2,79,"P 60","","",FALSE,"CV","q",397,"cv","P","0","c","c",TRUE,1
"3190","CVOE_B",50,1,2,80,"E 43","","",FALSE,"CV","p",366,"cv","E","3","v","v",TRUE,1
"3191","CVOE_B",50,1,2,81,"D 69","","",TRUE,"CV","q",443,"cv","D","9","c","c",TRUE,1
"3192","CVOE_B",50,1,2,82,"H 11","","",TRUE,"CV","q",392,"cv","H","1","c","c",TRUE,1
"3193","CVOE_B",50,1,2,83,"P 43","","",TRUE,"CV","q",367,"cv","P","3","c","c",TRUE,1
"3194","CVOE_B",50,1,2,84,"O 67","","",FALSE,"CV","p",432,"cv","O","7","v","v",TRUE,1
"3195","CVOE_B",50,1,2,85,"S 91","","",FALSE,"CV","q",405,"cv","S","1","c","c",TRUE,1
"3196","CVOE_B",50,1,2,86,"J 68","","",TRUE,"CV","q",386,"cv","J","8","c","c",TRUE,1
"3197","CVOE_B",50,1,2,87,"S 47","","",FALSE,"CV","q",589,"cv","S","7","c","c",TRUE,1
"3198","CVOE_B",50,1,2,88,"I 81","","",TRUE,"CV","p",515,"cv","I","1","v","v",TRUE,1
"3199","CVOE_B",50,1,2,89,"J 39","","",FALSE,"CV","q",387,"cv","J","9","c","c",TRUE,1
"3200","CVOE_B",50,1,2,90,"A 11","","",TRUE,"CV","p",684,"cv","A","1","v","v",TRUE,1
"3201","CVOE_B",50,1,2,91,"O 76","","",FALSE,"CV","p",390,"cv","O","6","v","v",TRUE,1
"3202","CVOE_B",50,1,2,92,"A 62","","",FALSE,"CV","p",578,"cv","A","2","v","v",TRUE,1
"3203","CVOE_B",50,1,2,93,"O 27","","",TRUE,"CV","p",710,"cv","O","7","v","v",TRUE,1
"3204","CVOE_B",50,1,2,94,"E 66","","",FALSE,"CV","p",603,"cv","E","6","v","v",TRUE,1
"3205","CVOE_B",50,1,2,95,"J 62","","",TRUE,"CV","q",410,"cv","J","2","c","c",TRUE,1
"3206","CVOE_B",50,1,2,96,"H 72","","",TRUE,"CV","q",443,"cv","H","2","c","c",TRUE,1
"3207","CVOE_B",50,1,2,97,"E 49","","",TRUE,"CV","p",428,"cv","E","9","v","v",TRUE,1
"3208","CVOE_B",50,1,2,98,"D 52","","",TRUE,"CV","q",595,"cv","D","2","c","c",TRUE,1
"3209","CVOE_B",50,1,2,99,"H 62","","",TRUE,"CV","q",384,"cv","H","2","c","c",TRUE,1
"3210","CVOE_B",50,1,2,100,"I 11","","",TRUE,"CV","p",463,"cv","I","1","v","v",TRUE,1
"3211","CVOE_B",50,1,2,101,"A 98","","",FALSE,"CV","p",411,"cv","A","8","v","v",TRUE,1
"3212","CVOE_B",50,1,2,102,"H 29","","",FALSE,"CV","q",531,"cv","H","9","c","c",TRUE,1
"3213","CVOE_B",50,1,2,103,"E 83","","",TRUE,"CV","p",424,"cv","E","3","v","v",TRUE,1
"3214","CVOE_B",50,1,2,104,"D 43","","",FALSE,"CV","q",445,"cv","D","3","c","c",TRUE,1
"3215","CVOE_B",50,1,2,105,"P 45","","",TRUE,"CV","q",427,"cv","P","5","c","c",TRUE,1
"3216","CVOE_B",50,1,2,106,"J 17","","",TRUE,"CV","q",359,"cv","J","7","c","c",TRUE,1
"3553","CVOE_B",54,1,2,11,"A 71","","",FALSE,"CV","p",599,"cv","A","1","v","v",TRUE,1
"3554","CVOE_B",54,1,2,12,"I 66","","",TRUE,"CV","p",585,"cv","I","6","v","v",TRUE,1
"3555","CVOE_B",54,1,2,13,"S 30","","",FALSE,"CV","q",504,"cv","S","0","c","c",TRUE,1
"3556","CVOE_B",54,1,2,14,"D 20","","",FALSE,"CV","q",639,"cv","D","0","c","c",TRUE,1
"3557","CVOE_B",54,1,2,15,"I 31","","",FALSE,"CV","p",454,"cv","I","1","v","v",TRUE,1
"3558","CVOE_B",54,1,2,16,"P 16","","",FALSE,"CV","q",522,"cv","P","6","c","c",TRUE,1
"3559","CVOE_B",54,1,2,17,"A 49","","",FALSE,"CV","p",446,"cv","A","9","v","v",TRUE,1
"3560","CVOE_B",54,1,2,18,"O 64","","",TRUE,"CV","p",375,"cv","O","4","v","v",TRUE,1
"3561","CVOE_B",54,1,2,19,"D 02","","",FALSE,"CV","p",387,"cv","D","2","c","v",FALSE,0
"3562","CVOE_B",54,1,2,20,"P 81","","",TRUE,"CV","q",579,"cv","P","1","c","c",TRUE,1
"3563","CVOE_B",54,1,2,21,"J 58","","",FALSE,"CV","q",2024,"cv","J","8","c","c",TRUE,1
"3564","CVOE_B",54,1,2,22,"A 22","","",TRUE,"CV","p",515,"cv","A","2","v","v",TRUE,1
"3565","CVOE_B",54,1,2,23,"J 72","","",FALSE,"CV","q",743,"cv","J","2","c","c",TRUE,1
"3566","CVOE_B",54,1,2,24,"P 91","","",TRUE,"CV","q",576,"cv","P","1","c","c",TRUE,1
"3567","CVOE_B",54,1,2,25,"E 19","","",FALSE,"CV","p",459,"cv","E","9","v","v",TRUE,1
"3568","CVOE_B",54,1,2,26,"I 30","","",TRUE,"CV","p",679,"cv","I","0","v","v",TRUE,1
"3569","CVOE_B",54,1,2,27,"D 91","","",TRUE,"CV","q",515,"cv","D","1","c","c",TRUE,1
"3570","CVOE_B",54,1,2,28,"O 48","","",TRUE,"CV","p",460,"cv","O","8","v","v",TRUE,1
"3571","CVOE_B",54,1,2,29,"A 89","","",FALSE,"CV","q",411,"cv","A","9","v","c",FALSE,0
"3572","CVOE_B",54,1,2,30,"U 11","","",FALSE,"CV","p",829,"cv","U","1","v","v",TRUE,1
"3573","CVOE_B",54,1,2,31,"I 76","","",TRUE,"CV","p",777,"cv","I","6","v","v",TRUE,1
"3574","CVOE_B",54,1,2,32,"U 89","","",FALSE,"CV","p",376,"cv","U","9","v","v",TRUE,1
"3575","CVOE_B",54,1,2,33,"D 63","","",TRUE,"CV","q",561,"cv","D","3","c","c",TRUE,1
"3576","CVOE_B",54,1,2,34,"H 70","","",FALSE,"CV","p",491,"cv","H","0","c","v",FALSE,0
"3577","CVOE_B",54,1,2,35,"D 48","","",FALSE,"CV","q",614,"cv","D","8","c","c",TRUE,1
"3578","CVOE_B",54,1,2,36,"P 56","","",FALSE,"CV","q",843,"cv","P","6","c","c",TRUE,1
"3579","CVOE_B",54,1,2,37,"O 77","","",FALSE,"CV","p",469,"cv","O","7","v","v",TRUE,1
"3580","CVOE_B",54,1,2,38,"P 42","","",FALSE,"CV","q",551,"cv","P","2","c","c",TRUE,1
"3581","CVOE_B",54,1,2,39,"H 22","","",FALSE,"CV","q",741,"cv","H","2","c","c",TRUE,1
"3582","CVOE_B",54,1,2,40,"E 42","","",TRUE,"CV","p",630,"cv","E","2","v","v",TRUE,1
"3583","CVOE_B",54,1,2,41,"J 28","","",FALSE,"CV","q",389,"cv","J","8","c","c",TRUE,1
"3584","CVOE_B",54,1,2,42,"E 95","","",FALSE,"CV","p",452,"cv","E","5","v","v",TRUE,1
"3585","CVOE_B",54,1,2,43,"S 63","","",TRUE,"CV","q",508,"cv","S","3","c","c",TRUE,1
"3586","CVOE_B",54,1,2,44,"H 50","","",FALSE,"CV","p",424,"cv","H","0","c","v",FALSE,0
"3587","CVOE_B",54,1,2,45,"S 33","","",TRUE,"CV","q",563,"cv","S","3","c","c",TRUE,1
"3588","CVOE_B",54,1,2,46,"P 57","","",TRUE,"CV","q",764,"cv","P","7","c","c",TRUE,1
"3589","CVOE_B",54,1,2,47,"E 23","","",FALSE,"CV","p",549,"cv","E","3","v","v",TRUE,1
"3590","CVOE_B",54,1,2,48,"S 61","","",TRUE,"CV","q",457,"cv","S","1","c","c",TRUE,1
"3591","CVOE_B",54,1,2,49,"U 67","","",FALSE,"CV","p",745,"cv","U","7","v","v",TRUE,1
"3592","CVOE_B",54,1,2,50,"H 32","","",FALSE,"CV","q",465,"cv","H","2","c","c",TRUE,1
"3593","CVOE_B",54,1,2,51,"U 50","","",TRUE,"CV","q",455,"cv","U","0","v","c",FALSE,0
"3594","CVOE_B",54,1,2,52,"O 49","","",FALSE,"CV","q",470,"cv","O","9","v","c",FALSE,0
"3595","CVOE_B",54,1,2,53,"U 32","","",TRUE,"CV","p",629,"cv","U","2","v","v",TRUE,1
"3596","CVOE_B",54,1,2,54,"J 78","","",FALSE,"CV","q",419,"cv","J","8","c","c",TRUE,1
"3597","CVOE_B",54,1,2,55,"S 54","","",FALSE,"CV","q",884,"cv","S","4","c","c",TRUE,1
"3598","CVOE_B",54,1,2,56,"J 27","","",TRUE,"CV","q",601,"cv","J","7","c","c",TRUE,1
"3599","CVOE_B",54,1,2,57,"S 06","","",FALSE,"CV","q",646,"cv","S","6","c","c",TRUE,1
"3600","CVOE_B",54,1,2,58,"D 67","","",TRUE,"CV","q",499,"cv","D","7","c","c",TRUE,1
"3601","CVOE_B",54,1,2,59,"A 79","","",FALSE,"CV","p",480,"cv","A","9","v","v",TRUE,1
"3602","CVOE_B",54,1,2,60,"S 52","","",FALSE,"CV","q",459,"cv","S","2","c","c",TRUE,1
"3603","CVOE_B",54,1,2,61,"U 16","","",TRUE,"CV","p",493,"cv","U","6","v","v",TRUE,1
"3604","CVOE_B",54,1,2,62,"O 82","","",TRUE,"CV","p",588,"cv","O","2","v","v",TRUE,1
"3605","CVOE_B",54,1,2,63,"H 87","","",TRUE,"CV","q",702,"cv","H","7","c","c",TRUE,1
"3606","CVOE_B",54,1,2,64,"I 32","","",TRUE,"CV","p",805,"cv","I","2","v","v",TRUE,1
"3607","CVOE_B",54,1,2,65,"U 37","","",FALSE,"CV","p",1242,"cv","U","7","v","v",TRUE,1
"3608","CVOE_B",54,1,2,66,"I 42","","",TRUE,"CV","p",486,"cv","I","2","v","v",TRUE,1
"3609","CVOE_B",54,1,2,67,"D 65","","",TRUE,"CV","q",455,"cv","D","5","c","c",TRUE,1
"3610","CVOE_B",54,1,2,68,"U 77","","",FALSE,"CV","p",437,"cv","U","7","v","v",TRUE,1
"3611","CVOE_B",54,1,2,69,"E 12","","",TRUE,"CV","p",615,"cv","E","2","v","v",TRUE,1
"3612","CVOE_B",54,1,2,70,"I 60","","",TRUE,"CV","p",430,"cv","I","0","v","v",TRUE,1
"3613","CVOE_B",54,1,2,71,"J 36","","",FALSE,"CV","q",514,"cv","J","6","c","c",TRUE,1
"3614","CVOE_B",54,1,2,72,"H 75","","",TRUE,"CV","q",727,"cv","H","5","c","c",TRUE,1
"3615","CVOE_B",54,1,2,73,"I 50","","",TRUE,"CV","p",1896,"cv","I","0","v","v",TRUE,1
"3616","CVOE_B",54,1,2,74,"E 99","","",FALSE,"CV","p",432,"cv","E","9","v","v",TRUE,1
"3617","CVOE_B",54,1,2,75,"A 86","","",TRUE,"CV","p",451,"cv","A","6","v","v",TRUE,1
"3618","CVOE_B",54,1,2,76,"U 48","","",TRUE,"CV","p",462,"cv","U","8","v","v",TRUE,1
"3619","CVOE_B",54,1,2,77,"E 01","","",FALSE,"CV","p",368,"cv","E","1","v","v",TRUE,1
"3620","CVOE_B",54,1,2,78,"A 78","","",TRUE,"CV","p",311,"cv","A","8","v","v",TRUE,1
"3621","CVOE_B",54,1,2,79,"P 60","","",FALSE,"CV","p",316,"cv","P","0","c","v",FALSE,0
"3622","CVOE_B",54,1,2,80,"E 43","","",FALSE,"CV","p",341,"cv","E","3","v","v",TRUE,1
"3623","CVOE_B",54,1,2,81,"D 69","","",TRUE,"CV","q",440,"cv","D","9","c","c",TRUE,1
"3624","CVOE_B",54,1,2,82,"H 11","","",TRUE,"CV","q",421,"cv","H","1","c","c",TRUE,1
"3625","CVOE_B",54,1,2,83,"P 43","","",TRUE,"CV","q",415,"cv","P","3","c","c",TRUE,1
"3626","CVOE_B",54,1,2,84,"O 67","","",FALSE,"CV","p",391,"cv","O","7","v","v",TRUE,1
"3627","CVOE_B",54,1,2,85,"S 91","","",FALSE,"CV","q",475,"cv","S","1","c","c",TRUE,1
"3628","CVOE_B",54,1,2,86,"J 68","","",TRUE,"CV","p",488,"cv","J","8","c","v",FALSE,0
"3629","CVOE_B",54,1,2,87,"S 47","","",FALSE,"CV","q",544,"cv","S","7","c","c",TRUE,1
"3630","CVOE_B",54,1,2,88,"I 81","","",TRUE,"CV","p",473,"cv","I","1","v","v",TRUE,1
"3631","CVOE_B",54,1,2,89,"J 39","","",FALSE,"CV","q",494,"cv","J","9","c","c",TRUE,1
"3632","CVOE_B",54,1,2,90,"A 11","","",TRUE,"CV","p",478,"cv","A","1","v","v",TRUE,1
"3633","CVOE_B",54,1,2,91,"O 76","","",FALSE,"CV","p",487,"cv","O","6","v","v",TRUE,1
"3634","CVOE_B",54,1,2,92,"A 62","","",FALSE,"CV","p",511,"cv","A","2","v","v",TRUE,1
"3635","CVOE_B",54,1,2,93,"O 27","","",TRUE,"CV","p",389,"cv","O","7","v","v",TRUE,1
"3636","CVOE_B",54,1,2,94,"E 66","","",FALSE,"CV","p",418,"cv","E","6","v","v",TRUE,1
"3637","CVOE_B",54,1,2,95,"J 62","","",TRUE,"CV","q",384,"cv","J","2","c","c",TRUE,1
"3638","CVOE_B",54,1,2,96,"H 72","","",TRUE,"CV","q",516,"cv","H","2","c","c",TRUE,1
"3639","CVOE_B",54,1,2,97,"E 49","","",TRUE,"CV","p",650,"cv","E","9","v","v",TRUE,1
"3640","CVOE_B",54,1,2,98,"D 52","","",TRUE,"CV","q",497,"cv","D","2","c","c",TRUE,1
"3641","CVOE_B",54,1,2,99,"H 62","","",TRUE,"CV","q",718,"cv","H","2","c","c",TRUE,1
"3642","CVOE_B",54,1,2,100,"I 11","","",TRUE,"CV","p",469,"cv","I","1","v","v",TRUE,1
"3643","CVOE_B",54,1,2,101,"A 98","","",FALSE,"CV","p",661,"cv","A","8","v","v",TRUE,1
"3644","CVOE_B",54,1,2,102,"H 29","","",FALSE,"CV","q",591,"cv","H","9","c","c",TRUE,1
"3645","CVOE_B",54,1,2,103,"E 83","","",TRUE,"CV","p",473,"cv","E","3","v","v",TRUE,1
"3646","CVOE_B",54,1,2,104,"D 43","","",FALSE,"CV","q",735,"cv","D","3","c","c",TRUE,1
"3647","CVOE_B",54,1,2,105,"P 45","","",TRUE,"CV","q",489,"cv","P","5","c","c",TRUE,1
"3648","CVOE_B",54,1,2,106,"J 17","","",TRUE,"CV","q",493,"cv","J","7","c","c",TRUE,1
"3985","CVOE_B",58,1,2,11,"A 71","","",FALSE,"CV","p",3565,"cv","A","1","v","v",TRUE,1
"3986","CVOE_B",58,1,2,12,"I 66","","",TRUE,"CV","p",814,"cv","I","6","v","v",TRUE,1
"3987","CVOE_B",58,1,2,13,"S 30","","",FALSE,"CV","q",682,"cv","S","0","c","c",TRUE,1
"3988","CVOE_B",58,1,2,14,"D 20","","",FALSE,"CV","q",1058,"cv","D","0","c","c",TRUE,1
"3989","CVOE_B",58,1,2,15,"I 31","","",FALSE,"CV","p",805,"cv","I","1","v","v",TRUE,1
"3990","CVOE_B",58,1,2,16,"P 16","","",FALSE,"CV","q",854,"cv","P","6","c","c",TRUE,1
"3991","CVOE_B",58,1,2,17,"A 49","","",FALSE,"CV","p",601,"cv","A","9","v","v",TRUE,1
"3992","CVOE_B",58,1,2,18,"O 64","","",TRUE,"CV","p",513,"cv","O","4","v","v",TRUE,1
"3993","CVOE_B",58,1,2,19,"D 02","","",FALSE,"CV","q",527,"cv","D","2","c","c",TRUE,1
"3994","CVOE_B",58,1,2,20,"P 81","","",TRUE,"CV","q",970,"cv","P","1","c","c",TRUE,1
"3995","CVOE_B",58,1,2,21,"J 58","","",FALSE,"CV","q",757,"cv","J","8","c","c",TRUE,1
"3996","CVOE_B",58,1,2,22,"A 22","","",TRUE,"CV","p",582,"cv","A","2","v","v",TRUE,1
"3997","CVOE_B",58,1,2,23,"J 72","","",FALSE,"CV","q",644,"cv","J","2","c","c",TRUE,1
"3998","CVOE_B",58,1,2,24,"P 91","","",TRUE,"CV","q",388,"cv","P","1","c","c",TRUE,1
"3999","CVOE_B",58,1,2,25,"E 19","","",FALSE,"CV","p",490,"cv","E","9","v","v",TRUE,1
"4000","CVOE_B",58,1,2,26,"I 30","","",TRUE,"CV","p",485,"cv","I","0","v","v",TRUE,1
"4001","CVOE_B",58,1,2,27,"D 91","","",TRUE,"CV","q",549,"cv","D","1","c","c",TRUE,1
"4002","CVOE_B",58,1,2,28,"O 48","","",TRUE,"CV","p",539,"cv","O","8","v","v",TRUE,1
"4003","CVOE_B",58,1,2,29,"A 89","","",FALSE,"CV","p",1158,"cv","A","9","v","v",TRUE,1
"4004","CVOE_B",58,1,2,30,"U 11","","",FALSE,"CV","p",431,"cv","U","1","v","v",TRUE,1
"4005","CVOE_B",58,1,2,31,"I 76","","",TRUE,"CV","p",540,"cv","I","6","v","v",TRUE,1
"4006","CVOE_B",58,1,2,32,"U 89","","",FALSE,"CV","p",650,"cv","U","9","v","v",TRUE,1
"4007","CVOE_B",58,1,2,33,"D 63","","",TRUE,"CV","q",909,"cv","D","3","c","c",TRUE,1
"4008","CVOE_B",58,1,2,34,"H 70","","",FALSE,"CV","q",411,"cv","H","0","c","c",TRUE,1
"4009","CVOE_B",58,1,2,35,"D 48","","",FALSE,"CV","q",398,"cv","D","8","c","c",TRUE,1
"4010","CVOE_B",58,1,2,36,"P 56","","",FALSE,"CV","q",542,"cv","P","6","c","c",TRUE,1
"4011","CVOE_B",58,1,2,37,"O 77","","",FALSE,"CV","p",492,"cv","O","7","v","v",TRUE,1
"4012","CVOE_B",58,1,2,38,"P 42","","",FALSE,"CV","q",623,"cv","P","2","c","c",TRUE,1
"4013","CVOE_B",58,1,2,39,"H 22","","",FALSE,"CV","q",573,"cv","H","2","c","c",TRUE,1
"4014","CVOE_B",58,1,2,40,"E 42","","",TRUE,"CV","p",728,"cv","E","2","v","v",TRUE,1
"4015","CVOE_B",58,1,2,41,"J 28","","",FALSE,"CV","q",667,"cv","J","8","c","c",TRUE,1
"4016","CVOE_B",58,1,2,42,"E 95","","",FALSE,"CV","p",505,"cv","E","5","v","v",TRUE,1
"4017","CVOE_B",58,1,2,43,"S 63","","",TRUE,"CV","q",591,"cv","S","3","c","c",TRUE,1
"4018","CVOE_B",58,1,2,44,"H 50","","",FALSE,"CV","q",517,"cv","H","0","c","c",TRUE,1
"4019","CVOE_B",58,1,2,45,"S 33","","",TRUE,"CV","q",1021,"cv","S","3","c","c",TRUE,1
"4020","CVOE_B",58,1,2,46,"P 57","","",TRUE,"CV","q",611,"cv","P","7","c","c",TRUE,1
"4021","CVOE_B",58,1,2,47,"E 23","","",FALSE,"CV","p",630,"cv","E","3","v","v",TRUE,1
"4022","CVOE_B",58,1,2,48,"S 61","","",TRUE,"CV","q",684,"cv","S","1","c","c",TRUE,1
"4023","CVOE_B",58,1,2,49,"U 67","","",FALSE,"CV","p",652,"cv","U","7","v","v",TRUE,1
"4024","CVOE_B",58,1,2,50,"H 32","","",FALSE,"CV","q",1663,"cv","H","2","c","c",TRUE,1
"4025","CVOE_B",58,1,2,51,"U 50","","",TRUE,"CV","p",621,"cv","U","0","v","v",TRUE,1
"4026","CVOE_B",58,1,2,52,"O 49","","",FALSE,"CV","p",595,"cv","O","9","v","v",TRUE,1
"4027","CVOE_B",58,1,2,53,"U 32","","",TRUE,"CV","p",524,"cv","U","2","v","v",TRUE,1
"4028","CVOE_B",58,1,2,54,"J 78","","",FALSE,"CV","q",652,"cv","J","8","c","c",TRUE,1
"4029","CVOE_B",58,1,2,55,"S 54","","",FALSE,"CV","q",687,"cv","S","4","c","c",TRUE,1
"4030","CVOE_B",58,1,2,56,"J 27","","",TRUE,"CV","q",562,"cv","J","7","c","c",TRUE,1
"4031","CVOE_B",58,1,2,57,"S 06","","",FALSE,"CV","q",427,"cv","S","6","c","c",TRUE,1
"4032","CVOE_B",58,1,2,58,"D 67","","",TRUE,"CV","q",504,"cv","D","7","c","c",TRUE,1
"4033","CVOE_B",58,1,2,59,"A 79","","",FALSE,"CV","p",446,"cv","A","9","v","v",TRUE,1
"4034","CVOE_B",58,1,2,60,"S 52","","",FALSE,"CV","q",742,"cv","S","2","c","c",TRUE,1
"4035","CVOE_B",58,1,2,61,"U 16","","",TRUE,"CV","p",596,"cv","U","6","v","v",TRUE,1
"4036","CVOE_B",58,1,2,62,"O 82","","",TRUE,"CV","p",581,"cv","O","2","v","v",TRUE,1
"4037","CVOE_B",58,1,2,63,"H 87","","",TRUE,"CV","q",570,"cv","H","7","c","c",TRUE,1
"4038","CVOE_B",58,1,2,64,"I 32","","",TRUE,"CV","p",2222,"cv","I","2","v","v",TRUE,1
"4039","CVOE_B",58,1,2,65,"U 37","","",FALSE,"CV","p",476,"cv","U","7","v","v",TRUE,1
"4040","CVOE_B",58,1,2,66,"I 42","","",TRUE,"CV","p",476,"cv","I","2","v","v",TRUE,1
"4041","CVOE_B",58,1,2,67,"D 65","","",TRUE,"CV","q",733,"cv","D","5","c","c",TRUE,1
"4042","CVOE_B",58,1,2,68,"U 77","","",FALSE,"CV","p",704,"cv","U","7","v","v",TRUE,1
"4043","CVOE_B",58,1,2,69,"E 12","","",TRUE,"CV","p",558,"cv","E","2","v","v",TRUE,1
"4044","CVOE_B",58,1,2,70,"I 60","","",TRUE,"CV","p",422,"cv","I","0","v","v",TRUE,1
"4045","CVOE_B",58,1,2,71,"J 36","","",FALSE,"CV","p",484,"cv","J","6","c","v",FALSE,0
"4046","CVOE_B",58,1,2,72,"H 75","","",TRUE,"CV","q",1132,"cv","H","5","c","c",TRUE,1
"4047","CVOE_B",58,1,2,73,"I 50","","",TRUE,"CV","p",1743,"cv","I","0","v","v",TRUE,1
"4048","CVOE_B",58,1,2,74,"E 99","","",FALSE,"CV","p",558,"cv","E","9","v","v",TRUE,1
"4049","CVOE_B",58,1,2,75,"A 86","","",TRUE,"CV","p",1414,"cv","A","6","v","v",TRUE,1
"4050","CVOE_B",58,1,2,76,"U 48","","",TRUE,"CV","p",1073,"cv","U","8","v","v",TRUE,1
"4051","CVOE_B",58,1,2,77,"E 01","","",FALSE,"CV","p",834,"cv","E","1","v","v",TRUE,1
"4052","CVOE_B",58,1,2,78,"A 78","","",TRUE,"CV","p",475,"cv","A","8","v","v",TRUE,1
"4053","CVOE_B",58,1,2,79,"P 60","","",FALSE,"CV","q",499,"cv","P","0","c","c",TRUE,1
"4054","CVOE_B",58,1,2,80,"E 43","","",FALSE,"CV","p",630,"cv","E","3","v","v",TRUE,1
"4055","CVOE_B",58,1,2,81,"D 69","","",TRUE,"CV","q",1020,"cv","D","9","c","c",TRUE,1
"4056","CVOE_B",58,1,2,82,"H 11","","",TRUE,"CV","q",735,"cv","H","1","c","c",TRUE,1
"4057","CVOE_B",58,1,2,83,"P 43","","",TRUE,"CV","q",586,"cv","P","3","c","c",TRUE,1
"4058","CVOE_B",58,1,2,84,"O 67","","",FALSE,"CV","p",640,"cv","O","7","v","v",TRUE,1
"4059","CVOE_B",58,1,2,85,"S 91","","",FALSE,"CV","q",520,"cv","S","1","c","c",TRUE,1
"4060","CVOE_B",58,1,2,86,"J 68","","",TRUE,"CV","q",1625,"cv","J","8","c","c",TRUE,1
"4061","CVOE_B",58,1,2,87,"S 47","","",FALSE,"CV","q",1095,"cv","S","7","c","c",TRUE,1
"4062","CVOE_B",58,1,2,88,"I 81","","",TRUE,"CV","p",514,"cv","I","1","v","v",TRUE,1
"4063","CVOE_B",58,1,2,89,"J 39","","",FALSE,"CV","q",1187,"cv","J","9","c","c",TRUE,1
"4064","CVOE_B",58,1,2,90,"A 11","","",TRUE,"CV","p",553,"cv","A","1","v","v",TRUE,1
"4065","CVOE_B",58,1,2,91,"O 76","","",FALSE,"CV","q",1438,"cv","O","6","v","c",FALSE,0
"4066","CVOE_B",58,1,2,92,"A 62","","",FALSE,"CV","p",1735,"cv","A","2","v","v",TRUE,1
"4067","CVOE_B",58,1,2,93,"O 27","","",TRUE,"CV","p",1443,"cv","O","7","v","v",TRUE,1
"4068","CVOE_B",58,1,2,94,"E 66","","",FALSE,"CV","p",723,"cv","E","6","v","v",TRUE,1
"4069","CVOE_B",58,1,2,95,"J 62","","",TRUE,"CV","p",820,"cv","J","2","c","v",FALSE,0
"4070","CVOE_B",58,1,2,96,"H 72","","",TRUE,"CV","q",735,"cv","H","2","c","c",TRUE,1
"4071","CVOE_B",58,1,2,97,"E 49","","",TRUE,"CV","p",890,"cv","E","9","v","v",TRUE,1
"4072","CVOE_B",58,1,2,98,"D 52","","",TRUE,"CV","q",1237,"cv","D","2","c","c",TRUE,1
"4073","CVOE_B",58,1,2,99,"H 62","","",TRUE,"CV","q",2878,"cv","H","2","c","c",TRUE,1
"4074","CVOE_B",58,1,2,100,"I 11","","",TRUE,"CV","p",1847,"cv","I","1","v","v",TRUE,1
"4075","CVOE_B",58,1,2,101,"A 98","","",FALSE,"CV","p",1827,"cv","A","8","v","v",TRUE,1
"4076","CVOE_B",58,1,2,102,"H 29","","",FALSE,"CV","q",1761,"cv","H","9","c","c",TRUE,1
"4077","CVOE_B",58,1,2,103,"E 83","","",TRUE,"CV","p",1050,"cv","E","3","v","v",TRUE,1
"4078","CVOE_B",58,1,2,104,"D 43","","",FALSE,"CV","q",1693,"cv","D","3","c","c",TRUE,1
"4079","CVOE_B",58,1,2,105,"P 45","","",TRUE,"CV","q",881,"cv","P","5","c","c",TRUE,1
"4080","CVOE_B",58,1,2,106,"J 17","","",TRUE,"CV","q",505,"cv","J","7","c","c",TRUE,1
"4417","CVOE_B",62,1,2,11,"A 71","","",FALSE,"CV","p",1832,"cv","A","1","v","v",TRUE,1
"4418","CVOE_B",62,1,2,12,"I 66","","",TRUE,"CV","p",862,"cv","I","6","v","v",TRUE,1
"4419","CVOE_B",62,1,2,13,"S 30","","",FALSE,"CV","q",1116,"cv","S","0","c","c",TRUE,1
"4420","CVOE_B",62,1,2,14,"D 20","","",FALSE,"CV","q",589,"cv","D","0","c","c",TRUE,1
"4421","CVOE_B",62,1,2,15,"I 31","","",FALSE,"CV","p",674,"cv","I","1","v","v",TRUE,1
"4422","CVOE_B",62,1,2,16,"P 16","","",FALSE,"CV","q",643,"cv","P","6","c","c",TRUE,1
"4423","CVOE_B",62,1,2,17,"A 49","","",FALSE,"CV","p",571,"cv","A","9","v","v",TRUE,1
"4424","CVOE_B",62,1,2,18,"O 64","","",TRUE,"CV","p",710,"cv","O","4","v","v",TRUE,1
"4425","CVOE_B",62,1,2,19,"D 02","","",FALSE,"CV","q",588,"cv","D","2","c","c",TRUE,1
"4426","CVOE_B",62,1,2,20,"P 81","","",TRUE,"CV","q",650,"cv","P","1","c","c",TRUE,1
"4427","CVOE_B",62,1,2,21,"J 58","","",FALSE,"CV","q",557,"cv","J","8","c","c",TRUE,1
"4428","CVOE_B",62,1,2,22,"A 22","","",TRUE,"CV","p",573,"cv","A","2","v","v",TRUE,1
"4429","CVOE_B",62,1,2,23,"J 72","","",FALSE,"CV","q",576,"cv","J","2","c","c",TRUE,1
"4430","CVOE_B",62,1,2,24,"P 91","","",TRUE,"CV","q",572,"cv","P","1","c","c",TRUE,1
"4431","CVOE_B",62,1,2,25,"E 19","","",FALSE,"CV","p",575,"cv","E","9","v","v",TRUE,1
"4432","CVOE_B",62,1,2,26,"I 30","","",TRUE,"CV","p",530,"cv","I","0","v","v",TRUE,1
"4433","CVOE_B",62,1,2,27,"D 91","","",TRUE,"CV","q",573,"cv","D","1","c","c",TRUE,1
"4434","CVOE_B",62,1,2,28,"O 48","","",TRUE,"CV","p",600,"cv","O","8","v","v",TRUE,1
"4435","CVOE_B",62,1,2,29,"A 89","","",FALSE,"CV","p",528,"cv","A","9","v","v",TRUE,1
"4436","CVOE_B",62,1,2,30,"U 11","","",FALSE,"CV","p",547,"cv","U","1","v","v",TRUE,1
"4437","CVOE_B",62,1,2,31,"I 76","","",TRUE,"CV","p",545,"cv","I","6","v","v",TRUE,1
"4438","CVOE_B",62,1,2,32,"U 89","","",FALSE,"CV","p",495,"cv","U","9","v","v",TRUE,1
"4439","CVOE_B",62,1,2,33,"D 63","","",TRUE,"CV","q",578,"cv","D","3","c","c",TRUE,1
"4440","CVOE_B",62,1,2,34,"H 70","","",FALSE,"CV","q",549,"cv","H","0","c","c",TRUE,1
"4441","CVOE_B",62,1,2,35,"D 48","","",FALSE,"CV","q",619,"cv","D","8","c","c",TRUE,1
"4442","CVOE_B",62,1,2,36,"P 56","","",FALSE,"CV","q",486,"cv","P","6","c","c",TRUE,1
"4443","CVOE_B",62,1,2,37,"O 77","","",FALSE,"CV","p",590,"cv","O","7","v","v",TRUE,1
"4444","CVOE_B",62,1,2,38,"P 42","","",FALSE,"CV","q",492,"cv","P","2","c","c",TRUE,1
"4445","CVOE_B",62,1,2,39,"H 22","","",FALSE,"CV","q",487,"cv","H","2","c","c",TRUE,1
"4446","CVOE_B",62,1,2,40,"E 42","","",TRUE,"CV","p",594,"cv","E","2","v","v",TRUE,1
"4447","CVOE_B",62,1,2,41,"J 28","","",FALSE,"CV","q",754,"cv","J","8","c","c",TRUE,1
"4448","CVOE_B",62,1,2,42,"E 95","","",FALSE,"CV","p",587,"cv","E","5","v","v",TRUE,1
"4449","CVOE_B",62,1,2,43,"S 63","","",TRUE,"CV","q",505,"cv","S","3","c","c",TRUE,1
"4450","CVOE_B",62,1,2,44,"H 50","","",FALSE,"CV","q",534,"cv","H","0","c","c",TRUE,1
"4451","CVOE_B",62,1,2,45,"S 33","","",TRUE,"CV","q",618,"cv","S","3","c","c",TRUE,1
"4452","CVOE_B",62,1,2,46,"P 57","","",TRUE,"CV","q",509,"cv","P","7","c","c",TRUE,1
"4453","CVOE_B",62,1,2,47,"E 23","","",FALSE,"CV","p",506,"cv","E","3","v","v",TRUE,1
"4454","CVOE_B",62,1,2,48,"S 61","","",TRUE,"CV","q",528,"cv","S","1","c","c",TRUE,1
"4455","CVOE_B",62,1,2,49,"U 67","","",FALSE,"CV","p",571,"cv","U","7","v","v",TRUE,1
"4456","CVOE_B",62,1,2,50,"H 32","","",FALSE,"CV","q",1102,"cv","H","2","c","c",TRUE,1
"4457","CVOE_B",62,1,2,51,"U 50","","",TRUE,"CV","p",1148,"cv","U","0","v","v",TRUE,1
"4458","CVOE_B",62,1,2,52,"O 49","","",FALSE,"CV","p",618,"cv","O","9","v","v",TRUE,1
"4459","CVOE_B",62,1,2,53,"U 32","","",TRUE,"CV","p",461,"cv","U","2","v","v",TRUE,1
"4460","CVOE_B",62,1,2,54,"J 78","","",FALSE,"CV","q",499,"cv","J","8","c","c",TRUE,1
"4461","CVOE_B",62,1,2,55,"S 54","","",FALSE,"CV","q",558,"cv","S","4","c","c",TRUE,1
"4462","CVOE_B",62,1,2,56,"J 27","","",TRUE,"CV","q",550,"cv","J","7","c","c",TRUE,1
"4463","CVOE_B",62,1,2,57,"S 06","","",FALSE,"CV","q",492,"cv","S","6","c","c",TRUE,1
"4464","CVOE_B",62,1,2,58,"D 67","","",TRUE,"CV","p",503,"cv","D","7","c","v",FALSE,0
"4465","CVOE_B",62,1,2,59,"A 79","","",FALSE,"CV","p",581,"cv","A","9","v","v",TRUE,1
"4466","CVOE_B",62,1,2,60,"S 52","","",FALSE,"CV","q",579,"cv","S","2","c","c",TRUE,1
"4467","CVOE_B",62,1,2,61,"U 16","","",TRUE,"CV","p",654,"cv","U","6","v","v",TRUE,1
"4468","CVOE_B",62,1,2,62,"O 82","","",TRUE,"CV","p",609,"cv","O","2","v","v",TRUE,1
"4469","CVOE_B",62,1,2,63,"H 87","","",TRUE,"CV","q",636,"cv","H","7","c","c",TRUE,1
"4470","CVOE_B",62,1,2,64,"I 32","","",TRUE,"CV","p",772,"cv","I","2","v","v",TRUE,1
"4471","CVOE_B",62,1,2,65,"U 37","","",FALSE,"CV","p",624,"cv","U","7","v","v",TRUE,1
"4472","CVOE_B",62,1,2,66,"I 42","","",TRUE,"CV","p",581,"cv","I","2","v","v",TRUE,1
"4473","CVOE_B",62,1,2,67,"D 65","","",TRUE,"CV","q",595,"cv","D","5","c","c",TRUE,1
"4474","CVOE_B",62,1,2,68,"U 77","","",FALSE,"CV","p",596,"cv","U","7","v","v",TRUE,1
"4475","CVOE_B",62,1,2,69,"E 12","","",TRUE,"CV","p",500,"cv","E","2","v","v",TRUE,1
"4476","CVOE_B",62,1,2,70,"I 60","","",TRUE,"CV","p",514,"cv","I","0","v","v",TRUE,1
"4477","CVOE_B",62,1,2,71,"J 36","","",FALSE,"CV","q",1042,"cv","J","6","c","c",TRUE,1
"4478","CVOE_B",62,1,2,72,"H 75","","",TRUE,"CV","q",595,"cv","H","5","c","c",TRUE,1
"4479","CVOE_B",62,1,2,73,"I 50","","",TRUE,"CV","p",747,"cv","I","0","v","v",TRUE,1
"4480","CVOE_B",62,1,2,74,"E 99","","",FALSE,"CV","p",697,"cv","E","9","v","v",TRUE,1
"4481","CVOE_B",62,1,2,75,"A 86","","",TRUE,"CV","p",796,"cv","A","6","v","v",TRUE,1
"4482","CVOE_B",62,1,2,76,"U 48","","",TRUE,"CV","p",669,"cv","U","8","v","v",TRUE,1
"4483","CVOE_B",62,1,2,77,"E 01","","",FALSE,"CV","p",706,"cv","E","1","v","v",TRUE,1
"4484","CVOE_B",62,1,2,78,"A 78","","",TRUE,"CV","p",616,"cv","A","8","v","v",TRUE,1
"4485","CVOE_B",62,1,2,79,"P 60","","",FALSE,"CV","q",539,"cv","P","0","c","c",TRUE,1
"4486","CVOE_B",62,1,2,80,"E 43","","",FALSE,"CV","p",1446,"cv","E","3","v","v",TRUE,1
"4487","CVOE_B",62,1,2,81,"D 69","","",TRUE,"CV","q",551,"cv","D","9","c","c",TRUE,1
"4488","CVOE_B",62,1,2,82,"H 11","","",TRUE,"CV","q",597,"cv","H","1","c","c",TRUE,1
"4489","CVOE_B",62,1,2,83,"P 43","","",TRUE,"CV","q",549,"cv","P","3","c","c",TRUE,1
"4490","CVOE_B",62,1,2,84,"O 67","","",FALSE,"CV","p",491,"cv","O","7","v","v",TRUE,1
"4491","CVOE_B",62,1,2,85,"S 91","","",FALSE,"CV","q",510,"cv","S","1","c","c",TRUE,1
"4492","CVOE_B",62,1,2,86,"J 68","","",TRUE,"CV","q",556,"cv","J","8","c","c",TRUE,1
"4493","CVOE_B",62,1,2,87,"S 47","","",FALSE,"CV","q",580,"cv","S","7","c","c",TRUE,1
"4494","CVOE_B",62,1,2,88,"I 81","","",TRUE,"CV","p",554,"cv","I","1","v","v",TRUE,1
"4495","CVOE_B",62,1,2,89,"J 39","","",FALSE,"CV","q",602,"cv","J","9","c","c",TRUE,1
"4496","CVOE_B",62,1,2,90,"A 11","","",TRUE,"CV","p",563,"cv","A","1","v","v",TRUE,1
"4497","CVOE_B",62,1,2,91,"O 76","","",FALSE,"CV","p",531,"cv","O","6","v","v",TRUE,1
"4498","CVOE_B",62,1,2,92,"A 62","","",FALSE,"CV","p",526,"cv","A","2","v","v",TRUE,1
"4499","CVOE_B",62,1,2,93,"O 27","","",TRUE,"CV","p",503,"cv","O","7","v","v",TRUE,1
"4500","CVOE_B",62,1,2,94,"E 66","","",FALSE,"CV","p",580,"cv","E","6","v","v",TRUE,1
"4501","CVOE_B",62,1,2,95,"J 62","","",TRUE,"CV","q",522,"cv","J","2","c","c",TRUE,1
"4502","CVOE_B",62,1,2,96,"H 72","","",TRUE,"CV","q",643,"cv","H","2","c","c",TRUE,1
"4503","CVOE_B",62,1,2,97,"E 49","","",TRUE,"CV","p",539,"cv","E","9","v","v",TRUE,1
"4504","CVOE_B",62,1,2,98,"D 52","","",TRUE,"CV","q",558,"cv","D","2","c","c",TRUE,1
"4505","CVOE_B",62,1,2,99,"H 62","","",TRUE,"CV","q",502,"cv","H","2","c","c",TRUE,1
"4506","CVOE_B",62,1,2,100,"I 11","","",TRUE,"CV","p",604,"cv","I","1","v","v",TRUE,1
"4507","CVOE_B",62,1,2,101,"A 98","","",FALSE,"CV","p",549,"cv","A","8","v","v",TRUE,1
"4508","CVOE_B",62,1,2,102,"H 29","","",FALSE,"CV","q",562,"cv","H","9","c","c",TRUE,1
"4509","CVOE_B",62,1,2,103,"E 83","","",TRUE,"CV","q",523,"cv","E","3","v","c",FALSE,0
"4510","CVOE_B",62,1,2,104,"D 43","","",FALSE,"CV","q",843,"cv","D","3","c","c",TRUE,1
"4511","CVOE_B",62,1,2,105,"P 45","","",TRUE,"CV","q",684,"cv","P","5","c","c",TRUE,1
"4512","CVOE_B",62,1,2,106,"J 17","","",TRUE,"CV","q",596,"cv","J","7","c","c",TRUE,1
"4849","CVOE_C",35,1,2,11,"A 71","","",FALSE,"CV","p",686,"cv","A","1","v","v",TRUE,1
"4850","CVOE_C",35,1,2,12,"I 66","","",TRUE,"CV","p",790,"cv","I","6","v","v",TRUE,1
"4851","CVOE_C",35,1,2,13,"S 30","","",FALSE,"CV","q",460,"cv","S","0","c","c",TRUE,1
"4852","CVOE_C",35,1,2,14,"D 20","","",FALSE,"CV","q",431,"cv","D","0","c","c",TRUE,1
"4853","CVOE_C",35,1,2,15,"I 31","","",FALSE,"CV","p",397,"cv","I","1","v","v",TRUE,1
"4854","CVOE_C",35,1,2,16,"P 16","","",FALSE,"CV","q",381,"cv","P","6","c","c",TRUE,1
"4855","CVOE_C",35,1,2,17,"A 49","","",FALSE,"CV","p",395,"cv","A","9","v","v",TRUE,1
"4856","CVOE_C",35,1,2,18,"O 64","","",TRUE,"CV","p",755,"cv","O","4","v","v",TRUE,1
"4857","CVOE_C",35,1,2,19,"D 02","","",FALSE,"CV","q",539,"cv","D","2","c","c",TRUE,1
"4858","CVOE_C",35,1,2,20,"P 81","","",TRUE,"CV","q",423,"cv","P","1","c","c",TRUE,1
"4859","CVOE_C",35,1,2,21,"J 58","","",FALSE,"CV","q",420,"cv","J","8","c","c",TRUE,1
"4860","CVOE_C",35,1,2,22,"A 22","","",TRUE,"CV","p",354,"cv","A","2","v","v",TRUE,1
"4861","CVOE_C",35,1,2,23,"J 72","","",FALSE,"CV","q",386,"cv","J","2","c","c",TRUE,1
"4862","CVOE_C",35,1,2,24,"P 91","","",TRUE,"CV","q",440,"cv","P","1","c","c",TRUE,1
"4863","CVOE_C",35,1,2,25,"E 19","","",FALSE,"CV","p",392,"cv","E","9","v","v",TRUE,1
"4864","CVOE_C",35,1,2,26,"I 30","","",TRUE,"CV","p",446,"cv","I","0","v","v",TRUE,1
"4865","CVOE_C",35,1,2,27,"D 91","","",TRUE,"CV","q",342,"cv","D","1","c","c",TRUE,1
"4866","CVOE_C",35,1,2,28,"O 48","","",TRUE,"CV","p",468,"cv","O","8","v","v",TRUE,1
"4867","CVOE_C",35,1,2,29,"A 89","","",FALSE,"CV","p",426,"cv","A","9","v","v",TRUE,1
"4868","CVOE_C",35,1,2,30,"U 11","","",FALSE,"CV","p",487,"cv","U","1","v","v",TRUE,1
"4869","CVOE_C",35,1,2,31,"I 76","","",TRUE,"CV","p",426,"cv","I","6","v","v",TRUE,1
"4870","CVOE_C",35,1,2,32,"U 89","","",FALSE,"CV","p",432,"cv","U","9","v","v",TRUE,1
"4871","CVOE_C",35,1,2,33,"D 63","","",TRUE,"CV","q",462,"cv","D","3","c","c",TRUE,1
"4872","CVOE_C",35,1,2,34,"H 70","","",FALSE,"CV","q",452,"cv","H","0","c","c",TRUE,1
"4873","CVOE_C",35,1,2,35,"D 48","","",FALSE,"CV","q",375,"cv","D","8","c","c",TRUE,1
"4874","CVOE_C",35,1,2,36,"P 56","","",FALSE,"CV","p",386,"cv","P","6","c","v",FALSE,0
"4875","CVOE_C",35,1,2,37,"O 77","","",FALSE,"CV","p",471,"cv","O","7","v","v",TRUE,1
"4876","CVOE_C",35,1,2,38,"P 42","","",FALSE,"CV","q",445,"cv","P","2","c","c",TRUE,1
"4877","CVOE_C",35,1,2,39,"H 22","","",FALSE,"CV","q",445,"cv","H","2","c","c",TRUE,1
"4878","CVOE_C",35,1,2,40,"E 42","","",TRUE,"CV","p",462,"cv","E","2","v","v",TRUE,1
"4879","CVOE_C",35,1,2,41,"J 28","","",FALSE,"CV","q",379,"cv","J","8","c","c",TRUE,1
"4880","CVOE_C",35,1,2,42,"E 95","","",FALSE,"CV","p",406,"cv","E","5","v","v",TRUE,1
"4881","CVOE_C",35,1,2,43,"S 63","","",TRUE,"CV","q",375,"cv","S","3","c","c",TRUE,1
"4882","CVOE_C",35,1,2,44,"H 50","","",FALSE,"CV","q",506,"cv","H","0","c","c",TRUE,1
"4883","CVOE_C",35,1,2,45,"S 33","","",TRUE,"CV","q",351,"cv","S","3","c","c",TRUE,1
"4884","CVOE_C",35,1,2,46,"P 57","","",TRUE,"CV","q",285,"cv","P","7","c","c",TRUE,1
"4885","CVOE_C",35,1,2,47,"E 23","","",FALSE,"CV","q",317,"cv","E","3","v","c",FALSE,0
"4886","CVOE_C",35,1,2,48,"S 61","","",TRUE,"CV","q",334,"cv","S","1","c","c",TRUE,1
"4887","CVOE_C",35,1,2,49,"U 67","","",FALSE,"CV","p",417,"cv","U","7","v","v",TRUE,1
"4888","CVOE_C",35,1,2,50,"H 32","","",FALSE,"CV","q",380,"cv","H","2","c","c",TRUE,1
"4889","CVOE_C",35,1,2,51,"U 50","","",TRUE,"CV","p",463,"cv","U","0","v","v",TRUE,1
"4890","CVOE_C",35,1,2,52,"O 49","","",FALSE,"CV","p",493,"cv","O","9","v","v",TRUE,1
"4891","CVOE_C",35,1,2,53,"U 32","","",TRUE,"CV","p",320,"cv","U","2","v","v",TRUE,1
"4892","CVOE_C",35,1,2,54,"J 78","","",FALSE,"CV","q",368,"cv","J","8","c","c",TRUE,1
"4893","CVOE_C",35,1,2,55,"S 54","","",FALSE,"CV","q",339,"cv","S","4","c","c",TRUE,1
"4894","CVOE_C",35,1,2,56,"J 27","","",TRUE,"CV","q",294,"cv","J","7","c","c",TRUE,1
"4895","CVOE_C",35,1,2,57,"S 06","","",FALSE,"CV","q",657,"cv","S","6","c","c",TRUE,1
"4896","CVOE_C",35,1,2,58,"D 67","","",TRUE,"CV","q",444,"cv","D","7","c","c",TRUE,1
"4897","CVOE_C",35,1,2,59,"A 79","","",FALSE,"CV","p",492,"cv","A","9","v","v",TRUE,1
"4898","CVOE_C",35,1,2,60,"S 52","","",FALSE,"CV","q",447,"cv","S","2","c","c",TRUE,1
"4899","CVOE_C",35,1,2,61,"U 16","","",TRUE,"CV","q",354,"cv","U","6","v","c",FALSE,0
"4900","CVOE_C",35,1,2,62,"O 82","","",TRUE,"CV","p",419,"cv","O","2","v","v",TRUE,1
"4901","CVOE_C",35,1,2,63,"H 87","","",TRUE,"CV","q",478,"cv","H","7","c","c",TRUE,1
"4902","CVOE_C",35,1,2,64,"I 32","","",TRUE,"CV","p",582,"cv","I","2","v","v",TRUE,1
"4903","CVOE_C",35,1,2,65,"U 37","","",FALSE,"CV","p",428,"cv","U","7","v","v",TRUE,1
"4904","CVOE_C",35,1,2,66,"I 42","","",TRUE,"CV","p",386,"cv","I","2","v","v",TRUE,1
"4905","CVOE_C",35,1,2,67,"D 65","","",TRUE,"CV","p",319,"cv","D","5","c","v",FALSE,0
"4906","CVOE_C",35,1,2,68,"U 77","","",FALSE,"CV","p",416,"cv","U","7","v","v",TRUE,1
"4907","CVOE_C",35,1,2,69,"E 12","","",TRUE,"CV","p",363,"cv","E","2","v","v",TRUE,1
"4908","CVOE_C",35,1,2,70,"I 60","","",TRUE,"CV","p",315,"cv","I","0","v","v",TRUE,1
"4909","CVOE_C",35,1,2,71,"J 36","","",FALSE,"CV","q",459,"cv","J","6","c","c",TRUE,1
"4910","CVOE_C",35,1,2,72,"H 75","","",TRUE,"CV","q",350,"cv","H","5","c","c",TRUE,1
"4911","CVOE_C",35,1,2,73,"I 50","","",TRUE,"CV","p",588,"cv","I","0","v","v",TRUE,1
"4912","CVOE_C",35,1,2,74,"E 99","","",FALSE,"CV","p",370,"cv","E","9","v","v",TRUE,1
"4913","CVOE_C",35,1,2,75,"A 86","","",TRUE,"CV","p",717,"cv","A","6","v","v",TRUE,1
"4914","CVOE_C",35,1,2,76,"U 48","","",TRUE,"CV","p",453,"cv","U","8","v","v",TRUE,1
"4915","CVOE_C",35,1,2,77,"E 01","","",FALSE,"CV","p",728,"cv","E","1","v","v",TRUE,1
"4916","CVOE_C",35,1,2,78,"A 78","","",TRUE,"CV","p",579,"cv","A","8","v","v",TRUE,1
"4917","CVOE_C",35,1,2,79,"P 60","","",FALSE,"CV","q",407,"cv","P","0","c","c",TRUE,1
"4918","CVOE_C",35,1,2,80,"E 43","","",FALSE,"CV","p",471,"cv","E","3","v","v",TRUE,1
"4919","CVOE_C",35,1,2,81,"D 69","","",TRUE,"CV","q",437,"cv","D","9","c","c",TRUE,1
"4920","CVOE_C",35,1,2,82,"H 11","","",TRUE,"CV","q",445,"cv","H","1","c","c",TRUE,1
"4921","CVOE_C",35,1,2,83,"P 43","","",TRUE,"CV","q",453,"cv","P","3","c","c",TRUE,1
