"","ExperimentName","Subject","Group","Block","Trial","STIM","TASK","Switch","Congruent","CVOE","Response","RT","block_type","letter","number","key2","response2","match2","score2"
"1","CVOE updated",37,1,1,11,"A 71","","",FALSE,"CV","p",1180,"cv","A","1","v","v",TRUE,1
"2","CVOE updated",37,1,1,12,"I 66","","",TRUE,"CV","p",810,"cv","I","6","v","v",TRUE,1
"3","CVOE updated",37,1,1,13,"S 30","","",FALSE,"CV","q",590,"cv","S","0","c","c",TRUE,1
"4","CVOE updated",37,1,1,14,"D 20","","",FALSE,"CV","q",747,"cv","D","0","c","c",TRUE,1
"5","CVOE updated",37,1,1,15,"I 31","","",FALSE,"CV","p",577,"cv","I","1","v","v",TRUE,1
"6","CVOE updated",37,1,1,16,"P 16","","",FALSE,"CV","q",612,"cv","P","6","c","c",TRUE,1
"7","CVOE updated",37,1,1,17,"A 49","","",FALSE,"CV","p",599,"cv","A","9","v","v",TRUE,1
"8","CVOE updated",37,1,1,18,"O 64","","",TRUE,"CV","p",672,"cv","O","4","v","v",TRUE,1
"9","CVOE updated",37,1,1,19,"D 02","","",FALSE,"CV","q",630,"cv","D","2","c","c",TRUE,1
"10","CVOE updated",37,1,1,20,"P 81","","",TRUE,"CV","q",835,"cv","P","1","c","c",TRUE,1
"11","CVOE updated",37,1,1,21,"J 58","","",FALSE,"CV","q",684,"cv","J","8","c","c",TRUE,1
"12","CVOE updated",37,1,1,22,"A 22","","",TRUE,"CV","p",564,"cv","A","2","v","v",TRUE,1
"13","CVOE updated",37,1,1,23,"J 72","","",FALSE,"CV","q",1717,"cv","J","2","c","c",TRUE,1
"14","CVOE updated",37,1,1,24,"P 91","","",TRUE,"CV","q",894,"cv","P","1","c","c",TRUE,1
"15","CVOE updated",37,1,1,25,"E 19","","",FALSE,"CV","p",1081,"cv","E","9","v","v",TRUE,1
"16","CVOE updated",37,1,1,26,"I 30","","",TRUE,"CV","q",1009,"cv","I","0","v","c",FALSE,0
"17","CVOE updated",37,1,1,27,"D 91","","",TRUE,"CV","q",1045,"cv","D","1","c","c",TRUE,1
"18","CVOE updated",37,1,1,28,"O 48","","",TRUE,"CV","p",589,"cv","O","8","v","v",TRUE,1
"19","CVOE updated",37,1,1,29,"A 89","","",FALSE,"CV","p",651,"cv","A","9","v","v",TRUE,1
"20","CVOE updated",37,1,1,30,"U 11","","",FALSE,"CV","p",806,"cv","U","1","v","v",TRUE,1
"21","CVOE updated",37,1,1,31,"I 76","","",TRUE,"CV","p",631,"cv","I","6","v","v",TRUE,1
"22","CVOE updated",37,1,1,32,"U 89","","",FALSE,"CV","p",580,"cv","U","9","v","v",TRUE,1
"23","CVOE updated",37,1,1,33,"D 63","","",TRUE,"CV","q",602,"cv","D","3","c","c",TRUE,1
"24","CVOE updated",37,1,1,34,"H 70","","",FALSE,"CV","q",1115,"cv","H","0","c","c",TRUE,1
"25","CVOE updated",37,1,1,35,"D 48","","",FALSE,"CV","q",955,"cv","D","8","c","c",TRUE,1
"26","CVOE updated",37,1,1,36,"P 56","","",FALSE,"CV","q",1236,"cv","P","6","c","c",TRUE,1
"27","CVOE updated",37,1,1,37,"O 77","","",FALSE,"CV","p",1037,"cv","O","7","v","v",TRUE,1
"28","CVOE updated",37,1,1,38,"P 42","","",FALSE,"CV","q",917,"cv","P","2","c","c",TRUE,1
"29","CVOE updated",37,1,1,39,"H 22","","",FALSE,"CV","q",1286,"cv","H","2","c","c",TRUE,1
"30","CVOE updated",37,1,1,40,"E 42","","",TRUE,"CV","p",726,"cv","E","2","v","v",TRUE,1
"31","CVOE updated",37,1,1,41,"J 28","","",FALSE,"CV","q",1183,"cv","J","8","c","c",TRUE,1
"32","CVOE updated",37,1,1,42,"E 95","","",FALSE,"CV","p",781,"cv","E","5","v","v",TRUE,1
"33","CVOE updated",37,1,1,43,"S 63","","",TRUE,"CV","q",1043,"cv","S","3","c","c",TRUE,1
"34","CVOE updated",37,1,1,44,"H 50","","",FALSE,"CV","q",1259,"cv","H","0","c","c",TRUE,1
"35","CVOE updated",37,1,1,45,"S 33","","",TRUE,"CV","q",1151,"cv","S","3","c","c",TRUE,1
"36","CVOE updated",37,1,1,46,"P 57","","",TRUE,"CV","q",565,"cv","P","7","c","c",TRUE,1
"37","CVOE updated",37,1,1,47,"E 23","","",FALSE,"CV","p",805,"cv","E","3","v","v",TRUE,1
"38","CVOE updated",37,1,1,48,"S 61","","",TRUE,"CV","q",517,"cv","S","1","c","c",TRUE,1
"39","CVOE updated",37,1,1,49,"U 67","","",FALSE,"CV","p",910,"cv","U","7","v","v",TRUE,1
"40","CVOE updated",37,1,1,50,"H 32","","",FALSE,"CV","q",596,"cv","H","2","c","c",TRUE,1
"41","CVOE updated",37,1,1,51,"U 50","","",TRUE,"CV","p",836,"cv","U","0","v","v",TRUE,1
"42","CVOE updated",37,1,1,52,"O 49","","",FALSE,"CV","p",757,"cv","O","9","v","v",TRUE,1
"43","CVOE updated",37,1,1,53,"U 32","","",TRUE,"CV","p",589,"cv","U","2","v","v",TRUE,1
"44","CVOE updated",37,1,1,54,"J 78","","",FALSE,"CV","q",595,"cv","J","8","c","c",TRUE,1
"45","CVOE updated",37,1,1,55,"S 54","","",FALSE,"CV","q",715,"cv","S","4","c","c",TRUE,1
"46","CVOE updated",37,1,1,56,"J 27","","",TRUE,"CV","q",548,"cv","J","7","c","c",TRUE,1
"47","CVOE updated",37,1,1,57,"S 06","","",FALSE,"CV","q",634,"cv","S","6","c","c",TRUE,1
"48","CVOE updated",37,1,1,58,"D 67","","",TRUE,"CV","q",695,"cv","D","7","c","c",TRUE,1
"49","CVOE updated",37,1,1,59,"A 79","","",FALSE,"CV","p",586,"cv","A","9","v","v",TRUE,1
"50","CVOE updated",37,1,1,60,"S 52","","",FALSE,"CV","q",624,"cv","S","2","c","c",TRUE,1
"51","CVOE updated",37,1,1,61,"U 16","","",TRUE,"CV","p",606,"cv","U","6","v","v",TRUE,1
"52","CVOE updated",37,1,1,62,"O 82","","",TRUE,"CV","p",646,"cv","O","2","v","v",TRUE,1
"53","CVOE updated",37,1,1,63,"H 87","","",TRUE,"CV","q",543,"cv","H","7","c","c",TRUE,1
"54","CVOE updated",37,1,1,64,"I 32","","",TRUE,"CV","p",765,"cv","I","2","v","v",TRUE,1
"55","CVOE updated",37,1,1,65,"U 37","","",FALSE,"CV","p",1093,"cv","U","7","v","v",TRUE,1
"56","CVOE updated",37,1,1,66,"I 42","","",TRUE,"CV","p",1152,"cv","I","2","v","v",TRUE,1
"57","CVOE updated",37,1,1,67,"D 65","","",TRUE,"CV","q",1182,"cv","D","5","c","c",TRUE,1
"58","CVOE updated",37,1,1,68,"U 77","","",FALSE,"CV","p",716,"cv","U","7","v","v",TRUE,1
"59","CVOE updated",37,1,1,69,"E 12","","",TRUE,"CV","p",2125,"cv","E","2","v","v",TRUE,1
"60","CVOE updated",37,1,1,70,"I 60","","",TRUE,"CV","p",1310,"cv","I","0","v","v",TRUE,1
"61","CVOE updated",37,1,1,71,"J 36","","",FALSE,"CV","q",660,"cv","J","6","c","c",TRUE,1
"62","CVOE updated",37,1,1,72,"H 75","","",TRUE,"CV","q",1351,"cv","H","5","c","c",TRUE,1
"63","CVOE updated",37,1,1,73,"I 50","","",TRUE,"CV","q",756,"cv","I","0","v","c",FALSE,0
"64","CVOE updated",37,1,1,74,"E 99","","",FALSE,"CV","p",862,"cv","E","9","v","v",TRUE,1
"65","CVOE updated",37,1,1,75,"A 86","","",TRUE,"CV","q",891,"cv","A","6","v","c",FALSE,0
"66","CVOE updated",37,1,1,76,"U 48","","",TRUE,"CV","q",999,"cv","U","8","v","c",FALSE,0
"67","CVOE updated",37,1,1,77,"E 01","","",FALSE,"CV","p",815,"cv","E","1","v","v",TRUE,1
"68","CVOE updated",37,1,1,78,"A 78","","",TRUE,"CV","p",730,"cv","A","8","v","v",TRUE,1
"69","CVOE updated",37,1,1,79,"P 60","","",FALSE,"CV","q",758,"cv","P","0","c","c",TRUE,1
"70","CVOE updated",37,1,1,80,"E 43","","",FALSE,"CV","p",710,"cv","E","3","v","v",TRUE,1
"71","CVOE updated",37,1,1,81,"D 69","","",TRUE,"CV","q",796,"cv","D","9","c","c",TRUE,1
"72","CVOE updated",37,1,1,82,"H 11","","",TRUE,"CV","q",1212,"cv","H","1","c","c",TRUE,1
"73","CVOE updated",37,1,1,83,"P 43","","",TRUE,"CV","q",880,"cv","P","3","c","c",TRUE,1
"74","CVOE updated",37,1,1,84,"O 67","","",FALSE,"CV","p",952,"cv","O","7","v","v",TRUE,1
"75","CVOE updated",37,1,1,85,"S 91","","",FALSE,"CV","q",973,"cv","S","1","c","c",TRUE,1
"76","CVOE updated",37,1,1,86,"J 68","","",TRUE,"CV","q",624,"cv","J","8","c","c",TRUE,1
"77","CVOE updated",37,1,1,87,"S 47","","",FALSE,"CV","q",527,"cv","S","7","c","c",TRUE,1
"78","CVOE updated",37,1,1,88,"I 81","","",TRUE,"CV","q",678,"cv","I","1","v","c",FALSE,0
"79","CVOE updated",37,1,1,89,"J 39","","",FALSE,"CV","q",760,"cv","J","9","c","c",TRUE,1
"80","CVOE updated",37,1,1,90,"A 11","","",TRUE,"CV","p",559,"cv","A","1","v","v",TRUE,1
"81","CVOE updated",37,1,1,91,"O 76","","",FALSE,"CV","p",616,"cv","O","6","v","v",TRUE,1
"82","CVOE updated",37,1,1,92,"A 62","","",FALSE,"CV","p",579,"cv","A","2","v","v",TRUE,1
"83","CVOE updated",37,1,1,93,"O 27","","",TRUE,"CV","p",710,"cv","O","7","v","v",TRUE,1
"84","CVOE updated",37,1,1,94,"E 66","","",FALSE,"CV","p",1364,"cv","E","6","v","v",TRUE,1
"85","CVOE updated",37,1,1,95,"J 62","","",TRUE,"CV","q",1493,"cv","J","2","c","c",TRUE,1
"86","CVOE updated",37,1,1,96,"H 72","","",TRUE,"CV","q",632,"cv","H","2","c","c",TRUE,1
"87","CVOE updated",37,1,1,97,"E 49","","",TRUE,"CV","p",614,"cv","E","9","v","v",TRUE,1
"88","CVOE updated",37,1,1,98,"D 52","","",TRUE,"CV","q",1314,"cv","D","2","c","c",TRUE,1
"89","CVOE updated",37,1,1,99,"H 62","","",TRUE,"CV","q",1387,"cv","H","2","c","c",TRUE,1
"90","CVOE updated",37,1,1,100,"I 11","","",TRUE,"CV","p",737,"cv","I","1","v","v",TRUE,1
"91","CVOE updated",37,1,1,101,"A 98","","",FALSE,"CV","p",579,"cv","A","8","v","v",TRUE,1
"92","CVOE updated",37,1,1,102,"H 29","","",FALSE,"CV","q",854,"cv","H","9","c","c",TRUE,1
"93","CVOE updated",37,1,1,103,"E 83","","",TRUE,"CV","p",2353,"cv","E","3","v","v",TRUE,1
"94","CVOE updated",37,1,1,104,"D 43","","",FALSE,"CV","q",850,"cv","D","3","c","c",TRUE,1
"95","CVOE updated",37,1,1,105,"P 45","","",TRUE,"CV","q",1046,"cv","P","5","c","c",TRUE,1
"96","CVOE updated",37,1,1,106,"J 17","","",TRUE,"CV","p",1102,"cv","J","7","c","v",FALSE,0
"433","CVOE updated",41,1,1,11,"A 71","","",FALSE,"CV","p",1422,"cv","A","1","v","v",TRUE,1
"434","CVOE updated",41,1,1,12,"I 66","","",TRUE,"CV","q",797,"cv","I","6","v","c",FALSE,0
"435","CVOE updated",41,1,1,13,"S 30","","",FALSE,"CV","q",1007,"cv","S","0","c","c",TRUE,1
"436","CVOE updated",41,1,1,14,"D 20","","",FALSE,"CV","q",684,"cv","D","0","c","c",TRUE,1
"437","CVOE updated",41,1,1,15,"I 31","","",FALSE,"CV","p",389,"cv","I","1","v","v",TRUE,1
"438","CVOE updated",41,1,1,16,"P 16","","",FALSE,"CV","q",665,"cv","P","6","c","c",TRUE,1
"439","CVOE updated",41,1,1,17,"A 49","","",FALSE,"CV","p",1053,"cv","A","9","v","v",TRUE,1
"440","CVOE updated",41,1,1,18,"O 64","","",TRUE,"CV","p",570,"cv","O","4","v","v",TRUE,1
"441","CVOE updated",41,1,1,19,"D 02","","",FALSE,"CV","q",450,"cv","D","2","c","c",TRUE,1
"442","CVOE updated",41,1,1,20,"P 81","","",TRUE,"CV","q",674,"cv","P","1","c","c",TRUE,1
"443","CVOE updated",41,1,1,21,"J 58","","",FALSE,"CV","q",547,"cv","J","8","c","c",TRUE,1
"444","CVOE updated",41,1,1,22,"A 22","","",TRUE,"CV","p",514,"cv","A","2","v","v",TRUE,1
"445","CVOE updated",41,1,1,23,"J 72","","",FALSE,"CV","q",449,"cv","J","2","c","c",TRUE,1
"446","CVOE updated",41,1,1,24,"P 91","","",TRUE,"CV","q",536,"cv","P","1","c","c",TRUE,1
"447","CVOE updated",41,1,1,25,"E 19","","",FALSE,"CV","p",480,"cv","E","9","v","v",TRUE,1
"448","CVOE updated",41,1,1,26,"I 30","","",TRUE,"CV","p",606,"cv","I","0","v","v",TRUE,1
"449","CVOE updated",41,1,1,27,"D 91","","",TRUE,"CV","q",496,"cv","D","1","c","c",TRUE,1
"450","CVOE updated",41,1,1,28,"O 48","","",TRUE,"CV","p",498,"cv","O","8","v","v",TRUE,1
"451","CVOE updated",41,1,1,29,"A 89","","",FALSE,"CV","p",569,"cv","A","9","v","v",TRUE,1
"452","CVOE updated",41,1,1,30,"U 11","","",FALSE,"CV","q",425,"cv","U","1","v","c",FALSE,0
"453","CVOE updated",41,1,1,31,"I 76","","",TRUE,"CV","p",489,"cv","I","6","v","v",TRUE,1
"454","CVOE updated",41,1,1,32,"U 89","","",FALSE,"CV","p",362,"cv","U","9","v","v",TRUE,1
"455","CVOE updated",41,1,1,33,"D 63","","",TRUE,"CV","q",517,"cv","D","3","c","c",TRUE,1
"456","CVOE updated",41,1,1,34,"H 70","","",FALSE,"CV","q",472,"cv","H","0","c","c",TRUE,1
"457","CVOE updated",41,1,1,35,"D 48","","",FALSE,"CV","p",353,"cv","D","8","c","v",FALSE,0
"458","CVOE updated",41,1,1,36,"P 56","","",FALSE,"CV","q",846,"cv","P","6","c","c",TRUE,1
"459","CVOE updated",41,1,1,37,"O 77","","",FALSE,"CV","p",485,"cv","O","7","v","v",TRUE,1
"460","CVOE updated",41,1,1,38,"P 42","","",FALSE,"CV","q",606,"cv","P","2","c","c",TRUE,1
"461","CVOE updated",41,1,1,39,"H 22","","",FALSE,"CV","q",632,"cv","H","2","c","c",TRUE,1
"462","CVOE updated",41,1,1,40,"E 42","","",TRUE,"CV","p",499,"cv","E","2","v","v",TRUE,1
"463","CVOE updated",41,1,1,41,"J 28","","",FALSE,"CV","q",510,"cv","J","8","c","c",TRUE,1
"464","CVOE updated",41,1,1,42,"E 95","","",FALSE,"CV","p",471,"cv","E","5","v","v",TRUE,1
"465","CVOE updated",41,1,1,43,"S 63","","",TRUE,"CV","q",468,"cv","S","3","c","c",TRUE,1
"466","CVOE updated",41,1,1,44,"H 50","","",FALSE,"CV","p",447,"cv","H","0","c","v",FALSE,0
"467","CVOE updated",41,1,1,45,"S 33","","",TRUE,"CV","q",705,"cv","S","3","c","c",TRUE,1
"468","CVOE updated",41,1,1,46,"P 57","","",TRUE,"CV","q",442,"cv","P","7","c","c",TRUE,1
"469","CVOE updated",41,1,1,47,"E 23","","",FALSE,"CV","p",365,"cv","E","3","v","v",TRUE,1
"470","CVOE updated",41,1,1,48,"S 61","","",TRUE,"CV","q",509,"cv","S","1","c","c",TRUE,1
"471","CVOE updated",41,1,1,49,"U 67","","",FALSE,"CV","p",574,"cv","U","7","v","v",TRUE,1
"472","CVOE updated",41,1,1,50,"H 32","","",FALSE,"CV","q",458,"cv","H","2","c","c",TRUE,1
"473","CVOE updated",41,1,1,51,"U 50","","",TRUE,"CV","p",557,"cv","U","0","v","v",TRUE,1
"474","CVOE updated",41,1,1,52,"O 49","","",FALSE,"CV","p",531,"cv","O","9","v","v",TRUE,1
"475","CVOE updated",41,1,1,53,"U 32","","",TRUE,"CV","p",394,"cv","U","2","v","v",TRUE,1
"476","CVOE updated",41,1,1,54,"J 78","","",FALSE,"CV","q",430,"cv","J","8","c","c",TRUE,1
"477","CVOE updated",41,1,1,55,"S 54","","",FALSE,"CV","p",400,"cv","S","4","c","v",FALSE,0
"478","CVOE updated",41,1,1,56,"J 27","","",TRUE,"CV","q",436,"cv","J","7","c","c",TRUE,1
"479","CVOE updated",41,1,1,57,"S 06","","",FALSE,"CV","q",430,"cv","S","6","c","c",TRUE,1
"480","CVOE updated",41,1,1,58,"D 67","","",TRUE,"CV","q",466,"cv","D","7","c","c",TRUE,1
"481","CVOE updated",41,1,1,59,"A 79","","",FALSE,"CV","p",520,"cv","A","9","v","v",TRUE,1
"482","CVOE updated",41,1,1,60,"S 52","","",FALSE,"CV","q",434,"cv","S","2","c","c",TRUE,1
"483","CVOE updated",41,1,1,61,"U 16","","",TRUE,"CV","p",718,"cv","U","6","v","v",TRUE,1
"484","CVOE updated",41,1,1,62,"O 82","","",TRUE,"CV","q",418,"cv","O","2","v","c",FALSE,0
"485","CVOE updated",41,1,1,63,"H 87","","",TRUE,"CV","q",424,"cv","H","7","c","c",TRUE,1
"486","CVOE updated",41,1,1,64,"I 32","","",TRUE,"CV","p",541,"cv","I","2","v","v",TRUE,1
"487","CVOE updated",41,1,1,65,"U 37","","",FALSE,"CV","p",455,"cv","U","7","v","v",TRUE,1
"488","CVOE updated",41,1,1,66,"I 42","","",TRUE,"CV","p",277,"cv","I","2","v","v",TRUE,1
"489","CVOE updated",41,1,1,67,"D 65","","",TRUE,"CV","q",408,"cv","D","5","c","c",TRUE,1
"490","CVOE updated",41,1,1,68,"U 77","","",FALSE,"CV","p",488,"cv","U","7","v","v",TRUE,1
"491","CVOE updated",41,1,1,69,"E 12","","",TRUE,"CV","p",304,"cv","E","2","v","v",TRUE,1
"492","CVOE updated",41,1,1,70,"I 60","","",TRUE,"CV","p",272,"cv","I","0","v","v",TRUE,1
"493","CVOE updated",41,1,1,71,"J 36","","",FALSE,"CV","q",458,"cv","J","6","c","c",TRUE,1
"494","CVOE updated",41,1,1,72,"H 75","","",TRUE,"CV","p",429,"cv","H","5","c","v",FALSE,0
"495","CVOE updated",41,1,1,73,"I 50","","",TRUE,"CV","p",477,"cv","I","0","v","v",TRUE,1
"496","CVOE updated",41,1,1,74,"E 99","","",FALSE,"CV","q",371,"cv","E","9","v","c",FALSE,0
"497","CVOE updated",41,1,1,75,"A 86","","",TRUE,"CV","p",450,"cv","A","6","v","v",TRUE,1
"498","CVOE updated",41,1,1,76,"U 48","","",TRUE,"CV","p",510,"cv","U","8","v","v",TRUE,1
"499","CVOE updated",41,1,1,77,"E 01","","",FALSE,"CV","p",338,"cv","E","1","v","v",TRUE,1
"500","CVOE updated",41,1,1,78,"A 78","","",TRUE,"CV","p",240,"cv","A","8","v","v",TRUE,1
"501","CVOE updated",41,1,1,79,"P 60","","",FALSE,"CV","q",376,"cv","P","0","c","c",TRUE,1
"502","CVOE updated",41,1,1,80,"E 43","","",FALSE,"CV","p",377,"cv","E","3","v","v",TRUE,1
"503","CVOE updated",41,1,1,81,"D 69","","",TRUE,"CV","q",422,"cv","D","9","c","c",TRUE,1
"504","CVOE updated",41,1,1,82,"H 11","","",TRUE,"CV","p",506,"cv","H","1","c","v",FALSE,0
"505","CVOE updated",41,1,1,83,"P 43","","",TRUE,"CV","q",666,"cv","P","3","c","c",TRUE,1
"506","CVOE updated",41,1,1,84,"O 67","","",FALSE,"CV","p",461,"cv","O","7","v","v",TRUE,1
"507","CVOE updated",41,1,1,85,"S 91","","",FALSE,"CV","q",468,"cv","S","1","c","c",TRUE,1
"508","CVOE updated",41,1,1,86,"J 68","","",TRUE,"CV","q",433,"cv","J","8","c","c",TRUE,1
"509","CVOE updated",41,1,1,87,"S 47","","",FALSE,"CV","q",401,"cv","S","7","c","c",TRUE,1
"510","CVOE updated",41,1,1,88,"I 81","","",TRUE,"CV","p",407,"cv","I","1","v","v",TRUE,1
"511","CVOE updated",41,1,1,89,"J 39","","",FALSE,"CV","q",478,"cv","J","9","c","c",TRUE,1
"512","CVOE updated",41,1,1,90,"A 11","","",TRUE,"CV","p",489,"cv","A","1","v","v",TRUE,1
"513","CVOE updated",41,1,1,91,"O 76","","",FALSE,"CV","p",564,"cv","O","6","v","v",TRUE,1
"514","CVOE updated",41,1,1,92,"A 62","","",FALSE,"CV","p",476,"cv","A","2","v","v",TRUE,1
"515","CVOE updated",41,1,1,93,"O 27","","",TRUE,"CV","p",564,"cv","O","7","v","v",TRUE,1
"516","CVOE updated",41,1,1,94,"E 66","","",FALSE,"CV","p",318,"cv","E","6","v","v",TRUE,1
"517","CVOE updated",41,1,1,95,"J 62","","",TRUE,"CV","q",417,"cv","J","2","c","c",TRUE,1
"518","CVOE updated",41,1,1,96,"H 72","","",TRUE,"CV","p",499,"cv","H","2","c","v",FALSE,0
"519","CVOE updated",41,1,1,97,"E 49","","",TRUE,"CV","p",381,"cv","E","9","v","v",TRUE,1
"520","CVOE updated",41,1,1,98,"D 52","","",TRUE,"CV","q",481,"cv","D","2","c","c",TRUE,1
"521","CVOE updated",41,1,1,99,"H 62","","",TRUE,"CV","q",458,"cv","H","2","c","c",TRUE,1
"522","CVOE updated",41,1,1,100,"I 11","","",TRUE,"CV","p",454,"cv","I","1","v","v",TRUE,1
"523","CVOE updated",41,1,1,101,"A 98","","",FALSE,"CV","p",426,"cv","A","8","v","v",TRUE,1
"524","CVOE updated",41,1,1,102,"H 29","","",FALSE,"CV","q",426,"cv","H","9","c","c",TRUE,1
"525","CVOE updated",41,1,1,103,"E 83","","",TRUE,"CV","p",437,"cv","E","3","v","v",TRUE,1
"526","CVOE updated",41,1,1,104,"D 43","","",FALSE,"CV","q",311,"cv","D","3","c","c",TRUE,1
"527","CVOE updated",41,1,1,105,"P 45","","",TRUE,"CV","q",561,"cv","P","5","c","c",TRUE,1
"528","CVOE updated",41,1,1,106,"J 17","","",TRUE,"CV","q",332,"cv","J","7","c","c",TRUE,1
"961","CVOE_B",34,1,2,11,"A 71","","",FALSE,"CV","p",1378,"cv","A","1","v","v",TRUE,1
"962","CVOE_B",34,1,2,12,"I 66","","",TRUE,"CV","p",1238,"cv","I","6","v","v",TRUE,1
"963","CVOE_B",34,1,2,13,"S 30","","",FALSE,"CV","q",592,"cv","S","0","c","c",TRUE,1
"964","CVOE_B",34,1,2,14,"D 20","","",FALSE,"CV","q",691,"cv","D","0","c","c",TRUE,1
"965","CVOE_B",34,1,2,15,"I 31","","",FALSE,"CV","p",490,"cv","I","1","v","v",TRUE,1
"966","CVOE_B",34,1,2,16,"P 16","","",FALSE,"CV","q",463,"cv","P","6","c","c",TRUE,1
"967","CVOE_B",34,1,2,17,"A 49","","",FALSE,"CV","p",417,"cv","A","9","v","v",TRUE,1
"968","CVOE_B",34,1,2,18,"O 64","","",TRUE,"CV","p",685,"cv","O","4","v","v",TRUE,1
"969","CVOE_B",34,1,2,19,"D 02","","",FALSE,"CV","q",546,"cv","D","2","c","c",TRUE,1
"970","CVOE_B",34,1,2,20,"P 81","","",TRUE,"CV","q",905,"cv","P","1","c","c",TRUE,1
"971","CVOE_B",34,1,2,21,"J 58","","",FALSE,"CV","q",574,"cv","J","8","c","c",TRUE,1
"972","CVOE_B",34,1,2,22,"A 22","","",TRUE,"CV","p",483,"cv","A","2","v","v",TRUE,1
"973","CVOE_B",34,1,2,23,"J 72","","",FALSE,"CV","q",530,"cv","J","2","c","c",TRUE,1
"974","CVOE_B",34,1,2,24,"P 91","","",TRUE,"CV","q",593,"cv","P","1","c","c",TRUE,1
"975","CVOE_B",34,1,2,25,"E 19","","",FALSE,"CV","p",409,"cv","E","9","v","v",TRUE,1
"976","CVOE_B",34,1,2,26,"I 30","","",TRUE,"CV","p",516,"cv","I","0","v","v",TRUE,1
"977","CVOE_B",34,1,2,27,"D 91","","",TRUE,"CV","q",500,"cv","D","1","c","c",TRUE,1
"978","CVOE_B",34,1,2,28,"O 48","","",TRUE,"CV","p",513,"cv","O","8","v","v",TRUE,1
"979","CVOE_B",34,1,2,29,"A 89","","",FALSE,"CV","p",465,"cv","A","9","v","v",TRUE,1
"980","CVOE_B",34,1,2,30,"U 11","","",FALSE,"CV","p",476,"cv","U","1","v","v",TRUE,1
"981","CVOE_B",34,1,2,31,"I 76","","",TRUE,"CV","p",587,"cv","I","6","v","v",TRUE,1
"982","CVOE_B",34,1,2,32,"U 89","","",FALSE,"CV","p",528,"cv","U","9","v","v",TRUE,1
"983","CVOE_B",34,1,2,33,"D 63","","",TRUE,"CV","q",578,"cv","D","3","c","c",TRUE,1
"984","CVOE_B",34,1,2,34,"H 70","","",FALSE,"CV","q",559,"cv","H","0","c","c",TRUE,1
"985","CVOE_B",34,1,2,35,"D 48","","",FALSE,"CV","p",489,"cv","D","8","c","v",FALSE,0
"986","CVOE_B",34,1,2,36,"P 56","","",FALSE,"CV","q",722,"cv","P","6","c","c",TRUE,1
"987","CVOE_B",34,1,2,37,"O 77","","",FALSE,"CV","p",686,"cv","O","7","v","v",TRUE,1
"988","CVOE_B",34,1,2,38,"P 42","","",FALSE,"CV","q",524,"cv","P","2","c","c",TRUE,1
"989","CVOE_B",34,1,2,39,"H 22","","",FALSE,"CV","q",578,"cv","H","2","c","c",TRUE,1
"990","CVOE_B",34,1,2,40,"E 42","","",TRUE,"CV","p",613,"cv","E","2","v","v",TRUE,1
"991","CVOE_B",34,1,2,41,"J 28","","",FALSE,"CV","q",595,"cv","J","8","c","c",TRUE,1
"992","CVOE_B",34,1,2,42,"E 95","","",FALSE,"CV","p",938,"cv","E","5","v","v",TRUE,1
"993","CVOE_B",34,1,2,43,"S 63","","",TRUE,"CV","q",498,"cv","S","3","c","c",TRUE,1
"994","CVOE_B",34,1,2,44,"H 50","","",FALSE,"CV","q",781,"cv","H","0","c","c",TRUE,1
"995","CVOE_B",34,1,2,45,"S 33","","",TRUE,"CV","q",589,"cv","S","3","c","c",TRUE,1
"996","CVOE_B",34,1,2,46,"P 57","","",TRUE,"CV","q",887,"cv","P","7","c","c",TRUE,1
"997","CVOE_B",34,1,2,47,"E 23","","",FALSE,"CV","p",563,"cv","E","3","v","v",TRUE,1
"998","CVOE_B",34,1,2,48,"S 61","","",TRUE,"CV","q",505,"cv","S","1","c","c",TRUE,1
"999","CVOE_B",34,1,2,49,"U 67","","",FALSE,"CV","p",606,"cv","U","7","v","v",TRUE,1
"1000","CVOE_B",34,1,2,50,"H 32","","",FALSE,"CV","q",529,"cv","H","2","c","c",TRUE,1
"1001","CVOE_B",34,1,2,51,"U 50","","",TRUE,"CV","p",447,"cv","U","0","v","v",TRUE,1
"1002","CVOE_B",34,1,2,52,"O 49","","",FALSE,"CV","p",516,"cv","O","9","v","v",TRUE,1
"1003","CVOE_B",34,1,2,53,"U 32","","",TRUE,"CV","p",491,"cv","U","2","v","v",TRUE,1
"1004","CVOE_B",34,1,2,54,"J 78","","",FALSE,"CV","q",467,"cv","J","8","c","c",TRUE,1
"1005","CVOE_B",34,1,2,55,"S 54","","",FALSE,"CV","q",525,"cv","S","4","c","c",TRUE,1
"1006","CVOE_B",34,1,2,56,"J 27","","",TRUE,"CV","q",450,"cv","J","7","c","c",TRUE,1
"1007","CVOE_B",34,1,2,57,"S 06","","",FALSE,"CV","q",513,"cv","S","6","c","c",TRUE,1
"1008","CVOE_B",34,1,2,58,"D 67","","",TRUE,"CV","q",751,"cv","D","7","c","c",TRUE,1
"1009","CVOE_B",34,1,2,59,"A 79","","",FALSE,"CV","p",542,"cv","A","9","v","v",TRUE,1
"1010","CVOE_B",34,1,2,60,"S 52","","",FALSE,"CV","q",483,"cv","S","2","c","c",TRUE,1
"1011","CVOE_B",34,1,2,61,"U 16","","",TRUE,"CV","p",557,"cv","U","6","v","v",TRUE,1
"1012","CVOE_B",34,1,2,62,"O 82","","",TRUE,"CV","p",558,"cv","O","2","v","v",TRUE,1
"1013","CVOE_B",34,1,2,63,"H 87","","",TRUE,"CV","q",638,"cv","H","7","c","c",TRUE,1
"1014","CVOE_B",34,1,2,64,"I 32","","",TRUE,"CV","p",530,"cv","I","2","v","v",TRUE,1
"1015","CVOE_B",34,1,2,65,"U 37","","",FALSE,"CV","p",553,"cv","U","7","v","v",TRUE,1
"1016","CVOE_B",34,1,2,66,"I 42","","",TRUE,"CV","p",912,"cv","I","2","v","v",TRUE,1
"1017","CVOE_B",34,1,2,67,"D 65","","",TRUE,"CV","q",512,"cv","D","5","c","c",TRUE,1
"1018","CVOE_B",34,1,2,68,"U 77","","",FALSE,"CV","p",501,"cv","U","7","v","v",TRUE,1
"1019","CVOE_B",34,1,2,69,"E 12","","",TRUE,"CV","p",480,"cv","E","2","v","v",TRUE,1
"1020","CVOE_B",34,1,2,70,"I 60","","",TRUE,"CV","p",1356,"cv","I","0","v","v",TRUE,1
"1021","CVOE_B",34,1,2,71,"J 36","","",FALSE,"CV","q",1092,"cv","J","6","c","c",TRUE,1
"1022","CVOE_B",34,1,2,72,"H 75","","",TRUE,"CV","q",806,"cv","H","5","c","c",TRUE,1
"1023","CVOE_B",34,1,2,73,"I 50","","",TRUE,"CV","p",597,"cv","I","0","v","v",TRUE,1
"1024","CVOE_B",34,1,2,74,"E 99","","",FALSE,"CV","p",471,"cv","E","9","v","v",TRUE,1
"1025","CVOE_B",34,1,2,75,"A 86","","",TRUE,"CV","p",520,"cv","A","6","v","v",TRUE,1
"1026","CVOE_B",34,1,2,76,"U 48","","",TRUE,"CV","p",517,"cv","U","8","v","v",TRUE,1
"1027","CVOE_B",34,1,2,77,"E 01","","",FALSE,"CV","p",575,"cv","E","1","v","v",TRUE,1
"1028","CVOE_B",34,1,2,78,"A 78","","",TRUE,"CV","p",597,"cv","A","8","v","v",TRUE,1
"1029","CVOE_B",34,1,2,79,"P 60","","",FALSE,"CV","q",502,"cv","P","0","c","c",TRUE,1
"1030","CVOE_B",34,1,2,80,"E 43","","",FALSE,"CV","p",507,"cv","E","3","v","v",TRUE,1
"1031","CVOE_B",34,1,2,81,"D 69","","",TRUE,"CV","q",870,"cv","D","9","c","c",TRUE,1
"1032","CVOE_B",34,1,2,82,"H 11","","",TRUE,"CV","q",641,"cv","H","1","c","c",TRUE,1
"1033","CVOE_B",34,1,2,83,"P 43","","",TRUE,"CV","q",662,"cv","P","3","c","c",TRUE,1
"1034","CVOE_B",34,1,2,84,"O 67","","",FALSE,"CV","p",451,"cv","O","7","v","v",TRUE,1
"1035","CVOE_B",34,1,2,85,"S 91","","",FALSE,"CV","q",583,"cv","S","1","c","c",TRUE,1
"1036","CVOE_B",34,1,2,86,"J 68","","",TRUE,"CV","q",652,"cv","J","8","c","c",TRUE,1
"1037","CVOE_B",34,1,2,87,"S 47","","",FALSE,"CV","q",590,"cv","S","7","c","c",TRUE,1
"1038","CVOE_B",34,1,2,88,"I 81","","",TRUE,"CV","p",534,"cv","I","1","v","v",TRUE,1
"1039","CVOE_B",34,1,2,89,"J 39","","",FALSE,"CV","q",901,"cv","J","9","c","c",TRUE,1
"1040","CVOE_B",34,1,2,90,"A 11","","",TRUE,"CV","p",547,"cv","A","1","v","v",TRUE,1
"1041","CVOE_B",34,1,2,91,"O 76","","",FALSE,"CV","p",435,"cv","O","6","v","v",TRUE,1
"1042","CVOE_B",34,1,2,92,"A 62","","",FALSE,"CV","p",512,"cv","A","2","v","v",TRUE,1
"1043","CVOE_B",34,1,2,93,"O 27","","",TRUE,"CV","p",445,"cv","O","7","v","v",TRUE,1
"1044","CVOE_B",34,1,2,94,"E 66","","",FALSE,"CV","p",474,"cv","E","6","v","v",TRUE,1
"1045","CVOE_B",34,1,2,95,"J 62","","",TRUE,"CV","q",606,"cv","J","2","c","c",TRUE,1
"1046","CVOE_B",34,1,2,96,"H 72","","",TRUE,"CV","q",619,"cv","H","2","c","c",TRUE,1
"1047","CVOE_B",34,1,2,97,"E 49","","",TRUE,"CV","p",528,"cv","E","9","v","v",TRUE,1
"1048","CVOE_B",34,1,2,98,"D 52","","",TRUE,"CV","q",576,"cv","D","2","c","c",TRUE,1
"1049","CVOE_B",34,1,2,99,"H 62","","",TRUE,"CV","q",613,"cv","H","2","c","c",TRUE,1
"1050","CVOE_B",34,1,2,100,"I 11","","",TRUE,"CV","p",579,"cv","I","1","v","v",TRUE,1
"1051","CVOE_B",34,1,2,101,"A 98","","",FALSE,"CV","p",606,"cv","A","8","v","v",TRUE,1
"1052","CVOE_B",34,1,2,102,"H 29","","",FALSE,"CV","q",499,"cv","H","9","c","c",TRUE,1
"1053","CVOE_B",34,1,2,103,"E 83","","",TRUE,"CV","p",473,"cv","E","3","v","v",TRUE,1
"1054","CVOE_B",34,1,2,104,"D 43","","",FALSE,"CV","q",571,"cv","D","3","c","c",TRUE,1
"1055","CVOE_B",34,1,2,105,"P 45","","",TRUE,"CV","q",556,"cv","P","5","c","c",TRUE,1
"1056","CVOE_B",34,1,2,106,"J 17","","",TRUE,"CV","q",558,"cv","J","7","c","c",TRUE,1
"1393","CVOE_B",38,1,2,11,"A 71","","",FALSE,"CV","p",1315,"cv","A","1","v","v",TRUE,1
"1394","CVOE_B",38,1,2,12,"I 66","","",TRUE,"CV","p",523,"cv","I","6","v","v",TRUE,1
"1395","CVOE_B",38,1,2,13,"S 30","","",FALSE,"CV","q",532,"cv","S","0","c","c",TRUE,1
"1396","CVOE_B",38,1,2,14,"D 20","","",FALSE,"CV","q",647,"cv","D","0","c","c",TRUE,1
"1397","CVOE_B",38,1,2,15,"I 31","","",FALSE,"CV","p",530,"cv","I","1","v","v",TRUE,1
"1398","CVOE_B",38,1,2,16,"P 16","","",FALSE,"CV","q",581,"cv","P","6","c","c",TRUE,1
"1399","CVOE_B",38,1,2,17,"A 49","","",FALSE,"CV","p",491,"cv","A","9","v","v",TRUE,1
"1400","CVOE_B",38,1,2,18,"O 64","","",TRUE,"CV","p",574,"cv","O","4","v","v",TRUE,1
"1401","CVOE_B",38,1,2,19,"D 02","","",FALSE,"CV","q",521,"cv","D","2","c","c",TRUE,1
"1402","CVOE_B",38,1,2,20,"P 81","","",TRUE,"CV","q",505,"cv","P","1","c","c",TRUE,1
"1403","CVOE_B",38,1,2,21,"J 58","","",FALSE,"CV","q",471,"cv","J","8","c","c",TRUE,1
"1404","CVOE_B",38,1,2,22,"A 22","","",TRUE,"CV","p",573,"cv","A","2","v","v",TRUE,1
"1405","CVOE_B",38,1,2,23,"J 72","","",FALSE,"CV","q",512,"cv","J","2","c","c",TRUE,1
"1406","CVOE_B",38,1,2,24,"P 91","","",TRUE,"CV","q",518,"cv","P","1","c","c",TRUE,1
"1407","CVOE_B",38,1,2,25,"E 19","","",FALSE,"CV","p",518,"cv","E","9","v","v",TRUE,1
"1408","CVOE_B",38,1,2,26,"I 30","","",TRUE,"CV","p",494,"cv","I","0","v","v",TRUE,1
"1409","CVOE_B",38,1,2,27,"D 91","","",TRUE,"CV","q",506,"cv","D","1","c","c",TRUE,1
"1410","CVOE_B",38,1,2,28,"O 48","","",TRUE,"CV","p",367,"cv","O","8","v","v",TRUE,1
"1411","CVOE_B",38,1,2,29,"A 89","","",FALSE,"CV","p",482,"cv","A","9","v","v",TRUE,1
"1412","CVOE_B",38,1,2,30,"U 11","","",FALSE,"CV","p",507,"cv","U","1","v","v",TRUE,1
"1413","CVOE_B",38,1,2,31,"I 76","","",TRUE,"CV","p",432,"cv","I","6","v","v",TRUE,1
"1414","CVOE_B",38,1,2,32,"U 89","","",FALSE,"CV","p",510,"cv","U","9","v","v",TRUE,1
"1415","CVOE_B",38,1,2,33,"D 63","","",TRUE,"CV","q",468,"cv","D","3","c","c",TRUE,1
"1416","CVOE_B",38,1,2,34,"H 70","","",FALSE,"CV","q",497,"cv","H","0","c","c",TRUE,1
"1417","CVOE_B",38,1,2,35,"D 48","","",FALSE,"CV","q",469,"cv","D","8","c","c",TRUE,1
"1418","CVOE_B",38,1,2,36,"P 56","","",FALSE,"CV","q",514,"cv","P","6","c","c",TRUE,1
"1419","CVOE_B",38,1,2,37,"O 77","","",FALSE,"CV","p",603,"cv","O","7","v","v",TRUE,1
"1420","CVOE_B",38,1,2,38,"P 42","","",FALSE,"CV","q",475,"cv","P","2","c","c",TRUE,1
"1421","CVOE_B",38,1,2,39,"H 22","","",FALSE,"CV","q",539,"cv","H","2","c","c",TRUE,1
"1422","CVOE_B",38,1,2,40,"E 42","","",TRUE,"CV","p",647,"cv","E","2","v","v",TRUE,1
"1423","CVOE_B",38,1,2,41,"J 28","","",FALSE,"CV","q",482,"cv","J","8","c","c",TRUE,1
"1424","CVOE_B",38,1,2,42,"E 95","","",FALSE,"CV","p",538,"cv","E","5","v","v",TRUE,1
"1425","CVOE_B",38,1,2,43,"S 63","","",TRUE,"CV","q",485,"cv","S","3","c","c",TRUE,1
"1426","CVOE_B",38,1,2,44,"H 50","","",FALSE,"CV","p",549,"cv","H","0","c","v",FALSE,0
"1427","CVOE_B",38,1,2,45,"S 33","","",TRUE,"CV","q",683,"cv","S","3","c","c",TRUE,1
"1428","CVOE_B",38,1,2,46,"P 57","","",TRUE,"CV","q",452,"cv","P","7","c","c",TRUE,1
"1429","CVOE_B",38,1,2,47,"E 23","","",FALSE,"CV","p",639,"cv","E","3","v","v",TRUE,1
"1430","CVOE_B",38,1,2,48,"S 61","","",TRUE,"CV","q",471,"cv","S","1","c","c",TRUE,1
"1431","CVOE_B",38,1,2,49,"U 67","","",FALSE,"CV","p",581,"cv","U","7","v","v",TRUE,1
"1432","CVOE_B",38,1,2,50,"H 32","","",FALSE,"CV","q",571,"cv","H","2","c","c",TRUE,1
"1433","CVOE_B",38,1,2,51,"U 50","","",TRUE,"CV","p",534,"cv","U","0","v","v",TRUE,1
"1434","CVOE_B",38,1,2,52,"O 49","","",FALSE,"CV","q",689,"cv","O","9","v","c",FALSE,0
"1435","CVOE_B",38,1,2,53,"U 32","","",TRUE,"CV","p",860,"cv","U","2","v","v",TRUE,1
"1436","CVOE_B",38,1,2,54,"J 78","","",FALSE,"CV","q",530,"cv","J","8","c","c",TRUE,1
"1437","CVOE_B",38,1,2,55,"S 54","","",FALSE,"CV","q",709,"cv","S","4","c","c",TRUE,1
"1438","CVOE_B",38,1,2,56,"J 27","","",TRUE,"CV","q",459,"cv","J","7","c","c",TRUE,1
"1439","CVOE_B",38,1,2,57,"S 06","","",FALSE,"CV","q",814,"cv","S","6","c","c",TRUE,1
"1440","CVOE_B",38,1,2,58,"D 67","","",TRUE,"CV","q",561,"cv","D","7","c","c",TRUE,1
"1441","CVOE_B",38,1,2,59,"A 79","","",FALSE,"CV","p",505,"cv","A","9","v","v",TRUE,1
"1442","CVOE_B",38,1,2,60,"S 52","","",FALSE,"CV","q",511,"cv","S","2","c","c",TRUE,1
"1443","CVOE_B",38,1,2,61,"U 16","","",TRUE,"CV","p",469,"cv","U","6","v","v",TRUE,1
"1444","CVOE_B",38,1,2,62,"O 82","","",TRUE,"CV","p",578,"cv","O","2","v","v",TRUE,1
"1445","CVOE_B",38,1,2,63,"H 87","","",TRUE,"CV","q",550,"cv","H","7","c","c",TRUE,1
"1446","CVOE_B",38,1,2,64,"I 32","","",TRUE,"CV","p",467,"cv","I","2","v","v",TRUE,1
"1447","CVOE_B",38,1,2,65,"U 37","","",FALSE,"CV","p",497,"cv","U","7","v","v",TRUE,1
"1448","CVOE_B",38,1,2,66,"I 42","","",TRUE,"CV","p",380,"cv","I","2","v","v",TRUE,1
"1449","CVOE_B",38,1,2,67,"D 65","","",TRUE,"CV","q",434,"cv","D","5","c","c",TRUE,1
"1450","CVOE_B",38,1,2,68,"U 77","","",FALSE,"CV","p",466,"cv","U","7","v","v",TRUE,1
"1451","CVOE_B",38,1,2,69,"E 12","","",TRUE,"CV","p",480,"cv","E","2","v","v",TRUE,1
"1452","CVOE_B",38,1,2,70,"I 60","","",TRUE,"CV","p",464,"cv","I","0","v","v",TRUE,1
"1453","CVOE_B",38,1,2,71,"J 36","","",FALSE,"CV","q",614,"cv","J","6","c","c",TRUE,1
"1454","CVOE_B",38,1,2,72,"H 75","","",TRUE,"CV","q",673,"cv","H","5","c","c",TRUE,1
"1455","CVOE_B",38,1,2,73,"I 50","","",TRUE,"CV","p",503,"cv","I","0","v","v",TRUE,1
"1456","CVOE_B",38,1,2,74,"E 99","","",FALSE,"CV","p",420,"cv","E","9","v","v",TRUE,1
"1457","CVOE_B",38,1,2,75,"A 86","","",TRUE,"CV","p",530,"cv","A","6","v","v",TRUE,1
"1458","CVOE_B",38,1,2,76,"U 48","","",TRUE,"CV","p",405,"cv","U","8","v","v",TRUE,1
"1459","CVOE_B",38,1,2,77,"E 01","","",FALSE,"CV","p",422,"cv","E","1","v","v",TRUE,1
"1460","CVOE_B",38,1,2,78,"A 78","","",TRUE,"CV","p",395,"cv","A","8","v","v",TRUE,1
"1461","CVOE_B",38,1,2,79,"P 60","","",FALSE,"CV","q",428,"cv","P","0","c","c",TRUE,1
"1462","CVOE_B",38,1,2,80,"E 43","","",FALSE,"CV","p",561,"cv","E","3","v","v",TRUE,1
"1463","CVOE_B",38,1,2,81,"D 69","","",TRUE,"CV","q",722,"cv","D","9","c","c",TRUE,1
"1464","CVOE_B",38,1,2,82,"H 11","","",TRUE,"CV","q",546,"cv","H","1","c","c",TRUE,1
"1465","CVOE_B",38,1,2,83,"P 43","","",TRUE,"CV","q",512,"cv","P","3","c","c",TRUE,1
"1466","CVOE_B",38,1,2,84,"O 67","","",FALSE,"CV","p",502,"cv","O","7","v","v",TRUE,1
"1467","CVOE_B",38,1,2,85,"S 91","","",FALSE,"CV","q",427,"cv","S","1","c","c",TRUE,1
"1468","CVOE_B",38,1,2,86,"J 68","","",TRUE,"CV","q",561,"cv","J","8","c","c",TRUE,1
"1469","CVOE_B",38,1,2,87,"S 47","","",FALSE,"CV","q",426,"cv","S","7","c","c",TRUE,1
"1470","CVOE_B",38,1,2,88,"I 81","","",TRUE,"CV","p",687,"cv","I","1","v","v",TRUE,1
"1471","CVOE_B",38,1,2,89,"J 39","","",FALSE,"CV","q",554,"cv","J","9","c","c",TRUE,1
"1472","CVOE_B",38,1,2,90,"A 11","","",TRUE,"CV","p",499,"cv","A","1","v","v",TRUE,1
"1473","CVOE_B",38,1,2,91,"O 76","","",FALSE,"CV","q",766,"cv","O","6","v","c",FALSE,0
"1474","CVOE_B",38,1,2,92,"A 62","","",FALSE,"CV","p",758,"cv","A","2","v","v",TRUE,1
"1475","CVOE_B",38,1,2,93,"O 27","","",TRUE,"CV","p",367,"cv","O","7","v","v",TRUE,1
"1476","CVOE_B",38,1,2,94,"E 66","","",FALSE,"CV","p",842,"cv","E","6","v","v",TRUE,1
"1477","CVOE_B",38,1,2,95,"J 62","","",TRUE,"CV","q",578,"cv","J","2","c","c",TRUE,1
"1478","CVOE_B",38,1,2,96,"H 72","","",TRUE,"CV","q",845,"cv","H","2","c","c",TRUE,1
"1479","CVOE_B",38,1,2,97,"E 49","","",TRUE,"CV","p",542,"cv","E","9","v","v",TRUE,1
"1480","CVOE_B",38,1,2,98,"D 52","","",TRUE,"CV","q",548,"cv","D","2","c","c",TRUE,1
"1481","CVOE_B",38,1,2,99,"H 62","","",TRUE,"CV","q",505,"cv","H","2","c","c",TRUE,1
"1482","CVOE_B",38,1,2,100,"I 11","","",TRUE,"CV","p",511,"cv","I","1","v","v",TRUE,1
"1483","CVOE_B",38,1,2,101,"A 98","","",FALSE,"CV","p",1021,"cv","A","8","v","v",TRUE,1
"1484","CVOE_B",38,1,2,102,"H 29","","",FALSE,"CV","q",507,"cv","H","9","c","c",TRUE,1
"1485","CVOE_B",38,1,2,103,"E 83","","",TRUE,"CV","p",465,"cv","E","3","v","v",TRUE,1
"1486","CVOE_B",38,1,2,104,"D 43","","",FALSE,"CV","q",838,"cv","D","3","c","c",TRUE,1
"1487","CVOE_B",38,1,2,105,"P 45","","",TRUE,"CV","q",495,"cv","P","5","c","c",TRUE,1
"1488","CVOE_B",38,1,2,106,"J 17","","",TRUE,"CV","q",482,"cv","J","7","c","c",TRUE,1
"1825","CVOE_B",42,1,2,11,"A 71","","",FALSE,"CV","p",2159,"cv","A","1","v","v",TRUE,1
"1826","CVOE_B",42,1,2,12,"I 66","","",TRUE,"CV","p",858,"cv","I","6","v","v",TRUE,1
"1827","CVOE_B",42,1,2,13,"S 30","","",FALSE,"CV","q",551,"cv","S","0","c","c",TRUE,1
"1828","CVOE_B",42,1,2,14,"D 20","","",FALSE,"CV","q",573,"cv","D","0","c","c",TRUE,1
"1829","CVOE_B",42,1,2,15,"I 31","","",FALSE,"CV","p",526,"cv","I","1","v","v",TRUE,1
"1830","CVOE_B",42,1,2,16,"P 16","","",FALSE,"CV","q",458,"cv","P","6","c","c",TRUE,1
"1831","CVOE_B",42,1,2,17,"A 49","","",FALSE,"CV","p",547,"cv","A","9","v","v",TRUE,1
"1832","CVOE_B",42,1,2,18,"O 64","","",TRUE,"CV","p",493,"cv","O","4","v","v",TRUE,1
"1833","CVOE_B",42,1,2,19,"D 02","","",FALSE,"CV","q",546,"cv","D","2","c","c",TRUE,1
"1834","CVOE_B",42,1,2,20,"P 81","","",TRUE,"CV","p",586,"cv","P","1","c","v",FALSE,0
"1835","CVOE_B",42,1,2,21,"J 58","","",FALSE,"CV","q",703,"cv","J","8","c","c",TRUE,1
"1836","CVOE_B",42,1,2,22,"A 22","","",TRUE,"CV","p",583,"cv","A","2","v","v",TRUE,1
"1837","CVOE_B",42,1,2,23,"J 72","","",FALSE,"CV","q",521,"cv","J","2","c","c",TRUE,1
"1838","CVOE_B",42,1,2,24,"P 91","","",TRUE,"CV","q",576,"cv","P","1","c","c",TRUE,1
"1839","CVOE_B",42,1,2,25,"E 19","","",FALSE,"CV","p",662,"cv","E","9","v","v",TRUE,1
"1840","CVOE_B",42,1,2,26,"I 30","","",TRUE,"CV","p",443,"cv","I","0","v","v",TRUE,1
"1841","CVOE_B",42,1,2,27,"D 91","","",TRUE,"CV","q",471,"cv","D","1","c","c",TRUE,1
"1842","CVOE_B",42,1,2,28,"O 48","","",TRUE,"CV","p",436,"cv","O","8","v","v",TRUE,1
"1843","CVOE_B",42,1,2,29,"A 89","","",FALSE,"CV","p",469,"cv","A","9","v","v",TRUE,1
"1844","CVOE_B",42,1,2,30,"U 11","","",FALSE,"CV","p",365,"cv","U","1","v","v",TRUE,1
"1845","CVOE_B",42,1,2,31,"I 76","","",TRUE,"CV","p",578,"cv","I","6","v","v",TRUE,1
"1846","CVOE_B",42,1,2,32,"U 89","","",FALSE,"CV","p",340,"cv","U","9","v","v",TRUE,1
"1847","CVOE_B",42,1,2,33,"D 63","","",TRUE,"CV","p",366,"cv","D","3","c","v",FALSE,0
"1848","CVOE_B",42,1,2,34,"H 70","","",FALSE,"CV","q",542,"cv","H","0","c","c",TRUE,1
"1849","CVOE_B",42,1,2,35,"D 48","","",FALSE,"CV","q",457,"cv","D","8","c","c",TRUE,1
"1850","CVOE_B",42,1,2,36,"P 56","","",FALSE,"CV","q",581,"cv","P","6","c","c",TRUE,1
"1851","CVOE_B",42,1,2,37,"O 77","","",FALSE,"CV","p",544,"cv","O","7","v","v",TRUE,1
"1852","CVOE_B",42,1,2,38,"P 42","","",FALSE,"CV","q",489,"cv","P","2","c","c",TRUE,1
"1853","CVOE_B",42,1,2,39,"H 22","","",FALSE,"CV","q",519,"cv","H","2","c","c",TRUE,1
"1854","CVOE_B",42,1,2,40,"E 42","","",TRUE,"CV","p",406,"cv","E","2","v","v",TRUE,1
"1855","CVOE_B",42,1,2,41,"J 28","","",FALSE,"CV","q",453,"cv","J","8","c","c",TRUE,1
"1856","CVOE_B",42,1,2,42,"E 95","","",FALSE,"CV","p",426,"cv","E","5","v","v",TRUE,1
"1857","CVOE_B",42,1,2,43,"S 63","","",TRUE,"CV","q",758,"cv","S","3","c","c",TRUE,1
"1858","CVOE_B",42,1,2,44,"H 50","","",FALSE,"CV","q",560,"cv","H","0","c","c",TRUE,1
"1859","CVOE_B",42,1,2,45,"S 33","","",TRUE,"CV","q",758,"cv","S","3","c","c",TRUE,1
"1860","CVOE_B",42,1,2,46,"P 57","","",TRUE,"CV","q",665,"cv","P","7","c","c",TRUE,1
"1861","CVOE_B",42,1,2,47,"E 23","","",FALSE,"CV","p",636,"cv","E","3","v","v",TRUE,1
"1862","CVOE_B",42,1,2,48,"S 61","","",TRUE,"CV","q",589,"cv","S","1","c","c",TRUE,1
"1863","CVOE_B",42,1,2,49,"U 67","","",FALSE,"CV","p",541,"cv","U","7","v","v",TRUE,1
"1864","CVOE_B",42,1,2,50,"H 32","","",FALSE,"CV","q",450,"cv","H","2","c","c",TRUE,1
"1865","CVOE_B",42,1,2,51,"U 50","","",TRUE,"CV","p",614,"cv","U","0","v","v",TRUE,1
"1866","CVOE_B",42,1,2,52,"O 49","","",FALSE,"CV","p",550,"cv","O","9","v","v",TRUE,1
"1867","CVOE_B",42,1,2,53,"U 32","","",TRUE,"CV","p",585,"cv","U","2","v","v",TRUE,1
"1868","CVOE_B",42,1,2,54,"J 78","","",FALSE,"CV","q",581,"cv","J","8","c","c",TRUE,1
"1869","CVOE_B",42,1,2,55,"S 54","","",FALSE,"CV","q",578,"cv","S","4","c","c",TRUE,1
"1870","CVOE_B",42,1,2,56,"J 27","","",TRUE,"CV","q",504,"cv","J","7","c","c",TRUE,1
"1871","CVOE_B",42,1,2,57,"S 06","","",FALSE,"CV","q",651,"cv","S","6","c","c",TRUE,1
"1872","CVOE_B",42,1,2,58,"D 67","","",TRUE,"CV","q",503,"cv","D","7","c","c",TRUE,1
"1873","CVOE_B",42,1,2,59,"A 79","","",FALSE,"CV","p",799,"cv","A","9","v","v",TRUE,1
"1874","CVOE_B",42,1,2,60,"S 52","","",FALSE,"CV","q",518,"cv","S","2","c","c",TRUE,1
"1875","CVOE_B",42,1,2,61,"U 16","","",TRUE,"CV","p",630,"cv","U","6","v","v",TRUE,1
"1876","CVOE_B",42,1,2,62,"O 82","","",TRUE,"CV","p",479,"cv","O","2","v","v",TRUE,1
"1877","CVOE_B",42,1,2,63,"H 87","","",TRUE,"CV","q",450,"cv","H","7","c","c",TRUE,1
"1878","CVOE_B",42,1,2,64,"I 32","","",TRUE,"CV","p",417,"cv","I","2","v","v",TRUE,1
"1879","CVOE_B",42,1,2,65,"U 37","","",FALSE,"CV","p",405,"cv","U","7","v","v",TRUE,1
"1880","CVOE_B",42,1,2,66,"I 42","","",TRUE,"CV","p",355,"cv","I","2","v","v",TRUE,1
"1881","CVOE_B",42,1,2,67,"D 65","","",TRUE,"CV","q",469,"cv","D","5","c","c",TRUE,1
"1882","CVOE_B",42,1,2,68,"U 77","","",FALSE,"CV","p",438,"cv","U","7","v","v",TRUE,1
"1883","CVOE_B",42,1,2,69,"E 12","","",TRUE,"CV","p",476,"cv","E","2","v","v",TRUE,1
"1884","CVOE_B",42,1,2,70,"I 60","","",TRUE,"CV","p",324,"cv","I","0","v","v",TRUE,1
"1885","CVOE_B",42,1,2,71,"J 36","","",FALSE,"CV","q",420,"cv","J","6","c","c",TRUE,1
"1886","CVOE_B",42,1,2,72,"H 75","","",TRUE,"CV","q",538,"cv","H","5","c","c",TRUE,1
"1887","CVOE_B",42,1,2,73,"I 50","","",TRUE,"CV","p",428,"cv","I","0","v","v",TRUE,1
"1888","CVOE_B",42,1,2,74,"E 99","","",FALSE,"CV","p",465,"cv","E","9","v","v",TRUE,1
"1889","CVOE_B",42,1,2,75,"A 86","","",TRUE,"CV","p",357,"cv","A","6","v","v",TRUE,1
"1890","CVOE_B",42,1,2,76,"U 48","","",TRUE,"CV","q",371,"cv","U","8","v","c",FALSE,0
"1891","CVOE_B",42,1,2,77,"E 01","","",FALSE,"CV","p",1322,"cv","E","1","v","v",TRUE,1
"1892","CVOE_B",42,1,2,78,"A 78","","",TRUE,"CV","p",536,"cv","A","8","v","v",TRUE,1
"1893","CVOE_B",42,1,2,79,"P 60","","",FALSE,"CV","q",507,"cv","P","0","c","c",TRUE,1
"1894","CVOE_B",42,1,2,80,"E 43","","",FALSE,"CV","p",728,"cv","E","3","v","v",TRUE,1
"1895","CVOE_B",42,1,2,81,"D 69","","",TRUE,"CV","q",451,"cv","D","9","c","c",TRUE,1
"1896","CVOE_B",42,1,2,82,"H 11","","",TRUE,"CV","q",550,"cv","H","1","c","c",TRUE,1
"1897","CVOE_B",42,1,2,83,"P 43","","",TRUE,"CV","q",464,"cv","P","3","c","c",TRUE,1
"1898","CVOE_B",42,1,2,84,"O 67","","",FALSE,"CV","p",405,"cv","O","7","v","v",TRUE,1
"1899","CVOE_B",42,1,2,85,"S 91","","",FALSE,"CV","q",509,"cv","S","1","c","c",TRUE,1
"1900","CVOE_B",42,1,2,86,"J 68","","",TRUE,"CV","q",508,"cv","J","8","c","c",TRUE,1
"1901","CVOE_B",42,1,2,87,"S 47","","",FALSE,"CV","p",472,"cv","S","7","c","v",FALSE,0
"1902","CVOE_B",42,1,2,88,"I 81","","",TRUE,"CV","p",560,"cv","I","1","v","v",TRUE,1
"1903","CVOE_B",42,1,2,89,"J 39","","",FALSE,"CV","q",520,"cv","J","9","c","c",TRUE,1
"1904","CVOE_B",42,1,2,90,"A 11","","",TRUE,"CV","p",476,"cv","A","1","v","v",TRUE,1
"1905","CVOE_B",42,1,2,91,"O 76","","",FALSE,"CV","p",563,"cv","O","6","v","v",TRUE,1
"1906","CVOE_B",42,1,2,92,"A 62","","",FALSE,"CV","p",468,"cv","A","2","v","v",TRUE,1
"1907","CVOE_B",42,1,2,93,"O 27","","",TRUE,"CV","p",400,"cv","O","7","v","v",TRUE,1
"1908","CVOE_B",42,1,2,94,"E 66","","",FALSE,"CV","p",446,"cv","E","6","v","v",TRUE,1
"1909","CVOE_B",42,1,2,95,"J 62","","",TRUE,"CV","q",392,"cv","J","2","c","c",TRUE,1
"1910","CVOE_B",42,1,2,96,"H 72","","",TRUE,"CV","q",435,"cv","H","2","c","c",TRUE,1
"1911","CVOE_B",42,1,2,97,"E 49","","",TRUE,"CV","p",628,"cv","E","9","v","v",TRUE,1
"1912","CVOE_B",42,1,2,98,"D 52","","",TRUE,"CV","q",752,"cv","D","2","c","c",TRUE,1
"1913","CVOE_B",42,1,2,99,"H 62","","",TRUE,"CV","q",514,"cv","H","2","c","c",TRUE,1
"1914","CVOE_B",42,1,2,100,"I 11","","",TRUE,"CV","p",440,"cv","I","1","v","v",TRUE,1
"1915","CVOE_B",42,1,2,101,"A 98","","",FALSE,"CV","p",462,"cv","A","8","v","v",TRUE,1
"1916","CVOE_B",42,1,2,102,"H 29","","",FALSE,"CV","q",412,"cv","H","9","c","c",TRUE,1
"1917","CVOE_B",42,1,2,103,"E 83","","",TRUE,"CV","p",492,"cv","E","3","v","v",TRUE,1
"1918","CVOE_B",42,1,2,104,"D 43","","",FALSE,"CV","q",411,"cv","D","3","c","c",TRUE,1
"1919","CVOE_B",42,1,2,105,"P 45","","",TRUE,"CV","q",608,"cv","P","5","c","c",TRUE,1
"1920","CVOE_B",42,1,2,106,"J 17","","",TRUE,"CV","q",444,"cv","J","7","c","c",TRUE,1
"2257","CVOE_C",39,1,2,11,"A 71","","",FALSE,"CV","q",2030,"cv","A","1","v","c",FALSE,0
"2258","CVOE_C",39,1,2,12,"I 66","","",TRUE,"CV","p",724,"cv","I","6","v","v",TRUE,1
"2259","CVOE_C",39,1,2,13,"S 30","","",FALSE,"CV","q",437,"cv","S","0","c","c",TRUE,1
"2260","CVOE_C",39,1,2,14,"D 20","","",FALSE,"CV","q",413,"cv","D","0","c","c",TRUE,1
"2261","CVOE_C",39,1,2,15,"I 31","","",FALSE,"CV","p",472,"cv","I","1","v","v",TRUE,1
"2262","CVOE_C",39,1,2,16,"P 16","","",FALSE,"CV","q",454,"cv","P","6","c","c",TRUE,1
"2263","CVOE_C",39,1,2,17,"A 49","","",FALSE,"CV","q",593,"cv","A","9","v","c",FALSE,0
"2264","CVOE_C",39,1,2,18,"O 64","","",TRUE,"CV","p",543,"cv","O","4","v","v",TRUE,1
"2265","CVOE_C",39,1,2,19,"D 02","","",FALSE,"CV","q",460,"cv","D","2","c","c",TRUE,1
"2266","CVOE_C",39,1,2,20,"P 81","","",TRUE,"CV","q",538,"cv","P","1","c","c",TRUE,1
"2267","CVOE_C",39,1,2,21,"J 58","","",FALSE,"CV","q",349,"cv","J","8","c","c",TRUE,1
"2268","CVOE_C",39,1,2,22,"A 22","","",TRUE,"CV","q",323,"cv","A","2","v","c",FALSE,0
"2269","CVOE_C",39,1,2,23,"J 72","","",FALSE,"CV","q",867,"cv","J","2","c","c",TRUE,1
"2270","CVOE_C",39,1,2,24,"P 91","","",TRUE,"CV","q",497,"cv","P","1","c","c",TRUE,1
"2271","CVOE_C",39,1,2,25,"E 19","","",FALSE,"CV","p",532,"cv","E","9","v","v",TRUE,1
"2272","CVOE_C",39,1,2,26,"I 30","","",TRUE,"CV","p",503,"cv","I","0","v","v",TRUE,1
"2273","CVOE_C",39,1,2,27,"D 91","","",TRUE,"CV","q",389,"cv","D","1","c","c",TRUE,1
"2274","CVOE_C",39,1,2,28,"O 48","","",TRUE,"CV","p",419,"cv","O","8","v","v",TRUE,1
"2275","CVOE_C",39,1,2,29,"A 89","","",FALSE,"CV","q",366,"cv","A","9","v","c",FALSE,0
"2276","CVOE_C",39,1,2,30,"U 11","","",FALSE,"CV","p",606,"cv","U","1","v","v",TRUE,1
"2277","CVOE_C",39,1,2,31,"I 76","","",TRUE,"CV","p",382,"cv","I","6","v","v",TRUE,1
"2278","CVOE_C",39,1,2,32,"U 89","","",FALSE,"CV","p",260,"cv","U","9","v","v",TRUE,1
"2279","CVOE_C",39,1,2,33,"D 63","","",TRUE,"CV","q",423,"cv","D","3","c","c",TRUE,1
"2280","CVOE_C",39,1,2,34,"H 70","","",FALSE,"CV","q",333,"cv","H","0","c","c",TRUE,1
"2281","CVOE_C",39,1,2,35,"D 48","","",FALSE,"CV","q",328,"cv","D","8","c","c",TRUE,1
"2282","CVOE_C",39,1,2,36,"P 56","","",FALSE,"CV","q",307,"cv","P","6","c","c",TRUE,1
"2283","CVOE_C",39,1,2,37,"O 77","","",FALSE,"CV","p",384,"cv","O","7","v","v",TRUE,1
"2284","CVOE_C",39,1,2,38,"P 42","","",FALSE,"CV","q",310,"cv","P","2","c","c",TRUE,1
"2285","CVOE_C",39,1,2,39,"H 22","","",FALSE,"CV","q",364,"cv","H","2","c","c",TRUE,1
"2286","CVOE_C",39,1,2,40,"E 42","","",TRUE,"CV","p",332,"cv","E","2","v","v",TRUE,1
"2287","CVOE_C",39,1,2,41,"J 28","","",FALSE,"CV","q",463,"cv","J","8","c","c",TRUE,1
"2288","CVOE_C",39,1,2,42,"E 95","","",FALSE,"CV","p",437,"cv","E","5","v","v",TRUE,1
"2289","CVOE_C",39,1,2,43,"S 63","","",TRUE,"CV","q",397,"cv","S","3","c","c",TRUE,1
"2290","CVOE_C",39,1,2,44,"H 50","","",FALSE,"CV","p",293,"cv","H","0","c","v",FALSE,0
"2291","CVOE_C",39,1,2,45,"S 33","","",TRUE,"CV","q",440,"cv","S","3","c","c",TRUE,1
"2292","CVOE_C",39,1,2,46,"P 57","","",TRUE,"CV","q",321,"cv","P","7","c","c",TRUE,1
"2293","CVOE_C",39,1,2,47,"E 23","","",FALSE,"CV","p",385,"cv","E","3","v","v",TRUE,1
"2294","CVOE_C",39,1,2,48,"S 61","","",TRUE,"CV","q",471,"cv","S","1","c","c",TRUE,1
"2295","CVOE_C",39,1,2,49,"U 67","","",FALSE,"CV","p",420,"cv","U","7","v","v",TRUE,1
"2296","CVOE_C",39,1,2,50,"H 32","","",FALSE,"CV","q",434,"cv","H","2","c","c",TRUE,1
"2297","CVOE_C",39,1,2,51,"U 50","","",TRUE,"CV","p",402,"cv","U","0","v","v",TRUE,1
"2298","CVOE_C",39,1,2,52,"O 49","","",FALSE,"CV","p",427,"cv","O","9","v","v",TRUE,1
"2299","CVOE_C",39,1,2,53,"U 32","","",TRUE,"CV","p",297,"cv","U","2","v","v",TRUE,1
"2300","CVOE_C",39,1,2,54,"J 78","","",FALSE,"CV","q",324,"cv","J","8","c","c",TRUE,1
"2301","CVOE_C",39,1,2,55,"S 54","","",FALSE,"CV","q",476,"cv","S","4","c","c",TRUE,1
"2302","CVOE_C",39,1,2,56,"J 27","","",TRUE,"CV","q",380,"cv","J","7","c","c",TRUE,1
"2303","CVOE_C",39,1,2,57,"S 06","","",FALSE,"CV","q",346,"cv","S","6","c","c",TRUE,1
"2304","CVOE_C",39,1,2,58,"D 67","","",TRUE,"CV","q",400,"cv","D","7","c","c",TRUE,1
"2305","CVOE_C",39,1,2,59,"A 79","","",FALSE,"CV","q",296,"cv","A","9","v","c",FALSE,0
"2306","CVOE_C",39,1,2,60,"S 52","","",FALSE,"CV","p",467,"cv","S","2","c","v",FALSE,0
"2307","CVOE_C",39,1,2,61,"U 16","","",TRUE,"CV","p",689,"cv","U","6","v","v",TRUE,1
"2308","CVOE_C",39,1,2,62,"O 82","","",TRUE,"CV","p",532,"cv","O","2","v","v",TRUE,1
"2309","CVOE_C",39,1,2,63,"H 87","","",TRUE,"CV","q",407,"cv","H","7","c","c",TRUE,1
"2310","CVOE_C",39,1,2,64,"I 32","","",TRUE,"CV","p",490,"cv","I","2","v","v",TRUE,1
"2311","CVOE_C",39,1,2,65,"U 37","","",FALSE,"CV","p",325,"cv","U","7","v","v",TRUE,1
"2312","CVOE_C",39,1,2,66,"I 42","","",TRUE,"CV","p",325,"cv","I","2","v","v",TRUE,1
"2313","CVOE_C",39,1,2,67,"D 65","","",TRUE,"CV","q",374,"cv","D","5","c","c",TRUE,1
"2314","CVOE_C",39,1,2,68,"U 77","","",FALSE,"CV","p",449,"cv","U","7","v","v",TRUE,1
"2315","CVOE_C",39,1,2,69,"E 12","","",TRUE,"CV","p",372,"cv","E","2","v","v",TRUE,1
"2316","CVOE_C",39,1,2,70,"I 60","","",TRUE,"CV","p",359,"cv","I","0","v","v",TRUE,1
"2317","CVOE_C",39,1,2,71,"J 36","","",FALSE,"CV","q",399,"cv","J","6","c","c",TRUE,1
"2318","CVOE_C",39,1,2,72,"H 75","","",TRUE,"CV","q",431,"cv","H","5","c","c",TRUE,1
"2319","CVOE_C",39,1,2,73,"I 50","","",TRUE,"CV","p",405,"cv","I","0","v","v",TRUE,1
"2320","CVOE_C",39,1,2,74,"E 99","","",FALSE,"CV","p",357,"cv","E","9","v","v",TRUE,1
"2321","CVOE_C",39,1,2,75,"A 86","","",TRUE,"CV","q",454,"cv","A","6","v","c",FALSE,0
"2322","CVOE_C",39,1,2,76,"U 48","","",TRUE,"CV","q",465,"cv","U","8","v","c",FALSE,0
"2323","CVOE_C",39,1,2,77,"E 01","","",FALSE,"CV","p",518,"cv","E","1","v","v",TRUE,1
"2324","CVOE_C",39,1,2,78,"A 78","","",TRUE,"CV","p",327,"cv","A","8","v","v",TRUE,1
"2325","CVOE_C",39,1,2,79,"P 60","","",FALSE,"CV","q",514,"cv","P","0","c","c",TRUE,1
"2326","CVOE_C",39,1,2,80,"E 43","","",FALSE,"CV","p",466,"cv","E","3","v","v",TRUE,1
"2327","CVOE_C",39,1,2,81,"D 69","","",TRUE,"CV","q",408,"cv","D","9","c","c",TRUE,1
"2328","CVOE_C",39,1,2,82,"H 11","","",TRUE,"CV","q",747,"cv","H","1","c","c",TRUE,1
"2329","CVOE_C",39,1,2,83,"P 43","","",TRUE,"CV","q",417,"cv","P","3","c","c",TRUE,1
"2330","CVOE_C",39,1,2,84,"O 67","","",FALSE,"CV","p",428,"cv","O","7","v","v",TRUE,1
"2331","CVOE_C",39,1,2,85,"S 91","","",FALSE,"CV","q",457,"cv","S","1","c","c",TRUE,1
"2332","CVOE_C",39,1,2,86,"J 68","","",TRUE,"CV","q",517,"cv","J","8","c","c",TRUE,1
"2333","CVOE_C",39,1,2,87,"S 47","","",FALSE,"CV","q",421,"cv","S","7","c","c",TRUE,1
"2334","CVOE_C",39,1,2,88,"I 81","","",TRUE,"CV","p",387,"cv","I","1","v","v",TRUE,1
"2335","CVOE_C",39,1,2,89,"J 39","","",FALSE,"CV","q",344,"cv","J","9","c","c",TRUE,1
"2336","CVOE_C",39,1,2,90,"A 11","","",TRUE,"CV","p",422,"cv","A","1","v","v",TRUE,1
"2337","CVOE_C",39,1,2,91,"O 76","","",FALSE,"CV","p",524,"cv","O","6","v","v",TRUE,1
"2338","CVOE_C",39,1,2,92,"A 62","","",FALSE,"CV","p",348,"cv","A","2","v","v",TRUE,1
"2339","CVOE_C",39,1,2,93,"O 27","","",TRUE,"CV","p",338,"cv","O","7","v","v",TRUE,1
"2340","CVOE_C",39,1,2,94,"E 66","","",FALSE,"CV","p",341,"cv","E","6","v","v",TRUE,1
"2341","CVOE_C",39,1,2,95,"J 62","","",TRUE,"CV","q",578,"cv","J","2","c","c",TRUE,1
"2342","CVOE_C",39,1,2,96,"H 72","","",TRUE,"CV","q",461,"cv","H","2","c","c",TRUE,1
"2343","CVOE_C",39,1,2,97,"E 49","","",TRUE,"CV","q",267,"cv","E","9","v","c",FALSE,0
"2344","CVOE_C",39,1,2,98,"D 52","","",TRUE,"CV","q",409,"cv","D","2","c","c",TRUE,1
"2345","CVOE_C",39,1,2,99,"H 62","","",TRUE,"CV","q",348,"cv","H","2","c","c",TRUE,1
"2346","CVOE_C",39,1,2,100,"I 11","","",TRUE,"CV","p",385,"cv","I","1","v","v",TRUE,1
"2347","CVOE_C",39,1,2,101,"A 98","","",FALSE,"CV","p",535,"cv","A","8","v","v",TRUE,1
"2348","CVOE_C",39,1,2,102,"H 29","","",FALSE,"CV","q",330,"cv","H","9","c","c",TRUE,1
"2349","CVOE_C",39,1,2,103,"E 83","","",TRUE,"CV","p",333,"cv","E","3","v","v",TRUE,1
"2350","CVOE_C",39,1,2,104,"D 43","","",FALSE,"CV","q",320,"cv","D","3","c","c",TRUE,1
"2351","CVOE_C",39,1,2,105,"P 45","","",TRUE,"CV","q",345,"cv","P","5","c","c",TRUE,1
"2352","CVOE_C",39,1,2,106,"J 17","","",TRUE,"CV","q",446,"cv","J","7","c","c",TRUE,1
"2689","CVOE_C",43,1,2,11,"A 71","","",FALSE,"CV","p",1796,"cv","A","1","v","v",TRUE,1
"2690","CVOE_C",43,1,2,12,"I 66","","",TRUE,"CV","p",741,"cv","I","6","v","v",TRUE,1
"2691","CVOE_C",43,1,2,13,"S 30","","",FALSE,"CV","q",555,"cv","S","0","c","c",TRUE,1
"2692","CVOE_C",43,1,2,14,"D 20","","",FALSE,"CV","q",627,"cv","D","0","c","c",TRUE,1
"2693","CVOE_C",43,1,2,15,"I 31","","",FALSE,"CV","p",1097,"cv","I","1","v","v",TRUE,1
"2694","CVOE_C",43,1,2,16,"P 16","","",FALSE,"CV","q",460,"cv","P","6","c","c",TRUE,1
"2695","CVOE_C",43,1,2,17,"A 49","","",FALSE,"CV","p",458,"cv","A","9","v","v",TRUE,1
"2696","CVOE_C",43,1,2,18,"O 64","","",TRUE,"CV","p",509,"cv","O","4","v","v",TRUE,1
"2697","CVOE_C",43,1,2,19,"D 02","","",FALSE,"CV","q",483,"cv","D","2","c","c",TRUE,1
"2698","CVOE_C",43,1,2,20,"P 81","","",TRUE,"CV","q",1051,"cv","P","1","c","c",TRUE,1
"2699","CVOE_C",43,1,2,21,"J 58","","",FALSE,"CV","q",462,"cv","J","8","c","c",TRUE,1
"2700","CVOE_C",43,1,2,22,"A 22","","",TRUE,"CV","p",428,"cv","A","2","v","v",TRUE,1
"2701","CVOE_C",43,1,2,23,"J 72","","",FALSE,"CV","q",450,"cv","J","2","c","c",TRUE,1
"2702","CVOE_C",43,1,2,24,"P 91","","",TRUE,"CV","q",645,"cv","P","1","c","c",TRUE,1
"2703","CVOE_C",43,1,2,25,"E 19","","",FALSE,"CV","p",437,"cv","E","9","v","v",TRUE,1
"2704","CVOE_C",43,1,2,26,"I 30","","",TRUE,"CV","p",502,"cv","I","0","v","v",TRUE,1
"2705","CVOE_C",43,1,2,27,"D 91","","",TRUE,"CV","q",451,"cv","D","1","c","c",TRUE,1
"2706","CVOE_C",43,1,2,28,"O 48","","",TRUE,"CV","p",398,"cv","O","8","v","v",TRUE,1
"2707","CVOE_C",43,1,2,29,"A 89","","",FALSE,"CV","p",623,"cv","A","9","v","v",TRUE,1
"2708","CVOE_C",43,1,2,30,"U 11","","",FALSE,"CV","p",373,"cv","U","1","v","v",TRUE,1
"2709","CVOE_C",43,1,2,31,"I 76","","",TRUE,"CV","p",496,"cv","I","6","v","v",TRUE,1
"2710","CVOE_C",43,1,2,32,"U 89","","",FALSE,"CV","p",691,"cv","U","9","v","v",TRUE,1
"2711","CVOE_C",43,1,2,33,"D 63","","",TRUE,"CV","q",518,"cv","D","3","c","c",TRUE,1
"2712","CVOE_C",43,1,2,34,"H 70","","",FALSE,"CV","q",742,"cv","H","0","c","c",TRUE,1
"2713","CVOE_C",43,1,2,35,"D 48","","",FALSE,"CV","q",540,"cv","D","8","c","c",TRUE,1
"2714","CVOE_C",43,1,2,36,"P 56","","",FALSE,"CV","q",458,"cv","P","6","c","c",TRUE,1
"2715","CVOE_C",43,1,2,37,"O 77","","",FALSE,"CV","p",397,"cv","O","7","v","v",TRUE,1
"2716","CVOE_C",43,1,2,38,"P 42","","",FALSE,"CV","q",477,"cv","P","2","c","c",TRUE,1
"2717","CVOE_C",43,1,2,39,"H 22","","",FALSE,"CV","p",477,"cv","H","2","c","v",FALSE,0
"2718","CVOE_C",43,1,2,40,"E 42","","",TRUE,"CV","p",798,"cv","E","2","v","v",TRUE,1
"2719","CVOE_C",43,1,2,41,"J 28","","",FALSE,"CV","q",542,"cv","J","8","c","c",TRUE,1
"2720","CVOE_C",43,1,2,42,"E 95","","",FALSE,"CV","p",684,"cv","E","5","v","v",TRUE,1
"2721","CVOE_C",43,1,2,43,"S 63","","",TRUE,"CV","q",597,"cv","S","3","c","c",TRUE,1
"2722","CVOE_C",43,1,2,44,"H 50","","",FALSE,"CV","q",445,"cv","H","0","c","c",TRUE,1
"2723","CVOE_C",43,1,2,45,"S 33","","",TRUE,"CV","q",373,"cv","S","3","c","c",TRUE,1
"2724","CVOE_C",43,1,2,46,"P 57","","",TRUE,"CV","q",512,"cv","P","7","c","c",TRUE,1
"2725","CVOE_C",43,1,2,47,"E 23","","",FALSE,"CV","p",422,"cv","E","3","v","v",TRUE,1
"2726","CVOE_C",43,1,2,48,"S 61","","",TRUE,"CV","q",516,"cv","S","1","c","c",TRUE,1
"2727","CVOE_C",43,1,2,49,"U 67","","",FALSE,"CV","p",564,"cv","U","7","v","v",TRUE,1
"2728","CVOE_C",43,1,2,50,"H 32","","",FALSE,"CV","q",405,"cv","H","2","c","c",TRUE,1
"2729","CVOE_C",43,1,2,51,"U 50","","",TRUE,"CV","p",533,"cv","U","0","v","v",TRUE,1
"2730","CVOE_C",43,1,2,52,"O 49","","",FALSE,"CV","p",520,"cv","O","9","v","v",TRUE,1
"2731","CVOE_C",43,1,2,53,"U 32","","",TRUE,"CV","p",392,"cv","U","2","v","v",TRUE,1
"2732","CVOE_C",43,1,2,54,"J 78","","",FALSE,"CV","q",502,"cv","J","8","c","c",TRUE,1
"2733","CVOE_C",43,1,2,55,"S 54","","",FALSE,"CV","p",556,"cv","S","4","c","v",FALSE,0
"2734","CVOE_C",43,1,2,56,"J 27","","",TRUE,"CV","q",604,"cv","J","7","c","c",TRUE,1
"2735","CVOE_C",43,1,2,57,"S 06","","",FALSE,"CV","q",605,"cv","S","6","c","c",TRUE,1
"2736","CVOE_C",43,1,2,58,"D 67","","",TRUE,"CV","q",501,"cv","D","7","c","c",TRUE,1
"2737","CVOE_C",43,1,2,59,"A 79","","",FALSE,"CV","p",499,"cv","A","9","v","v",TRUE,1
"2738","CVOE_C",43,1,2,60,"S 52","","",FALSE,"CV","q",574,"cv","S","2","c","c",TRUE,1
"2739","CVOE_C",43,1,2,61,"U 16","","",TRUE,"CV","p",593,"cv","U","6","v","v",TRUE,1
"2740","CVOE_C",43,1,2,62,"O 82","","",TRUE,"CV","p",543,"cv","O","2","v","v",TRUE,1
"2741","CVOE_C",43,1,2,63,"H 87","","",TRUE,"CV","q",476,"cv","H","7","c","c",TRUE,1
"2742","CVOE_C",43,1,2,64,"I 32","","",TRUE,"CV","p",853,"cv","I","2","v","v",TRUE,1
"2743","CVOE_C",43,1,2,65,"U 37","","",FALSE,"CV","p",656,"cv","U","7","v","v",TRUE,1
"2744","CVOE_C",43,1,2,66,"I 42","","",TRUE,"CV","p",419,"cv","I","2","v","v",TRUE,1
"2745","CVOE_C",43,1,2,67,"D 65","","",TRUE,"CV","q",510,"cv","D","5","c","c",TRUE,1
"2746","CVOE_C",43,1,2,68,"U 77","","",FALSE,"CV","p",988,"cv","U","7","v","v",TRUE,1
"2747","CVOE_C",43,1,2,69,"E 12","","",TRUE,"CV","p",410,"cv","E","2","v","v",TRUE,1
"2748","CVOE_C",43,1,2,70,"I 60","","",TRUE,"CV","p",381,"cv","I","0","v","v",TRUE,1
"2749","CVOE_C",43,1,2,71,"J 36","","",FALSE,"CV","q",442,"cv","J","6","c","c",TRUE,1
"2750","CVOE_C",43,1,2,72,"H 75","","",TRUE,"CV","q",619,"cv","H","5","c","c",TRUE,1
"2751","CVOE_C",43,1,2,73,"I 50","","",TRUE,"CV","p",542,"cv","I","0","v","v",TRUE,1
"2752","CVOE_C",43,1,2,74,"E 99","","",FALSE,"CV","p",596,"cv","E","9","v","v",TRUE,1
"2753","CVOE_C",43,1,2,75,"A 86","","",TRUE,"CV","p",460,"cv","A","6","v","v",TRUE,1
"2754","CVOE_C",43,1,2,76,"U 48","","",TRUE,"CV","p",490,"cv","U","8","v","v",TRUE,1
"2755","CVOE_C",43,1,2,77,"E 01","","",FALSE,"CV","p",541,"cv","E","1","v","v",TRUE,1
"2756","CVOE_C",43,1,2,78,"A 78","","",TRUE,"CV","p",427,"cv","A","8","v","v",TRUE,1
"2757","CVOE_C",43,1,2,79,"P 60","","",FALSE,"CV","q",440,"cv","P","0","c","c",TRUE,1
"2758","CVOE_C",43,1,2,80,"E 43","","",FALSE,"CV","p",705,"cv","E","3","v","v",TRUE,1
"2759","CVOE_C",43,1,2,81,"D 69","","",TRUE,"CV","q",446,"cv","D","9","c","c",TRUE,1
"2760","CVOE_C",43,1,2,82,"H 11","","",TRUE,"CV","q",535,"cv","H","1","c","c",TRUE,1
"2761","CVOE_C",43,1,2,83,"P 43","","",TRUE,"CV","q",434,"cv","P","3","c","c",TRUE,1
"2762","CVOE_C",43,1,2,84,"O 67","","",FALSE,"CV","p",410,"cv","O","7","v","v",TRUE,1
"2763","CVOE_C",43,1,2,85,"S 91","","",FALSE,"CV","q",453,"cv","S","1","c","c",TRUE,1
"2764","CVOE_C",43,1,2,86,"J 68","","",TRUE,"CV","q",696,"cv","J","8","c","c",TRUE,1
"2765","CVOE_C",43,1,2,87,"S 47","","",FALSE,"CV","q",435,"cv","S","7","c","c",TRUE,1
"2766","CVOE_C",43,1,2,88,"I 81","","",TRUE,"CV","p",396,"cv","I","1","v","v",TRUE,1
"2767","CVOE_C",43,1,2,89,"J 39","","",FALSE,"CV","q",436,"cv","J","9","c","c",TRUE,1
"2768","CVOE_C",43,1,2,90,"A 11","","",TRUE,"CV","p",508,"cv","A","1","v","v",TRUE,1
"2769","CVOE_C",43,1,2,91,"O 76","","",FALSE,"CV","p",466,"cv","O","6","v","v",TRUE,1
"2770","CVOE_C",43,1,2,92,"A 62","","",FALSE,"CV","p",440,"cv","A","2","v","v",TRUE,1
"2771","CVOE_C",43,1,2,93,"O 27","","",TRUE,"CV","p",376,"cv","O","7","v","v",TRUE,1
"2772","CVOE_C",43,1,2,94,"E 66","","",FALSE,"CV","p",611,"cv","E","6","v","v",TRUE,1
"2773","CVOE_C",43,1,2,95,"J 62","","",TRUE,"CV","q",550,"cv","J","2","c","c",TRUE,1
"2774","CVOE_C",43,1,2,96,"H 72","","",TRUE,"CV","q",564,"cv","H","2","c","c",TRUE,1
"2775","CVOE_C",43,1,2,97,"E 49","","",TRUE,"CV","p",509,"cv","E","9","v","v",TRUE,1
"2776","CVOE_C",43,1,2,98,"D 52","","",TRUE,"CV","q",482,"cv","D","2","c","c",TRUE,1
"2777","CVOE_C",43,1,2,99,"H 62","","",TRUE,"CV","q",499,"cv","H","2","c","c",TRUE,1
"2778","CVOE_C",43,1,2,100,"I 11","","",TRUE,"CV","p",534,"cv","I","1","v","v",TRUE,1
"2779","CVOE_C",43,1,2,101,"A 98","","",FALSE,"CV","p",441,"cv","A","8","v","v",TRUE,1
"2780","CVOE_C",43,1,2,102,"H 29","","",FALSE,"CV","q",537,"cv","H","9","c","c",TRUE,1
"2781","CVOE_C",43,1,2,103,"E 83","","",TRUE,"CV","p",516,"cv","E","3","v","v",TRUE,1
"2782","CVOE_C",43,1,2,104,"D 43","","",FALSE,"CV","q",485,"cv","D","3","c","c",TRUE,1
"2783","CVOE_C",43,1,2,105,"P 45","","",TRUE,"CV","q",493,"cv","P","5","c","c",TRUE,1
"2784","CVOE_C",43,1,2,106,"J 17","","",TRUE,"CV","q",488,"cv","J","7","c","c",TRUE,1
"3025","CVOE_D",36,1,1,11,"A 71","","",FALSE,"CV","p",1223,"cv","A","1","v","v",TRUE,1
"3026","CVOE_D",36,1,1,12,"I 66","","",TRUE,"CV","p",912,"cv","I","6","v","v",TRUE,1
"3027","CVOE_D",36,1,1,13,"S 30","","",FALSE,"CV","q",479,"cv","S","0","c","c",TRUE,1
"3028","CVOE_D",36,1,1,14,"D 20","","",FALSE,"CV","q",596,"cv","D","0","c","c",TRUE,1
"3029","CVOE_D",36,1,1,15,"I 31","","",FALSE,"CV","p",519,"cv","I","1","v","v",TRUE,1
"3030","CVOE_D",36,1,1,16,"P 16","","",FALSE,"CV","q",1527,"cv","P","6","c","c",TRUE,1
"3031","CVOE_D",36,1,1,17,"A 49","","",FALSE,"CV","p",662,"cv","A","9","v","v",TRUE,1
"3032","CVOE_D",36,1,1,18,"O 64","","",TRUE,"CV","p",628,"cv","O","4","v","v",TRUE,1
"3033","CVOE_D",36,1,1,19,"D 02","","",FALSE,"CV","q",614,"cv","D","2","c","c",TRUE,1
"3034","CVOE_D",36,1,1,20,"P 81","","",TRUE,"CV","q",813,"cv","P","1","c","c",TRUE,1
"3035","CVOE_D",36,1,1,21,"J 58","","",FALSE,"CV","q",608,"cv","J","8","c","c",TRUE,1
"3036","CVOE_D",36,1,1,22,"A 22","","",TRUE,"CV","p",552,"cv","A","2","v","v",TRUE,1
"3037","CVOE_D",36,1,1,23,"J 72","","",FALSE,"CV","q",613,"cv","J","2","c","c",TRUE,1
"3038","CVOE_D",36,1,1,24,"P 91","","",TRUE,"CV","q",768,"cv","P","1","c","c",TRUE,1
"3039","CVOE_D",36,1,1,25,"E 19","","",FALSE,"CV","p",455,"cv","E","9","v","v",TRUE,1
"3040","CVOE_D",36,1,1,26,"I 30","","",TRUE,"CV","p",1385,"cv","I","0","v","v",TRUE,1
"3041","CVOE_D",36,1,1,27,"D 91","","",TRUE,"CV","q",503,"cv","D","1","c","c",TRUE,1
"3042","CVOE_D",36,1,1,28,"O 48","","",TRUE,"CV","p",716,"cv","O","8","v","v",TRUE,1
"3043","CVOE_D",36,1,1,29,"A 89","","",FALSE,"CV","p",591,"cv","A","9","v","v",TRUE,1
"3044","CVOE_D",36,1,1,30,"U 11","","",FALSE,"CV","p",635,"cv","U","1","v","v",TRUE,1
"3045","CVOE_D",36,1,1,31,"I 76","","",TRUE,"CV","q",824,"cv","I","6","v","c",FALSE,0
"3046","CVOE_D",36,1,1,32,"U 89","","",FALSE,"CV","p",741,"cv","U","9","v","v",TRUE,1
"3047","CVOE_D",36,1,1,33,"D 63","","",TRUE,"CV","q",473,"cv","D","3","c","c",TRUE,1
"3048","CVOE_D",36,1,1,34,"H 70","","",FALSE,"CV","q",774,"cv","H","0","c","c",TRUE,1
"3049","CVOE_D",36,1,1,35,"D 48","","",FALSE,"CV","q",1219,"cv","D","8","c","c",TRUE,1
"3050","CVOE_D",36,1,1,36,"P 56","","",FALSE,"CV","q",574,"cv","P","6","c","c",TRUE,1
"3051","CVOE_D",36,1,1,37,"O 77","","",FALSE,"CV","p",543,"cv","O","7","v","v",TRUE,1
"3052","CVOE_D",36,1,1,38,"P 42","","",FALSE,"CV","q",473,"cv","P","2","c","c",TRUE,1
"3053","CVOE_D",36,1,1,39,"H 22","","",FALSE,"CV","q",547,"cv","H","2","c","c",TRUE,1
"3054","CVOE_D",36,1,1,40,"E 42","","",TRUE,"CV","p",562,"cv","E","2","v","v",TRUE,1
"3055","CVOE_D",36,1,1,41,"J 28","","",FALSE,"CV","q",525,"cv","J","8","c","c",TRUE,1
"3056","CVOE_D",36,1,1,42,"E 95","","",FALSE,"CV","p",431,"cv","E","5","v","v",TRUE,1
"3057","CVOE_D",36,1,1,43,"S 63","","",TRUE,"CV","q",775,"cv","S","3","c","c",TRUE,1
"3058","CVOE_D",36,1,1,44,"H 50","","",FALSE,"CV","q",583,"cv","H","0","c","c",TRUE,1
"3059","CVOE_D",36,1,1,45,"S 33","","",TRUE,"CV","q",501,"cv","S","3","c","c",TRUE,1
"3060","CVOE_D",36,1,1,46,"P 57","","",TRUE,"CV","q",455,"cv","P","7","c","c",TRUE,1
"3061","CVOE_D",36,1,1,47,"E 23","","",FALSE,"CV","p",369,"cv","E","3","v","v",TRUE,1
"3062","CVOE_D",36,1,1,48,"S 61","","",TRUE,"CV","q",467,"cv","S","1","c","c",TRUE,1
"3063","CVOE_D",36,1,1,49,"U 67","","",FALSE,"CV","p",526,"cv","U","7","v","v",TRUE,1
"3064","CVOE_D",36,1,1,50,"H 32","","",FALSE,"CV","q",476,"cv","H","2","c","c",TRUE,1
"3065","CVOE_D",36,1,1,51,"U 50","","",TRUE,"CV","p",631,"cv","U","0","v","v",TRUE,1
"3066","CVOE_D",36,1,1,52,"O 49","","",FALSE,"CV","p",557,"cv","O","9","v","v",TRUE,1
"3067","CVOE_D",36,1,1,53,"U 32","","",TRUE,"CV","p",494,"cv","U","2","v","v",TRUE,1
"3068","CVOE_D",36,1,1,54,"J 78","","",FALSE,"CV","q",515,"cv","J","8","c","c",TRUE,1
"3069","CVOE_D",36,1,1,55,"S 54","","",FALSE,"CV","q",556,"cv","S","4","c","c",TRUE,1
"3070","CVOE_D",36,1,1,56,"J 27","","",TRUE,"CV","q",623,"cv","J","7","c","c",TRUE,1
"3071","CVOE_D",36,1,1,57,"S 06","","",FALSE,"CV","q",977,"cv","S","6","c","c",TRUE,1
"3072","CVOE_D",36,1,1,58,"D 67","","",TRUE,"CV","q",848,"cv","D","7","c","c",TRUE,1
"3073","CVOE_D",36,1,1,59,"A 79","","",FALSE,"CV","p",907,"cv","A","9","v","v",TRUE,1
"3074","CVOE_D",36,1,1,60,"S 52","","",FALSE,"CV","q",532,"cv","S","2","c","c",TRUE,1
"3075","CVOE_D",36,1,1,61,"U 16","","",TRUE,"CV","p",597,"cv","U","6","v","v",TRUE,1
"3076","CVOE_D",36,1,1,62,"O 82","","",TRUE,"CV","p",1046,"cv","O","2","v","v",TRUE,1
"3077","CVOE_D",36,1,1,63,"H 87","","",TRUE,"CV","q",572,"cv","H","7","c","c",TRUE,1
"3078","CVOE_D",36,1,1,64,"I 32","","",TRUE,"CV","p",784,"cv","I","2","v","v",TRUE,1
"3079","CVOE_D",36,1,1,65,"U 37","","",FALSE,"CV","p",1420,"cv","U","7","v","v",TRUE,1
"3080","CVOE_D",36,1,1,66,"I 42","","",TRUE,"CV","p",848,"cv","I","2","v","v",TRUE,1
"3081","CVOE_D",36,1,1,67,"D 65","","",TRUE,"CV","q",509,"cv","D","5","c","c",TRUE,1
"3082","CVOE_D",36,1,1,68,"U 77","","",FALSE,"CV","q",1079,"cv","U","7","v","c",FALSE,0
"3083","CVOE_D",36,1,1,69,"E 12","","",TRUE,"CV","q",2310,"cv","E","2","v","c",FALSE,0
"3084","CVOE_D",36,1,1,70,"I 60","","",TRUE,"CV","q",1167,"cv","I","0","v","c",FALSE,0
"3085","CVOE_D",36,1,1,71,"J 36","","",FALSE,"CV","q",483,"cv","J","6","c","c",TRUE,1
"3086","CVOE_D",36,1,1,72,"H 75","","",TRUE,"CV","q",635,"cv","H","5","c","c",TRUE,1
"3087","CVOE_D",36,1,1,73,"I 50","","",TRUE,"CV","p",5606,"cv","I","0","v","v",TRUE,1
"3088","CVOE_D",36,1,1,74,"E 99","","",FALSE,"CV","p",2413,"cv","E","9","v","v",TRUE,1
"3089","CVOE_D",36,1,1,75,"A 86","","",TRUE,"CV","p",1004,"cv","A","6","v","v",TRUE,1
"3090","CVOE_D",36,1,1,76,"U 48","","",TRUE,"CV","p",607,"cv","U","8","v","v",TRUE,1
"3091","CVOE_D",36,1,1,77,"E 01","","",FALSE,"CV","p",1767,"cv","E","1","v","v",TRUE,1
"3092","CVOE_D",36,1,1,78,"A 78","","",TRUE,"CV","p",868,"cv","A","8","v","v",TRUE,1
"3093","CVOE_D",36,1,1,79,"P 60","","",FALSE,"CV","q",414,"cv","P","0","c","c",TRUE,1
"3094","CVOE_D",36,1,1,80,"E 43","","",FALSE,"CV","p",814,"cv","E","3","v","v",TRUE,1
"3095","CVOE_D",36,1,1,81,"D 69","","",TRUE,"CV","q",3115,"cv","D","9","c","c",TRUE,1
"3096","CVOE_D",36,1,1,82,"H 11","","",TRUE,"CV","q",523,"cv","H","1","c","c",TRUE,1
"3097","CVOE_D",36,1,1,83,"P 43","","",TRUE,"CV","q",706,"cv","P","3","c","c",TRUE,1
"3098","CVOE_D",36,1,1,84,"O 67","","",FALSE,"CV","p",732,"cv","O","7","v","v",TRUE,1
"3099","CVOE_D",36,1,1,85,"S 91","","",FALSE,"CV","q",2951,"cv","S","1","c","c",TRUE,1
"3100","CVOE_D",36,1,1,86,"J 68","","",TRUE,"CV","q",438,"cv","J","8","c","c",TRUE,1
"3101","CVOE_D",36,1,1,87,"S 47","","",FALSE,"CV","q",597,"cv","S","7","c","c",TRUE,1
"3102","CVOE_D",36,1,1,88,"I 81","","",TRUE,"CV","p",569,"cv","I","1","v","v",TRUE,1
"3103","CVOE_D",36,1,1,89,"J 39","","",FALSE,"CV","q",674,"cv","J","9","c","c",TRUE,1
"3104","CVOE_D",36,1,1,90,"A 11","","",TRUE,"CV","p",559,"cv","A","1","v","v",TRUE,1
"3105","CVOE_D",36,1,1,91,"O 76","","",FALSE,"CV","q",398,"cv","O","6","v","c",FALSE,0
"3106","CVOE_D",36,1,1,92,"A 62","","",FALSE,"CV","p",859,"cv","A","2","v","v",TRUE,1
"3107","CVOE_D",36,1,1,93,"O 27","","",TRUE,"CV","p",429,"cv","O","7","v","v",TRUE,1
"3108","CVOE_D",36,1,1,94,"E 66","","",FALSE,"CV","p",2330,"cv","E","6","v","v",TRUE,1
"3109","CVOE_D",36,1,1,95,"J 62","","",TRUE,"CV","q",1034,"cv","J","2","c","c",TRUE,1
"3110","CVOE_D",36,1,1,96,"H 72","","",TRUE,"CV","q",1847,"cv","H","2","c","c",TRUE,1
"3111","CVOE_D",36,1,1,97,"E 49","","",TRUE,"CV","p",611,"cv","E","9","v","v",TRUE,1
"3112","CVOE_D",36,1,1,98,"D 52","","",TRUE,"CV","q",604,"cv","D","2","c","c",TRUE,1
"3113","CVOE_D",36,1,1,99,"H 62","","",TRUE,"CV","q",886,"cv","H","2","c","c",TRUE,1
"3114","CVOE_D",36,1,1,100,"I 11","","",TRUE,"CV","q",424,"cv","I","1","v","c",FALSE,0
"3115","CVOE_D",36,1,1,101,"A 98","","",FALSE,"CV","p",632,"cv","A","8","v","v",TRUE,1
"3116","CVOE_D",36,1,1,102,"H 29","","",FALSE,"CV","q",597,"cv","H","9","c","c",TRUE,1
"3117","CVOE_D",36,1,1,103,"E 83","","",TRUE,"CV","p",480,"cv","E","3","v","v",TRUE,1
"3118","CVOE_D",36,1,1,104,"D 43","","",FALSE,"CV","q",516,"cv","D","3","c","c",TRUE,1
"3119","CVOE_D",36,1,1,105,"P 45","","",TRUE,"CV","q",583,"cv","P","5","c","c",TRUE,1
"3120","CVOE_D",36,1,1,106,"J 17","","",TRUE,"CV","q",584,"cv","J","7","c","c",TRUE,1
"3457","CVOE_D",40,1,1,11,"A 71","","",FALSE,"CV","p",2887,"cv","A","1","v","v",TRUE,1
"3458","CVOE_D",40,1,1,12,"I 66","","",TRUE,"CV","p",644,"cv","I","6","v","v",TRUE,1
"3459","CVOE_D",40,1,1,13,"S 30","","",FALSE,"CV","q",588,"cv","S","0","c","c",TRUE,1
"3460","CVOE_D",40,1,1,14,"D 20","","",FALSE,"CV","q",602,"cv","D","0","c","c",TRUE,1
"3461","CVOE_D",40,1,1,15,"I 31","","",FALSE,"CV","p",538,"cv","I","1","v","v",TRUE,1
"3462","CVOE_D",40,1,1,16,"P 16","","",FALSE,"CV","q",493,"cv","P","6","c","c",TRUE,1
"3463","CVOE_D",40,1,1,17,"A 49","","",FALSE,"CV","p",816,"cv","A","9","v","v",TRUE,1
"3464","CVOE_D",40,1,1,18,"O 64","","",TRUE,"CV","p",572,"cv","O","4","v","v",TRUE,1
"3465","CVOE_D",40,1,1,19,"D 02","","",FALSE,"CV","q",567,"cv","D","2","c","c",TRUE,1
"3466","CVOE_D",40,1,1,20,"P 81","","",TRUE,"CV","q",759,"cv","P","1","c","c",TRUE,1
"3467","CVOE_D",40,1,1,21,"J 58","","",FALSE,"CV","q",535,"cv","J","8","c","c",TRUE,1
"3468","CVOE_D",40,1,1,22,"A 22","","",TRUE,"CV","p",547,"cv","A","2","v","v",TRUE,1
"3469","CVOE_D",40,1,1,23,"J 72","","",FALSE,"CV","q",488,"cv","J","2","c","c",TRUE,1
"3470","CVOE_D",40,1,1,24,"P 91","","",TRUE,"CV","q",923,"cv","P","1","c","c",TRUE,1
"3471","CVOE_D",40,1,1,25,"E 19","","",FALSE,"CV","p",555,"cv","E","9","v","v",TRUE,1
"3472","CVOE_D",40,1,1,26,"I 30","","",TRUE,"CV","p",524,"cv","I","0","v","v",TRUE,1
"3473","CVOE_D",40,1,1,27,"D 91","","",TRUE,"CV","q",413,"cv","D","1","c","c",TRUE,1
"3474","CVOE_D",40,1,1,28,"O 48","","",TRUE,"CV","p",448,"cv","O","8","v","v",TRUE,1
"3475","CVOE_D",40,1,1,29,"A 89","","",FALSE,"CV","q",450,"cv","A","9","v","c",FALSE,0
"3476","CVOE_D",40,1,1,30,"U 11","","",FALSE,"CV","q",870,"cv","U","1","v","c",FALSE,0
"3477","CVOE_D",40,1,1,31,"I 76","","",TRUE,"CV","p",524,"cv","I","6","v","v",TRUE,1
"3478","CVOE_D",40,1,1,32,"U 89","","",FALSE,"CV","q",604,"cv","U","9","v","c",FALSE,0
"3479","CVOE_D",40,1,1,33,"D 63","","",TRUE,"CV","q",1276,"cv","D","3","c","c",TRUE,1
"3480","CVOE_D",40,1,1,34,"H 70","","",FALSE,"CV","q",732,"cv","H","0","c","c",TRUE,1
"3481","CVOE_D",40,1,1,35,"D 48","","",FALSE,"CV","q",575,"cv","D","8","c","c",TRUE,1
"3482","CVOE_D",40,1,1,36,"P 56","","",FALSE,"CV","q",642,"cv","P","6","c","c",TRUE,1
"3483","CVOE_D",40,1,1,37,"O 77","","",FALSE,"CV","p",603,"cv","O","7","v","v",TRUE,1
"3484","CVOE_D",40,1,1,38,"P 42","","",FALSE,"CV","q",475,"cv","P","2","c","c",TRUE,1
"3485","CVOE_D",40,1,1,39,"H 22","","",FALSE,"CV","q",564,"cv","H","2","c","c",TRUE,1
"3486","CVOE_D",40,1,1,40,"E 42","","",TRUE,"CV","p",540,"cv","E","2","v","v",TRUE,1
"3487","CVOE_D",40,1,1,41,"J 28","","",FALSE,"CV","q",538,"cv","J","8","c","c",TRUE,1
"3488","CVOE_D",40,1,1,42,"E 95","","",FALSE,"CV","p",822,"cv","E","5","v","v",TRUE,1
"3489","CVOE_D",40,1,1,43,"S 63","","",TRUE,"CV","q",572,"cv","S","3","c","c",TRUE,1
"3490","CVOE_D",40,1,1,44,"H 50","","",FALSE,"CV","q",718,"cv","H","0","c","c",TRUE,1
"3491","CVOE_D",40,1,1,45,"S 33","","",TRUE,"CV","q",511,"cv","S","3","c","c",TRUE,1
"3492","CVOE_D",40,1,1,46,"P 57","","",TRUE,"CV","q",828,"cv","P","7","c","c",TRUE,1
"3493","CVOE_D",40,1,1,47,"E 23","","",FALSE,"CV","p",602,"cv","E","3","v","v",TRUE,1
"3494","CVOE_D",40,1,1,48,"S 61","","",TRUE,"CV","q",546,"cv","S","1","c","c",TRUE,1
"3495","CVOE_D",40,1,1,49,"U 67","","",FALSE,"CV","p",736,"cv","U","7","v","v",TRUE,1
"3496","CVOE_D",40,1,1,50,"H 32","","",FALSE,"CV","q",436,"cv","H","2","c","c",TRUE,1
"3497","CVOE_D",40,1,1,51,"U 50","","",TRUE,"CV","p",493,"cv","U","0","v","v",TRUE,1
"3498","CVOE_D",40,1,1,52,"O 49","","",FALSE,"CV","p",551,"cv","O","9","v","v",TRUE,1
"3499","CVOE_D",40,1,1,53,"U 32","","",TRUE,"CV","p",620,"cv","U","2","v","v",TRUE,1
"3500","CVOE_D",40,1,1,54,"J 78","","",FALSE,"CV","q",490,"cv","J","8","c","c",TRUE,1
"3501","CVOE_D",40,1,1,55,"S 54","","",FALSE,"CV","q",477,"cv","S","4","c","c",TRUE,1
"3502","CVOE_D",40,1,1,56,"J 27","","",TRUE,"CV","q",806,"cv","J","7","c","c",TRUE,1
"3503","CVOE_D",40,1,1,57,"S 06","","",FALSE,"CV","q",486,"cv","S","6","c","c",TRUE,1
"3504","CVOE_D",40,1,1,58,"D 67","","",TRUE,"CV","q",478,"cv","D","7","c","c",TRUE,1
"3505","CVOE_D",40,1,1,59,"A 79","","",FALSE,"CV","p",551,"cv","A","9","v","v",TRUE,1
"3506","CVOE_D",40,1,1,60,"S 52","","",FALSE,"CV","q",533,"cv","S","2","c","c",TRUE,1
"3507","CVOE_D",40,1,1,61,"U 16","","",TRUE,"CV","p",512,"cv","U","6","v","v",TRUE,1
"3508","CVOE_D",40,1,1,62,"O 82","","",TRUE,"CV","p",493,"cv","O","2","v","v",TRUE,1
"3509","CVOE_D",40,1,1,63,"H 87","","",TRUE,"CV","q",864,"cv","H","7","c","c",TRUE,1
"3510","CVOE_D",40,1,1,64,"I 32","","",TRUE,"CV","p",566,"cv","I","2","v","v",TRUE,1
"3511","CVOE_D",40,1,1,65,"U 37","","",FALSE,"CV","p",601,"cv","U","7","v","v",TRUE,1
"3512","CVOE_D",40,1,1,66,"I 42","","",TRUE,"CV","p",570,"cv","I","2","v","v",TRUE,1
"3513","CVOE_D",40,1,1,67,"D 65","","",TRUE,"CV","q",413,"cv","D","5","c","c",TRUE,1
"3514","CVOE_D",40,1,1,68,"U 77","","",FALSE,"CV","p",480,"cv","U","7","v","v",TRUE,1
"3515","CVOE_D",40,1,1,69,"E 12","","",TRUE,"CV","q",520,"cv","E","2","v","c",FALSE,0
"3516","CVOE_D",40,1,1,70,"I 60","","",TRUE,"CV","p",585,"cv","I","0","v","v",TRUE,1
"3517","CVOE_D",40,1,1,71,"J 36","","",FALSE,"CV","q",502,"cv","J","6","c","c",TRUE,1
"3518","CVOE_D",40,1,1,72,"H 75","","",TRUE,"CV","q",476,"cv","H","5","c","c",TRUE,1
"3519","CVOE_D",40,1,1,73,"I 50","","",TRUE,"CV","p",517,"cv","I","0","v","v",TRUE,1
"3520","CVOE_D",40,1,1,74,"E 99","","",FALSE,"CV","p",501,"cv","E","9","v","v",TRUE,1
"3521","CVOE_D",40,1,1,75,"A 86","","",TRUE,"CV","p",587,"cv","A","6","v","v",TRUE,1
"3522","CVOE_D",40,1,1,76,"U 48","","",TRUE,"CV","p",536,"cv","U","8","v","v",TRUE,1
"3523","CVOE_D",40,1,1,77,"E 01","","",FALSE,"CV","p",484,"cv","E","1","v","v",TRUE,1
"3524","CVOE_D",40,1,1,78,"A 78","","",TRUE,"CV","p",949,"cv","A","8","v","v",TRUE,1
"3525","CVOE_D",40,1,1,79,"P 60","","",FALSE,"CV","q",410,"cv","P","0","c","c",TRUE,1
"3526","CVOE_D",40,1,1,80,"E 43","","",FALSE,"CV","p",453,"cv","E","3","v","v",TRUE,1
"3527","CVOE_D",40,1,1,81,"D 69","","",TRUE,"CV","q",440,"cv","D","9","c","c",TRUE,1
"3528","CVOE_D",40,1,1,82,"H 11","","",TRUE,"CV","q",648,"cv","H","1","c","c",TRUE,1
"3529","CVOE_D",40,1,1,83,"P 43","","",TRUE,"CV","p",635,"cv","P","3","c","v",FALSE,0
"3530","CVOE_D",40,1,1,84,"O 67","","",FALSE,"CV","p",524,"cv","O","7","v","v",TRUE,1
"3531","CVOE_D",40,1,1,85,"S 91","","",FALSE,"CV","q",460,"cv","S","1","c","c",TRUE,1
"3532","CVOE_D",40,1,1,86,"J 68","","",TRUE,"CV","q",514,"cv","J","8","c","c",TRUE,1
"3533","CVOE_D",40,1,1,87,"S 47","","",FALSE,"CV","q",394,"cv","S","7","c","c",TRUE,1
"3534","CVOE_D",40,1,1,88,"I 81","","",TRUE,"CV","p",451,"cv","I","1","v","v",TRUE,1
"3535","CVOE_D",40,1,1,89,"J 39","","",FALSE,"CV","q",406,"cv","J","9","c","c",TRUE,1
"3536","CVOE_D",40,1,1,90,"A 11","","",TRUE,"CV","p",438,"cv","A","1","v","v",TRUE,1
"3537","CVOE_D",40,1,1,91,"O 76","","",FALSE,"CV","p",502,"cv","O","6","v","v",TRUE,1
"3538","CVOE_D",40,1,1,92,"A 62","","",FALSE,"CV","p",404,"cv","A","2","v","v",TRUE,1
"3539","CVOE_D",40,1,1,93,"O 27","","",TRUE,"CV","p",380,"cv","O","7","v","v",TRUE,1
"3540","CVOE_D",40,1,1,94,"E 66","","",FALSE,"CV","p",410,"cv","E","6","v","v",TRUE,1
"3541","CVOE_D",40,1,1,95,"J 62","","",TRUE,"CV","q",437,"cv","J","2","c","c",TRUE,1
"3542","CVOE_D",40,1,1,96,"H 72","","",TRUE,"CV","q",470,"cv","H","2","c","c",TRUE,1
"3543","CVOE_D",40,1,1,97,"E 49","","",TRUE,"CV","p",515,"cv","E","9","v","v",TRUE,1
"3544","CVOE_D",40,1,1,98,"D 52","","",TRUE,"CV","q",1076,"cv","D","2","c","c",TRUE,1
"3545","CVOE_D",40,1,1,99,"H 62","","",TRUE,"CV","q",388,"cv","H","2","c","c",TRUE,1
"3546","CVOE_D",40,1,1,100,"I 11","","",TRUE,"CV","p",482,"cv","I","1","v","v",TRUE,1
"3547","CVOE_D",40,1,1,101,"A 98","","",FALSE,"CV","p",506,"cv","A","8","v","v",TRUE,1
"3548","CVOE_D",40,1,1,102,"H 29","","",FALSE,"CV","q",520,"cv","H","9","c","c",TRUE,1
"3549","CVOE_D",40,1,1,103,"E 83","","",TRUE,"CV","p",448,"cv","E","3","v","v",TRUE,1
"3550","CVOE_D",40,1,1,104,"D 43","","",FALSE,"CV","q",524,"cv","D","3","c","c",TRUE,1
"3551","CVOE_D",40,1,1,105,"P 45","","",TRUE,"CV","q",388,"cv","P","5","c","c",TRUE,1
"3552","CVOE_D",40,1,1,106,"J 17","","",TRUE,"CV","q",466,"cv","J","7","c","c",TRUE,1
"3889","CVOE_D",44,1,1,11,"A 71","","",FALSE,"CV","p",3092,"cv","A","1","v","v",TRUE,1
"3890","CVOE_D",44,1,1,12,"I 66","","",TRUE,"CV","p",941,"cv","I","6","v","v",TRUE,1
"3891","CVOE_D",44,1,1,13,"S 30","","",FALSE,"CV","q",660,"cv","S","0","c","c",TRUE,1
"3892","CVOE_D",44,1,1,14,"D 20","","",FALSE,"CV","q",2335,"cv","D","0","c","c",TRUE,1
"3893","CVOE_D",44,1,1,15,"I 31","","",FALSE,"CV","p",655,"cv","I","1","v","v",TRUE,1
"3894","CVOE_D",44,1,1,16,"P 16","","",FALSE,"CV","q",898,"cv","P","6","c","c",TRUE,1
"3895","CVOE_D",44,1,1,17,"A 49","","",FALSE,"CV","p",1157,"cv","A","9","v","v",TRUE,1
"3896","CVOE_D",44,1,1,18,"O 64","","",TRUE,"CV","p",573,"cv","O","4","v","v",TRUE,1
"3897","CVOE_D",44,1,1,19,"D 02","","",FALSE,"CV","q",604,"cv","D","2","c","c",TRUE,1
"3898","CVOE_D",44,1,1,20,"P 81","","",TRUE,"CV","q",1017,"cv","P","1","c","c",TRUE,1
"3899","CVOE_D",44,1,1,21,"J 58","","",FALSE,"CV","q",436,"cv","J","8","c","c",TRUE,1
"3900","CVOE_D",44,1,1,22,"A 22","","",TRUE,"CV","p",546,"cv","A","2","v","v",TRUE,1
"3901","CVOE_D",44,1,1,23,"J 72","","",FALSE,"CV","q",485,"cv","J","2","c","c",TRUE,1
"3902","CVOE_D",44,1,1,24,"P 91","","",TRUE,"CV","q",763,"cv","P","1","c","c",TRUE,1
"3903","CVOE_D",44,1,1,25,"E 19","","",FALSE,"CV","p",588,"cv","E","9","v","v",TRUE,1
"3904","CVOE_D",44,1,1,26,"I 30","","",TRUE,"CV","p",554,"cv","I","0","v","v",TRUE,1
"3905","CVOE_D",44,1,1,27,"D 91","","",TRUE,"CV","q",421,"cv","D","1","c","c",TRUE,1
"3906","CVOE_D",44,1,1,28,"O 48","","",TRUE,"CV","p",521,"cv","O","8","v","v",TRUE,1
"3907","CVOE_D",44,1,1,29,"A 89","","",FALSE,"CV","q",531,"cv","A","9","v","c",FALSE,0
"3908","CVOE_D",44,1,1,30,"U 11","","",FALSE,"CV","p",3794,"cv","U","1","v","v",TRUE,1
"3909","CVOE_D",44,1,1,31,"I 76","","",TRUE,"CV","p",550,"cv","I","6","v","v",TRUE,1
"3910","CVOE_D",44,1,1,32,"U 89","","",FALSE,"CV","p",564,"cv","U","9","v","v",TRUE,1
"3911","CVOE_D",44,1,1,33,"D 63","","",TRUE,"CV","q",627,"cv","D","3","c","c",TRUE,1
"3912","CVOE_D",44,1,1,34,"H 70","","",FALSE,"CV","q",598,"cv","H","0","c","c",TRUE,1
"3913","CVOE_D",44,1,1,35,"D 48","","",FALSE,"CV","q",514,"cv","D","8","c","c",TRUE,1
"3914","CVOE_D",44,1,1,36,"P 56","","",FALSE,"CV","q",527,"cv","P","6","c","c",TRUE,1
"3915","CVOE_D",44,1,1,37,"O 77","","",FALSE,"CV","p",371,"cv","O","7","v","v",TRUE,1
"3916","CVOE_D",44,1,1,38,"P 42","","",FALSE,"CV","q",974,"cv","P","2","c","c",TRUE,1
"3917","CVOE_D",44,1,1,39,"H 22","","",FALSE,"CV","q",724,"cv","H","2","c","c",TRUE,1
"3918","CVOE_D",44,1,1,40,"E 42","","",TRUE,"CV","p",451,"cv","E","2","v","v",TRUE,1
"3919","CVOE_D",44,1,1,41,"J 28","","",FALSE,"CV","q",384,"cv","J","8","c","c",TRUE,1
"3920","CVOE_D",44,1,1,42,"E 95","","",FALSE,"CV","p",377,"cv","E","5","v","v",TRUE,1
"3921","CVOE_D",44,1,1,43,"S 63","","",TRUE,"CV","q",503,"cv","S","3","c","c",TRUE,1
"3922","CVOE_D",44,1,1,44,"H 50","","",FALSE,"CV","q",592,"cv","H","0","c","c",TRUE,1
"3923","CVOE_D",44,1,1,45,"S 33","","",TRUE,"CV","q",439,"cv","S","3","c","c",TRUE,1
"3924","CVOE_D",44,1,1,46,"P 57","","",TRUE,"CV","q",328,"cv","P","7","c","c",TRUE,1
"3925","CVOE_D",44,1,1,47,"E 23","","",FALSE,"CV","p",849,"cv","E","3","v","v",TRUE,1
"3926","CVOE_D",44,1,1,48,"S 61","","",TRUE,"CV","q",559,"cv","S","1","c","c",TRUE,1
"3927","CVOE_D",44,1,1,49,"U 67","","",FALSE,"CV","p",601,"cv","U","7","v","v",TRUE,1
"3928","CVOE_D",44,1,1,50,"H 32","","",FALSE,"CV","q",713,"cv","H","2","c","c",TRUE,1
"3929","CVOE_D",44,1,1,51,"U 50","","",TRUE,"CV","p",820,"cv","U","0","v","v",TRUE,1
"3930","CVOE_D",44,1,1,52,"O 49","","",FALSE,"CV","p",456,"cv","O","9","v","v",TRUE,1
"3931","CVOE_D",44,1,1,53,"U 32","","",TRUE,"CV","p",432,"cv","U","2","v","v",TRUE,1
"3932","CVOE_D",44,1,1,54,"J 78","","",FALSE,"CV","q",466,"cv","J","8","c","c",TRUE,1
"3933","CVOE_D",44,1,1,55,"S 54","","",FALSE,"CV","q",659,"cv","S","4","c","c",TRUE,1
"3934","CVOE_D",44,1,1,56,"J 27","","",TRUE,"CV","q",637,"cv","J","7","c","c",TRUE,1
"3935","CVOE_D",44,1,1,57,"S 06","","",FALSE,"CV","q",408,"cv","S","6","c","c",TRUE,1
"3936","CVOE_D",44,1,1,58,"D 67","","",TRUE,"CV","q",506,"cv","D","7","c","c",TRUE,1
"3937","CVOE_D",44,1,1,59,"A 79","","",FALSE,"CV","p",450,"cv","A","9","v","v",TRUE,1
"3938","CVOE_D",44,1,1,60,"S 52","","",FALSE,"CV","q",438,"cv","S","2","c","c",TRUE,1
"3939","CVOE_D",44,1,1,61,"U 16","","",TRUE,"CV","p",385,"cv","U","6","v","v",TRUE,1
"3940","CVOE_D",44,1,1,62,"O 82","","",TRUE,"CV","p",474,"cv","O","2","v","v",TRUE,1
"3941","CVOE_D",44,1,1,63,"H 87","","",TRUE,"CV","q",529,"cv","H","7","c","c",TRUE,1
"3942","CVOE_D",44,1,1,64,"I 32","","",TRUE,"CV","p",1020,"cv","I","2","v","v",TRUE,1
"3943","CVOE_D",44,1,1,65,"U 37","","",FALSE,"CV","p",427,"cv","U","7","v","v",TRUE,1
"3944","CVOE_D",44,1,1,66,"I 42","","",TRUE,"CV","p",349,"cv","I","2","v","v",TRUE,1
"3945","CVOE_D",44,1,1,67,"D 65","","",TRUE,"CV","q",398,"cv","D","5","c","c",TRUE,1
"3946","CVOE_D",44,1,1,68,"U 77","","",FALSE,"CV","p",332,"cv","U","7","v","v",TRUE,1
"3947","CVOE_D",44,1,1,69,"E 12","","",TRUE,"CV","p",337,"cv","E","2","v","v",TRUE,1
"3948","CVOE_D",44,1,1,70,"I 60","","",TRUE,"CV","p",309,"cv","I","0","v","v",TRUE,1
"3949","CVOE_D",44,1,1,71,"J 36","","",FALSE,"CV","p",401,"cv","J","6","c","v",FALSE,0
"3950","CVOE_D",44,1,1,72,"H 75","","",TRUE,"CV","q",853,"cv","H","5","c","c",TRUE,1
"3951","CVOE_D",44,1,1,73,"I 50","","",TRUE,"CV","p",1075,"cv","I","0","v","v",TRUE,1
"3952","CVOE_D",44,1,1,74,"E 99","","",FALSE,"CV","p",815,"cv","E","9","v","v",TRUE,1
"3953","CVOE_D",44,1,1,75,"A 86","","",TRUE,"CV","p",950,"cv","A","6","v","v",TRUE,1
"3954","CVOE_D",44,1,1,76,"U 48","","",TRUE,"CV","p",471,"cv","U","8","v","v",TRUE,1
"3955","CVOE_D",44,1,1,77,"E 01","","",FALSE,"CV","p",357,"cv","E","1","v","v",TRUE,1
"3956","CVOE_D",44,1,1,78,"A 78","","",TRUE,"CV","p",349,"cv","A","8","v","v",TRUE,1
"3957","CVOE_D",44,1,1,79,"P 60","","",FALSE,"CV","q",411,"cv","P","0","c","c",TRUE,1
"3958","CVOE_D",44,1,1,80,"E 43","","",FALSE,"CV","p",781,"cv","E","3","v","v",TRUE,1
"3959","CVOE_D",44,1,1,81,"D 69","","",TRUE,"CV","q",441,"cv","D","9","c","c",TRUE,1
"3960","CVOE_D",44,1,1,82,"H 11","","",TRUE,"CV","q",413,"cv","H","1","c","c",TRUE,1
"3961","CVOE_D",44,1,1,83,"P 43","","",TRUE,"CV","q",526,"cv","P","3","c","c",TRUE,1
"3962","CVOE_D",44,1,1,84,"O 67","","",FALSE,"CV","p",601,"cv","O","7","v","v",TRUE,1
"3963","CVOE_D",44,1,1,85,"S 91","","",FALSE,"CV","q",554,"cv","S","1","c","c",TRUE,1
"3964","CVOE_D",44,1,1,86,"J 68","","",TRUE,"CV","q",694,"cv","J","8","c","c",TRUE,1
"3965","CVOE_D",44,1,1,87,"S 47","","",FALSE,"CV","q",360,"cv","S","7","c","c",TRUE,1
"3966","CVOE_D",44,1,1,88,"I 81","","",TRUE,"CV","p",452,"cv","I","1","v","v",TRUE,1
"3967","CVOE_D",44,1,1,89,"J 39","","",FALSE,"CV","q",564,"cv","J","9","c","c",TRUE,1
"3968","CVOE_D",44,1,1,90,"A 11","","",TRUE,"CV","p",419,"cv","A","1","v","v",TRUE,1
"3969","CVOE_D",44,1,1,91,"O 76","","",FALSE,"CV","p",405,"cv","O","6","v","v",TRUE,1
"3970","CVOE_D",44,1,1,92,"A 62","","",FALSE,"CV","p",364,"cv","A","2","v","v",TRUE,1
"3971","CVOE_D",44,1,1,93,"O 27","","",TRUE,"CV","p",1001,"cv","O","7","v","v",TRUE,1
"3972","CVOE_D",44,1,1,94,"E 66","","",FALSE,"CV","p",585,"cv","E","6","v","v",TRUE,1
"3973","CVOE_D",44,1,1,95,"J 62","","",TRUE,"CV","q",784,"cv","J","2","c","c",TRUE,1
"3974","CVOE_D",44,1,1,96,"H 72","","",TRUE,"CV","q",564,"cv","H","2","c","c",TRUE,1
"3975","CVOE_D",44,1,1,97,"E 49","","",TRUE,"CV","p",514,"cv","E","9","v","v",TRUE,1
"3976","CVOE_D",44,1,1,98,"D 52","","",TRUE,"CV","q",2242,"cv","D","2","c","c",TRUE,1
"3977","CVOE_D",44,1,1,99,"H 62","","",TRUE,"CV","q",5415,"cv","H","2","c","c",TRUE,1
"3978","CVOE_D",44,1,1,100,"I 11","","",TRUE,"CV","p",709,"cv","I","1","v","v",TRUE,1
"3979","CVOE_D",44,1,1,101,"A 98","","",FALSE,"CV","p",3878,"cv","A","8","v","v",TRUE,1
"3980","CVOE_D",44,1,1,102,"H 29","","",FALSE,"CV","q",547,"cv","H","9","c","c",TRUE,1
"3981","CVOE_D",44,1,1,103,"E 83","","",TRUE,"CV","p",452,"cv","E","3","v","v",TRUE,1
"3982","CVOE_D",44,1,1,104,"D 43","","",FALSE,"CV","q",704,"cv","D","3","c","c",TRUE,1
"3983","CVOE_D",44,1,1,105,"P 45","","",TRUE,"CV","p",615,"cv","P","5","c","v",FALSE,0
"3984","CVOE_D",44,1,1,106,"J 17","","",TRUE,"CV","q",1010,"cv","J","7","c","c",TRUE,1
"97","CVOE updated",37,1,2,11,"A 24","","",TRUE,"OE","p",2717,"oe","A","4","e","e",TRUE,1
"98","CVOE updated",37,1,2,12,"O 83","","",FALSE,"OE","q",943,"oe","O","3","o","o",TRUE,1
"99","CVOE updated",37,1,2,13,"H 55","","",TRUE,"OE","q",589,"oe","H","5","o","o",TRUE,1
"100","CVOE updated",37,1,2,14,"P 10","","",FALSE,"OE","p",594,"oe","P","0","e","e",TRUE,1
"101","CVOE updated",37,1,2,15,"D 30","","",FALSE,"OE","p",579,"oe","D","0","e","e",TRUE,1
"102","CVOE updated",37,1,2,16,"U 62","","",TRUE,"OE","p",599,"oe","U","2","e","e",TRUE,1
"103","CVOE updated",37,1,2,17,"P 95","","",TRUE,"OE","p",542,"oe","P","5","o","e",FALSE,0
"104","CVOE updated",37,1,2,18,"U 06","","",TRUE,"OE","p",652,"oe","U","6","e","e",TRUE,1
"105","CVOE updated",37,1,2,19,"E 75","","",FALSE,"OE","p",599,"oe","E","5","o","e",FALSE,0
"106","CVOE updated",37,1,2,20,"I 67","","",FALSE,"OE","q",808,"oe","I","7","o","o",TRUE,1
"107","CVOE updated",37,1,2,21,"S 13","","",TRUE,"OE","q",643,"oe","S","3","o","o",TRUE,1
"108","CVOE updated",37,1,2,22,"P 78","","",FALSE,"OE","p",787,"oe","P","8","e","e",TRUE,1
"109","CVOE updated",37,1,2,23,"I 15","","",FALSE,"OE","q",737,"oe","I","5","o","o",TRUE,1
"110","CVOE updated",37,1,2,24,"D 27","","",TRUE,"OE","q",788,"oe","D","7","o","o",TRUE,1
"111","CVOE updated",37,1,2,25,"O 94","","",TRUE,"OE","p",858,"oe","O","4","e","e",TRUE,1
"112","CVOE updated",37,1,2,26,"A 65","","",FALSE,"OE","q",669,"oe","A","5","o","o",TRUE,1
"113","CVOE updated",37,1,2,27,"I 42","","",TRUE,"OE","p",931,"oe","I","2","e","e",TRUE,1
"114","CVOE updated",37,1,2,28,"E 25","","",FALSE,"OE","q",774,"oe","E","5","o","o",TRUE,1
"115","CVOE updated",37,1,2,29,"H 49","","",TRUE,"OE","q",1281,"oe","H","9","o","o",TRUE,1
"116","CVOE updated",37,1,2,30,"S 18","","",FALSE,"OE","p",826,"oe","S","8","e","e",TRUE,1
"117","CVOE updated",37,1,2,31,"H 51","","",TRUE,"OE","q",904,"oe","H","1","o","o",TRUE,1
"118","CVOE updated",37,1,2,32,"U 14","","",TRUE,"OE","p",1150,"oe","U","4","e","e",TRUE,1
"119","CVOE updated",37,1,2,33,"E 02","","",TRUE,"OE","p",796,"oe","E","2","e","e",TRUE,1
"120","CVOE updated",37,1,2,34,"J 26","","",FALSE,"OE","p",1676,"oe","J","6","e","e",TRUE,1
"121","CVOE updated",37,1,2,35,"D 24","","",FALSE,"OE","p",741,"oe","D","4","e","e",TRUE,1
"122","CVOE updated",37,1,2,36,"O 50","","",TRUE,"OE","p",2107,"oe","O","0","e","e",TRUE,1
"123","CVOE updated",37,1,2,37,"U 16","","",TRUE,"OE","p",2465,"oe","U","6","e","e",TRUE,1
"124","CVOE updated",37,1,2,38,"O 15","","",FALSE,"OE","q",776,"oe","O","5","o","o",TRUE,1
"125","CVOE updated",37,1,2,39,"D 32","","",FALSE,"OE","p",1387,"oe","D","2","e","e",TRUE,1
"126","CVOE updated",37,1,2,40,"S 67","","",TRUE,"OE","q",761,"oe","S","7","o","o",TRUE,1
"127","CVOE updated",37,1,2,41,"J 74","","",FALSE,"OE","p",1473,"oe","J","4","e","e",TRUE,1
"128","CVOE updated",37,1,2,42,"D 92","","",FALSE,"OE","p",882,"oe","D","2","e","e",TRUE,1
"129","CVOE updated",37,1,2,43,"A 65","","",FALSE,"OE","q",579,"oe","A","5","o","o",TRUE,1
"130","CVOE updated",37,1,2,44,"I 87","","",FALSE,"OE","q",582,"oe","I","7","o","o",TRUE,1
"131","CVOE updated",37,1,2,45,"H 61","","",TRUE,"OE","q",516,"oe","H","1","o","o",TRUE,1
"132","CVOE updated",37,1,2,46,"E 59","","",FALSE,"OE","q",468,"oe","E","9","o","o",TRUE,1
"133","CVOE updated",37,1,2,47,"I 33","","",FALSE,"OE","q",458,"oe","I","3","o","o",TRUE,1
"134","CVOE updated",37,1,2,48,"O 90","","",TRUE,"OE","p",565,"oe","O","0","e","e",TRUE,1
"135","CVOE updated",37,1,2,49,"U 51","","",FALSE,"OE","q",517,"oe","U","1","o","o",TRUE,1
"136","CVOE updated",37,1,2,50,"A 10","","",TRUE,"OE","p",518,"oe","A","0","e","e",TRUE,1
"137","CVOE updated",37,1,2,51,"E 50","","",TRUE,"OE","q",622,"oe","E","0","e","o",FALSE,0
"138","CVOE updated",37,1,2,52,"D 92","","",FALSE,"OE","p",1060,"oe","D","2","e","e",TRUE,1
"139","CVOE updated",37,1,2,53,"E 60","","",TRUE,"OE","p",802,"oe","E","0","e","e",TRUE,1
"140","CVOE updated",37,1,2,54,"A 95","","",FALSE,"OE","p",546,"oe","A","5","o","e",FALSE,0
"141","CVOE updated",37,1,2,55,"E 64","","",TRUE,"OE","p",728,"oe","E","4","e","e",TRUE,1
"142","CVOE updated",37,1,2,56,"P 20","","",FALSE,"OE","p",571,"oe","P","0","e","e",TRUE,1
"143","CVOE updated",37,1,2,57,"S 06","","",FALSE,"OE","q",574,"oe","S","6","e","o",FALSE,0
"144","CVOE updated",37,1,2,58,"P 64","","",FALSE,"OE","p",753,"oe","P","4","e","e",TRUE,1
"145","CVOE updated",37,1,2,59,"U 70","","",TRUE,"OE","p",1754,"oe","U","0","e","e",TRUE,1
"146","CVOE updated",37,1,2,60,"S 16","","",FALSE,"OE","p",915,"oe","S","6","e","e",TRUE,1
"147","CVOE updated",37,1,2,61,"E 35","","",FALSE,"OE","q",1427,"oe","E","5","o","o",TRUE,1
"148","CVOE updated",37,1,2,62,"I 93","","",FALSE,"OE","q",1745,"oe","I","3","o","o",TRUE,1
"149","CVOE updated",37,1,2,63,"D 63","","",TRUE,"OE","q",711,"oe","D","3","o","o",TRUE,1
"150","CVOE updated",37,1,2,64,"U 89","","",FALSE,"OE","q",1373,"oe","U","9","o","o",TRUE,1
"151","CVOE updated",37,1,2,65,"E 91","","",FALSE,"OE","q",1105,"oe","E","1","o","o",TRUE,1
"152","CVOE updated",37,1,2,66,"A 12","","",TRUE,"OE","p",887,"oe","A","2","e","e",TRUE,1
"153","CVOE updated",37,1,2,67,"P 56","","",FALSE,"OE","p",714,"oe","P","6","e","e",TRUE,1
"154","CVOE updated",37,1,2,68,"S 65","","",TRUE,"OE","q",2826,"oe","S","5","o","o",TRUE,1
"155","CVOE updated",37,1,2,69,"P 07","","",TRUE,"OE","q",865,"oe","P","7","o","o",TRUE,1
"156","CVOE updated",37,1,2,70,"I 77","","",FALSE,"OE","q",1151,"oe","I","7","o","o",TRUE,1
"157","CVOE updated",37,1,2,71,"J 19","","",TRUE,"OE","q",1229,"oe","J","9","o","o",TRUE,1
"158","CVOE updated",37,1,2,72,"O 59","","",FALSE,"OE","p",2315,"oe","O","9","o","e",FALSE,0
"159","CVOE updated",37,1,2,73,"J 15","","",TRUE,"OE","p",892,"oe","J","5","o","e",FALSE,0
"160","CVOE updated",37,1,2,74,"I 89","","",FALSE,"OE","q",807,"oe","I","9","o","o",TRUE,1
"161","CVOE updated",37,1,2,75,"O 97","","",FALSE,"OE","q",842,"oe","O","7","o","o",TRUE,1
"162","CVOE updated",37,1,2,76,"A 92","","",TRUE,"OE","p",827,"oe","A","2","e","e",TRUE,1
"163","CVOE updated",37,1,2,77,"J 90","","",FALSE,"OE","p",1560,"oe","J","0","e","e",TRUE,1
"164","CVOE updated",37,1,2,78,"H 65","","",TRUE,"OE","q",1785,"oe","H","5","o","o",TRUE,1
"165","CVOE updated",37,1,2,79,"H 17","","",TRUE,"OE","q",880,"oe","H","7","o","o",TRUE,1
"166","CVOE updated",37,1,2,80,"S 26","","",FALSE,"OE","p",1072,"oe","S","6","e","e",TRUE,1
"167","CVOE updated",37,1,2,81,"D 56","","",FALSE,"OE","p",1342,"oe","D","6","e","e",TRUE,1
"168","CVOE updated",37,1,2,82,"I 91","","",FALSE,"OE","q",852,"oe","I","1","o","o",TRUE,1
"169","CVOE updated",37,1,2,83,"J 11","","",TRUE,"OE","p",2615,"oe","J","1","o","e",FALSE,0
"170","CVOE updated",37,1,2,84,"O 28","","",TRUE,"OE","p",1451,"oe","O","8","e","e",TRUE,1
"171","CVOE updated",37,1,2,85,"H 29","","",TRUE,"OE","q",639,"oe","H","9","o","o",TRUE,1
"172","CVOE updated",37,1,2,86,"J 25","","",TRUE,"OE","q",663,"oe","J","5","o","o",TRUE,1
"173","CVOE updated",37,1,2,87,"A 73","","",FALSE,"OE","q",901,"oe","A","3","o","o",TRUE,1
"174","CVOE updated",37,1,2,88,"J 63","","",TRUE,"OE","q",611,"oe","J","3","o","o",TRUE,1
"175","CVOE updated",37,1,2,89,"U 84","","",TRUE,"OE","p",678,"oe","U","4","e","e",TRUE,1
"176","CVOE updated",37,1,2,90,"A 58","","",TRUE,"OE","p",1270,"oe","A","8","e","e",TRUE,1
"177","CVOE updated",37,1,2,91,"S 43","","",TRUE,"OE","q",2812,"oe","S","3","o","o",TRUE,1
"178","CVOE updated",37,1,2,92,"H 54","","",FALSE,"OE","p",1016,"oe","H","4","e","e",TRUE,1
"179","CVOE updated",37,1,2,93,"D 4","","",FALSE,"OE","q",1051,"oe","D","","o","o",TRUE,1
"180","CVOE updated",37,1,2,94,"J 75","","",TRUE,"OE","q",1015,"oe","J","5","o","o",TRUE,1
"181","CVOE updated",37,1,2,95,"D 19","","",TRUE,"OE","q",698,"oe","D","9","o","o",TRUE,1
"182","CVOE updated",37,1,2,96,"J 38","","",FALSE,"OE","q",757,"oe","J","8","e","o",FALSE,0
"183","CVOE updated",37,1,2,97,"I 56","","",TRUE,"OE","p",854,"oe","I","6","e","e",TRUE,1
"184","CVOE updated",37,1,2,98,"P 87","","",TRUE,"OE","q",3289,"oe","P","7","o","o",TRUE,1
"185","CVOE updated",37,1,2,99,"O 80","","",TRUE,"OE","p",725,"oe","O","0","e","e",TRUE,1
"186","CVOE updated",37,1,2,100,"U 60","","",TRUE,"OE","q",1269,"oe","U","0","e","o",FALSE,0
"187","CVOE updated",37,1,2,101,"P 48","","",FALSE,"OE","p",3091,"oe","P","8","e","e",TRUE,1
"188","CVOE updated",37,1,2,102,"H 64","","",FALSE,"OE","p",831,"oe","H","4","e","e",TRUE,1
"189","CVOE updated",37,1,2,103,"A 13","","",FALSE,"OE","q",901,"oe","A","3","o","o",TRUE,1
"190","CVOE updated",37,1,2,104,"H 68","","",FALSE,"OE","p",1811,"oe","H","8","e","e",TRUE,1
"191","CVOE updated",37,1,2,105,"E 16","","",TRUE,"OE","p",1023,"oe","E","6","e","e",TRUE,1
"192","CVOE updated",37,1,2,106,"S 71","","",TRUE,"OE","q",1029,"oe","S","1","o","o",TRUE,1
"529","CVOE updated",41,1,2,11,"A 24","","",TRUE,"OE","p",1672,"oe","A","4","e","e",TRUE,1
"530","CVOE updated",41,1,2,12,"O 83","","",FALSE,"OE","q",1067,"oe","O","3","o","o",TRUE,1
"531","CVOE updated",41,1,2,13,"H 55","","",TRUE,"OE","p",714,"oe","H","5","o","e",FALSE,0
"532","CVOE updated",41,1,2,14,"P 10","","",FALSE,"OE","p",660,"oe","P","0","e","e",TRUE,1
"533","CVOE updated",41,1,2,15,"D 30","","",FALSE,"OE","p",664,"oe","D","0","e","e",TRUE,1
"534","CVOE updated",41,1,2,16,"U 62","","",TRUE,"OE","p",1292,"oe","U","2","e","e",TRUE,1
"535","CVOE updated",41,1,2,17,"P 95","","",TRUE,"OE","q",708,"oe","P","5","o","o",TRUE,1
"536","CVOE updated",41,1,2,18,"U 06","","",TRUE,"OE","p",566,"oe","U","6","e","e",TRUE,1
"537","CVOE updated",41,1,2,19,"E 75","","",FALSE,"OE","q",536,"oe","E","5","o","o",TRUE,1
"538","CVOE updated",41,1,2,20,"I 67","","",FALSE,"OE","q",630,"oe","I","7","o","o",TRUE,1
"539","CVOE updated",41,1,2,21,"S 13","","",TRUE,"OE","q",575,"oe","S","3","o","o",TRUE,1
"540","CVOE updated",41,1,2,22,"P 78","","",FALSE,"OE","p",663,"oe","P","8","e","e",TRUE,1
"541","CVOE updated",41,1,2,23,"I 15","","",FALSE,"OE","q",435,"oe","I","5","o","o",TRUE,1
"542","CVOE updated",41,1,2,24,"D 27","","",TRUE,"OE","q",650,"oe","D","7","o","o",TRUE,1
"543","CVOE updated",41,1,2,25,"O 94","","",TRUE,"OE","p",512,"oe","O","4","e","e",TRUE,1
"544","CVOE updated",41,1,2,26,"A 65","","",FALSE,"OE","q",513,"oe","A","5","o","o",TRUE,1
"545","CVOE updated",41,1,2,27,"I 42","","",TRUE,"OE","p",598,"oe","I","2","e","e",TRUE,1
"546","CVOE updated",41,1,2,28,"E 25","","",FALSE,"OE","q",568,"oe","E","5","o","o",TRUE,1
"547","CVOE updated",41,1,2,29,"H 49","","",TRUE,"OE","q",785,"oe","H","9","o","o",TRUE,1
"548","CVOE updated",41,1,2,30,"S 18","","",FALSE,"OE","p",691,"oe","S","8","e","e",TRUE,1
"549","CVOE updated",41,1,2,31,"H 51","","",TRUE,"OE","q",527,"oe","H","1","o","o",TRUE,1
"550","CVOE updated",41,1,2,32,"U 14","","",TRUE,"OE","q",752,"oe","U","4","e","o",FALSE,0
"551","CVOE updated",41,1,2,33,"E 02","","",TRUE,"OE","p",513,"oe","E","2","e","e",TRUE,1
"552","CVOE updated",41,1,2,34,"J 26","","",FALSE,"OE","p",564,"oe","J","6","e","e",TRUE,1
"553","CVOE updated",41,1,2,35,"D 24","","",FALSE,"OE","p",435,"oe","D","4","e","e",TRUE,1
"554","CVOE updated",41,1,2,36,"O 50","","",TRUE,"OE","q",673,"oe","O","0","e","o",FALSE,0
"555","CVOE updated",41,1,2,37,"U 16","","",TRUE,"OE","p",527,"oe","U","6","e","e",TRUE,1
"556","CVOE updated",41,1,2,38,"O 15","","",FALSE,"OE","q",839,"oe","O","5","o","o",TRUE,1
"557","CVOE updated",41,1,2,39,"D 32","","",FALSE,"OE","p",573,"oe","D","2","e","e",TRUE,1
"558","CVOE updated",41,1,2,40,"S 67","","",TRUE,"OE","q",788,"oe","S","7","o","o",TRUE,1
"559","CVOE updated",41,1,2,41,"J 74","","",FALSE,"OE","p",753,"oe","J","4","e","e",TRUE,1
"560","CVOE updated",41,1,2,42,"D 92","","",FALSE,"OE","p",545,"oe","D","2","e","e",TRUE,1
"561","CVOE updated",41,1,2,43,"A 65","","",FALSE,"OE","q",753,"oe","A","5","o","o",TRUE,1
"562","CVOE updated",41,1,2,44,"I 87","","",FALSE,"OE","q",591,"oe","I","7","o","o",TRUE,1
"563","CVOE updated",41,1,2,45,"H 61","","",TRUE,"OE","q",873,"oe","H","1","o","o",TRUE,1
"564","CVOE updated",41,1,2,46,"E 59","","",FALSE,"OE","q",995,"oe","E","9","o","o",TRUE,1
"565","CVOE updated",41,1,2,47,"I 33","","",FALSE,"OE","q",1278,"oe","I","3","o","o",TRUE,1
"566","CVOE updated",41,1,2,48,"O 90","","",TRUE,"OE","p",480,"oe","O","0","e","e",TRUE,1
"567","CVOE updated",41,1,2,49,"U 51","","",FALSE,"OE","q",638,"oe","U","1","o","o",TRUE,1
"568","CVOE updated",41,1,2,50,"A 10","","",TRUE,"OE","p",473,"oe","A","0","e","e",TRUE,1
"569","CVOE updated",41,1,2,51,"E 50","","",TRUE,"OE","p",531,"oe","E","0","e","e",TRUE,1
"570","CVOE updated",41,1,2,52,"D 92","","",FALSE,"OE","p",586,"oe","D","2","e","e",TRUE,1
"571","CVOE updated",41,1,2,53,"E 60","","",TRUE,"OE","p",431,"oe","E","0","e","e",TRUE,1
"572","CVOE updated",41,1,2,54,"A 95","","",FALSE,"OE","q",531,"oe","A","5","o","o",TRUE,1
"573","CVOE updated",41,1,2,55,"E 64","","",TRUE,"OE","p",551,"oe","E","4","e","e",TRUE,1
"574","CVOE updated",41,1,2,56,"P 20","","",FALSE,"OE","q",491,"oe","P","0","e","o",FALSE,0
"575","CVOE updated",41,1,2,57,"S 06","","",FALSE,"OE","p",501,"oe","S","6","e","e",TRUE,1
"576","CVOE updated",41,1,2,58,"P 64","","",FALSE,"OE","p",330,"oe","P","4","e","e",TRUE,1
"577","CVOE updated",41,1,2,59,"U 70","","",TRUE,"OE","p",521,"oe","U","0","e","e",TRUE,1
"578","CVOE updated",41,1,2,60,"S 16","","",FALSE,"OE","p",499,"oe","S","6","e","e",TRUE,1
"579","CVOE updated",41,1,2,61,"E 35","","",FALSE,"OE","q",595,"oe","E","5","o","o",TRUE,1
"580","CVOE updated",41,1,2,62,"I 93","","",FALSE,"OE","p",548,"oe","I","3","o","e",FALSE,0
"581","CVOE updated",41,1,2,63,"D 63","","",TRUE,"OE","p",515,"oe","D","3","o","e",FALSE,0
"582","CVOE updated",41,1,2,64,"U 89","","",FALSE,"OE","q",336,"oe","U","9","o","o",TRUE,1
"583","CVOE updated",41,1,2,65,"E 91","","",FALSE,"OE","q",643,"oe","E","1","o","o",TRUE,1
"584","CVOE updated",41,1,2,66,"A 12","","",TRUE,"OE","p",479,"oe","A","2","e","e",TRUE,1
"585","CVOE updated",41,1,2,67,"P 56","","",FALSE,"OE","p",504,"oe","P","6","e","e",TRUE,1
"586","CVOE updated",41,1,2,68,"S 65","","",TRUE,"OE","q",548,"oe","S","5","o","o",TRUE,1
"587","CVOE updated",41,1,2,69,"P 07","","",TRUE,"OE","q",418,"oe","P","7","o","o",TRUE,1
"588","CVOE updated",41,1,2,70,"I 77","","",FALSE,"OE","q",699,"oe","I","7","o","o",TRUE,1
"589","CVOE updated",41,1,2,71,"J 19","","",TRUE,"OE","q",774,"oe","J","9","o","o",TRUE,1
"590","CVOE updated",41,1,2,72,"O 59","","",FALSE,"OE","q",411,"oe","O","9","o","o",TRUE,1
"591","CVOE updated",41,1,2,73,"J 15","","",TRUE,"OE","q",277,"oe","J","5","o","o",TRUE,1
"592","CVOE updated",41,1,2,74,"I 89","","",FALSE,"OE","q",626,"oe","I","9","o","o",TRUE,1
"593","CVOE updated",41,1,2,75,"O 97","","",FALSE,"OE","q",465,"oe","O","7","o","o",TRUE,1
"594","CVOE updated",41,1,2,76,"A 92","","",TRUE,"OE","q",470,"oe","A","2","e","o",FALSE,0
"595","CVOE updated",41,1,2,77,"J 90","","",FALSE,"OE","p",486,"oe","J","0","e","e",TRUE,1
"596","CVOE updated",41,1,2,78,"H 65","","",TRUE,"OE","q",882,"oe","H","5","o","o",TRUE,1
"597","CVOE updated",41,1,2,79,"H 17","","",TRUE,"OE","q",465,"oe","H","7","o","o",TRUE,1
"598","CVOE updated",41,1,2,80,"S 26","","",FALSE,"OE","p",447,"oe","S","6","e","e",TRUE,1
"599","CVOE updated",41,1,2,81,"D 56","","",FALSE,"OE","p",471,"oe","D","6","e","e",TRUE,1
"600","CVOE updated",41,1,2,82,"I 91","","",FALSE,"OE","q",565,"oe","I","1","o","o",TRUE,1
"601","CVOE updated",41,1,2,83,"J 11","","",TRUE,"OE","q",647,"oe","J","1","o","o",TRUE,1
"602","CVOE updated",41,1,2,84,"O 28","","",TRUE,"OE","q",603,"oe","O","8","e","o",FALSE,0
"603","CVOE updated",41,1,2,85,"H 29","","",TRUE,"OE","q",639,"oe","H","9","o","o",TRUE,1
"604","CVOE updated",41,1,2,86,"J 25","","",TRUE,"OE","p",412,"oe","J","5","o","e",FALSE,0
"605","CVOE updated",41,1,2,87,"A 73","","",FALSE,"OE","q",713,"oe","A","3","o","o",TRUE,1
"606","CVOE updated",41,1,2,88,"J 63","","",TRUE,"OE","q",425,"oe","J","3","o","o",TRUE,1
"607","CVOE updated",41,1,2,89,"U 84","","",TRUE,"OE","p",570,"oe","U","4","e","e",TRUE,1
"608","CVOE updated",41,1,2,90,"A 58","","",TRUE,"OE","p",649,"oe","A","8","e","e",TRUE,1
"609","CVOE updated",41,1,2,91,"S 43","","",TRUE,"OE","q",573,"oe","S","3","o","o",TRUE,1
"610","CVOE updated",41,1,2,92,"H 54","","",FALSE,"OE","p",810,"oe","H","4","e","e",TRUE,1
"611","CVOE updated",41,1,2,93,"D 4","","",FALSE,"OE","p",578,"oe","D","","o","e",FALSE,0
"612","CVOE updated",41,1,2,94,"J 75","","",TRUE,"OE","q",494,"oe","J","5","o","o",TRUE,1
"613","CVOE updated",41,1,2,95,"D 19","","",TRUE,"OE","q",539,"oe","D","9","o","o",TRUE,1
"614","CVOE updated",41,1,2,96,"J 38","","",FALSE,"OE","q",397,"oe","J","8","e","o",FALSE,0
"615","CVOE updated",41,1,2,97,"I 56","","",TRUE,"OE","p",485,"oe","I","6","e","e",TRUE,1
"616","CVOE updated",41,1,2,98,"P 87","","",TRUE,"OE","q",515,"oe","P","7","o","o",TRUE,1
