ExperimentName,Subject,Group,Block,Trial,STIM,TASK,Switch,Congruent,CVOE,Response,RT,block_type,letter,number,key2,response2,match2,score2,zRT
CVOE updated,5,1,1,11,A 71,,,FALSE,CV,p,2144,cv,A,1,v,v,TRUE,1,1.80319412
CVOE updated,5,1,1,12,I 66,,,TRUE,CV,q,783,cv,I,6,v,c,FALSE,0,-0.416656108
CVOE updated,5,1,1,13,S 30,,,FALSE,CV,q,636,cv,S,0,c,c,TRUE,1,-0.656419505
CVOE updated,5,1,1,14,D 20,,,FALSE,CV,q,1261,cv,D,0,c,c,TRUE,1,0.362982694
CVOE updated,5,1,1,15,I 31,,,FALSE,CV,p,611,cv,I,1,v,v,TRUE,1,-0.697195593
CVOE updated,5,1,1,16,P 16,,,FALSE,CV,q,574,cv,P,6,c,c,TRUE,1,-0.757544203
CVOE updated,5,1,1,17,A 49,,,FALSE,CV,p,777,cv,A,9,v,v,TRUE,1,-0.426442369
CVOE updated,5,1,1,18,O 64,,,TRUE,CV,p,420,cv,O,4,v,v,TRUE,1,-1.008724905
CVOE updated,5,1,1,19,D 02,,,FALSE,CV,q,466,cv,D,2,c,c,TRUE,1,-0.933696903
CVOE updated,5,1,1,20,P 81,,,TRUE,CV,q,904,cv,P,1,c,c,TRUE,1,-0.219299842
CVOE updated,5,1,1,21,J 58,,,FALSE,CV,q,693,cv,J,8,c,c,TRUE,1,-0.563450024
CVOE updated,5,1,1,22,A 22,,,TRUE,CV,p,633,cv,A,2,v,v,TRUE,1,-0.661312635
CVOE updated,5,1,1,23,J 72,,,FALSE,CV,q,582,cv,J,2,c,c,TRUE,1,-0.744495855
CVOE updated,5,1,1,24,P 91,,,TRUE,CV,q,868,cv,P,1,c,c,TRUE,1,-0.278017409
CVOE updated,5,1,1,25,E 19,,,FALSE,CV,p,642,cv,E,9,v,v,TRUE,1,-0.646633244
CVOE updated,5,1,1,26,I 30,,,TRUE,CV,q,602,cv,I,0,v,c,FALSE,0,-0.711874984
CVOE updated,5,1,1,27,D 91,,,TRUE,CV,q,587,cv,D,1,c,c,TRUE,1,-0.736340637
CVOE updated,5,1,1,28,O 48,,,TRUE,CV,p,441,cv,O,8,v,v,TRUE,1,-0.974472991
CVOE updated,5,1,1,29,A 89,,,FALSE,CV,p,921,cv,A,9,v,v,TRUE,1,-0.191572102
CVOE updated,5,1,1,30,U 11,,,FALSE,CV,p,826,cv,U,1,v,v,TRUE,1,-0.346521236
CVOE updated,5,1,1,31,I 76,,,TRUE,CV,q,1015,cv,I,6,v,c,FALSE,0,-0.038254011
CVOE updated,5,1,1,32,U 89,,,FALSE,CV,p,827,cv,U,9,v,v,TRUE,1,-0.344890193
CVOE updated,5,1,1,33,D 63,,,TRUE,CV,q,960,cv,D,3,c,c,TRUE,1,-0.127961405
CVOE updated,5,1,1,34,H 70,,,FALSE,CV,q,689,cv,H,0,c,c,TRUE,1,-0.569974198
CVOE updated,5,1,1,35,D 48,,,FALSE,CV,q,732,cv,D,8,c,c,TRUE,1,-0.499839327
CVOE updated,5,1,1,36,P 56,,,FALSE,CV,q,895,cv,P,6,c,c,TRUE,1,-0.233979234
CVOE updated,5,1,1,37,O 77,,,FALSE,CV,p,658,cv,O,7,v,v,TRUE,1,-0.620536547
CVOE updated,5,1,1,38,P 42,,,FALSE,CV,q,766,cv,P,2,c,c,TRUE,1,-0.444383847
CVOE updated,5,1,1,39,H 22,,,FALSE,CV,q,870,cv,H,2,c,c,TRUE,1,-0.274755321
CVOE updated,5,1,1,40,E 42,,,TRUE,CV,p,716,cv,E,2,v,v,TRUE,1,-0.525936023
CVOE updated,5,1,1,41,J 28,,,FALSE,CV,q,588,cv,J,8,c,c,TRUE,1,-0.734709594
CVOE updated,5,1,1,42,E 95,,,FALSE,CV,p,506,cv,E,5,v,v,TRUE,1,-0.868455162
CVOE updated,5,1,1,43,S 63,,,TRUE,CV,q,640,cv,S,3,c,c,TRUE,1,-0.649895331
CVOE updated,5,1,1,44,H 50,,,FALSE,CV,q,1032,cv,H,0,c,c,TRUE,1,-0.010526272
CVOE updated,5,1,1,45,S 33,,,TRUE,CV,q,470,cv,S,3,c,c,TRUE,1,-0.927172729
CVOE updated,5,1,1,46,P 57,,,TRUE,CV,q,836,cv,P,7,c,c,TRUE,1,-0.330210801
CVOE updated,5,1,1,47,E 23,,,FALSE,CV,p,828,cv,E,3,v,v,TRUE,1,-0.343259149
CVOE updated,5,1,1,48,S 61,,,TRUE,CV,q,1066,cv,S,1,c,c,TRUE,1,0.044929208
CVOE updated,5,1,1,49,U 67,,,FALSE,CV,p,528,cv,U,7,v,v,TRUE,1,-0.832572205
CVOE updated,5,1,1,50,H 32,,,FALSE,CV,q,547,cv,H,2,c,c,TRUE,1,-0.801582378
CVOE updated,5,1,1,51,U 50,,,TRUE,CV,p,609,cv,U,0,v,v,TRUE,1,-0.70045768
CVOE updated,5,1,1,52,O 49,,,FALSE,CV,p,452,cv,O,9,v,v,TRUE,1,-0.956531512
CVOE updated,5,1,1,53,U 32,,,TRUE,CV,p,479,cv,U,2,v,v,TRUE,1,-0.912493337
CVOE updated,5,1,1,54,J 78,,,FALSE,CV,q,560,cv,J,8,c,c,TRUE,1,-0.780378812
CVOE updated,5,1,1,55,S 54,,,FALSE,CV,q,504,cv,S,4,c,c,TRUE,1,-0.871717249
CVOE updated,5,1,1,56,J 27,,,TRUE,CV,q,638,cv,J,7,c,c,TRUE,1,-0.653157418
CVOE updated,5,1,1,57,S 06,,,FALSE,CV,q,470,cv,S,6,c,c,TRUE,1,-0.927172729
CVOE updated,5,1,1,58,D 67,,,TRUE,CV,q,644,cv,D,7,c,c,TRUE,1,-0.643371157
CVOE updated,5,1,1,59,A 79,,,FALSE,CV,p,580,cv,A,9,v,v,TRUE,1,-0.747757942
CVOE updated,5,1,1,60,S 52,,,FALSE,CV,q,466,cv,S,2,c,c,TRUE,1,-0.933696903
CVOE updated,5,1,1,61,U 16,,,TRUE,CV,p,912,cv,U,6,v,v,TRUE,1,-0.206251494
CVOE updated,5,1,1,62,O 82,,,TRUE,CV,p,670,cv,O,2,v,v,TRUE,1,-0.600964025
CVOE updated,5,1,1,63,H 87,,,TRUE,CV,q,547,cv,H,7,c,c,TRUE,1,-0.801582378
CVOE updated,5,1,1,64,I 32,,,TRUE,CV,p,881,cv,I,2,v,v,TRUE,1,-0.256813843
CVOE updated,5,1,1,65,U 37,,,FALSE,CV,p,562,cv,U,7,v,v,TRUE,1,-0.777116725
CVOE updated,5,1,1,66,I 42,,,TRUE,CV,p,946,cv,I,2,v,v,TRUE,1,-0.150796014
CVOE updated,5,1,1,67,D 65,,,TRUE,CV,q,416,cv,D,5,c,c,TRUE,1,-1.015249079
CVOE updated,5,1,1,68,U 77,,,FALSE,CV,p,491,cv,U,7,v,v,TRUE,1,-0.892920815
CVOE updated,5,1,1,69,E 12,,,TRUE,CV,q,590,cv,E,2,v,c,FALSE,0,-0.731447507
CVOE updated,5,1,1,70,I 60,,,TRUE,CV,p,964,cv,I,0,v,v,TRUE,1,-0.121437231
CVOE updated,5,1,1,71,J 36,,,FALSE,CV,q,1332,cv,J,6,c,c,TRUE,1,0.478786784
CVOE updated,5,1,1,72,H 75,,,TRUE,CV,q,1288,cv,H,5,c,c,TRUE,1,0.407020869
CVOE updated,5,1,1,73,I 50,,,TRUE,CV,q,555,cv,I,0,v,c,FALSE,0,-0.78853403
CVOE updated,5,1,1,74,E 99,,,FALSE,CV,p,956,cv,E,9,v,v,TRUE,1,-0.134485579
CVOE updated,5,1,1,75,A 86,,,TRUE,CV,q,716,cv,A,6,v,c,FALSE,0,-0.525936023
CVOE updated,5,1,1,76,U 48,,,TRUE,CV,p,533,cv,U,8,v,v,TRUE,1,-0.824416987
CVOE updated,5,1,1,77,E 01,,,FALSE,CV,p,656,cv,E,1,v,v,TRUE,1,-0.623798634
CVOE updated,5,1,1,78,A 78,,,TRUE,CV,q,731,cv,A,8,v,c,FALSE,0,-0.50147037
CVOE updated,5,1,1,79,P 60,,,FALSE,CV,q,598,cv,P,0,c,c,TRUE,1,-0.718399158
CVOE updated,5,1,1,80,E 43,,,FALSE,CV,p,958,cv,E,3,v,v,TRUE,1,-0.131223492
CVOE updated,5,1,1,81,D 69,,,TRUE,CV,q,559,cv,D,9,c,c,TRUE,1,-0.782009856
CVOE updated,5,1,1,82,H 11,,,TRUE,CV,q,895,cv,H,1,c,c,TRUE,1,-0.233979234
CVOE updated,5,1,1,83,P 43,,,TRUE,CV,q,619,cv,P,3,c,c,TRUE,1,-0.684147245
CVOE updated,5,1,1,84,O 67,,,FALSE,CV,p,1134,cv,O,7,v,v,TRUE,1,0.155840167
CVOE updated,5,1,1,85,S 91,,,FALSE,CV,q,505,cv,S,1,c,c,TRUE,1,-0.870086206
CVOE updated,5,1,1,86,J 68,,,TRUE,CV,q,647,cv,J,8,c,c,TRUE,1,-0.638478026
CVOE updated,5,1,1,87,S 47,,,FALSE,CV,q,762,cv,S,7,c,c,TRUE,1,-0.450908021
CVOE updated,5,1,1,88,I 81,,,TRUE,CV,p,690,cv,I,1,v,v,TRUE,1,-0.568343155
CVOE updated,5,1,1,89,J 39,,,FALSE,CV,q,621,cv,J,9,c,c,TRUE,1,-0.680885157
CVOE updated,5,1,1,90,A 11,,,TRUE,CV,p,811,cv,A,1,v,v,TRUE,1,-0.370986889
CVOE updated,5,1,1,91,O 76,,,FALSE,CV,p,510,cv,O,6,v,v,TRUE,1,-0.861930988
CVOE updated,5,1,1,92,A 62,,,FALSE,CV,p,1260,cv,A,2,v,v,TRUE,1,0.36135165
CVOE updated,5,1,1,93,O 27,,,TRUE,CV,p,466,cv,O,7,v,v,TRUE,1,-0.933696903
CVOE updated,5,1,1,94,E 66,,,FALSE,CV,q,552,cv,E,6,v,c,FALSE,0,-0.79342716
CVOE updated,5,1,1,95,J 62,,,TRUE,CV,q,774,cv,J,2,c,c,TRUE,1,-0.431335499
CVOE updated,5,1,1,96,H 72,,,TRUE,CV,q,609,cv,H,2,c,c,TRUE,1,-0.70045768
CVOE updated,5,1,1,97,E 49,,,TRUE,CV,p,948,cv,E,9,v,v,TRUE,1,-0.147533927
CVOE updated,5,1,1,98,D 52,,,TRUE,CV,q,466,cv,D,2,c,c,TRUE,1,-0.933696903
CVOE updated,5,1,1,99,H 62,,,TRUE,CV,q,551,cv,H,2,c,c,TRUE,1,-0.795058204
CVOE updated,5,1,1,100,I 11,,,TRUE,CV,p,637,cv,I,1,v,v,TRUE,1,-0.654788461
CVOE updated,5,1,1,101,A 98,,,FALSE,CV,p,1494,cv,A,8,v,v,TRUE,1,0.743015834
CVOE updated,5,1,1,102,H 29,,,FALSE,CV,q,1457,cv,H,9,c,c,TRUE,1,0.682667224
CVOE updated,5,1,1,103,E 83,,,TRUE,CV,p,596,cv,E,3,v,v,TRUE,1,-0.721661245
CVOE updated,5,1,1,104,D 43,,,FALSE,CV,q,501,cv,D,3,c,c,TRUE,1,-0.87661038
CVOE updated,5,1,1,105,P 45,,,TRUE,CV,q,491,cv,P,5,c,c,TRUE,1,-0.892920815
CVOE updated,5,1,1,106,J 17,,,TRUE,CV,q,462,cv,J,7,c,c,TRUE,1,-0.940221077
CVOE updated,1,1,1,11,A 71,,,FALSE,CV,p,2421,cv,A,1,v,v,TRUE,1,0.839458897
CVOE updated,1,1,1,12,I 66,,,TRUE,CV,p,717,cv,I,6,v,v,TRUE,1,-0.532861912
CVOE updated,1,1,1,13,S 30,,,FALSE,CV,q,566,cv,S,0,c,c,TRUE,1,-0.654470153
CVOE updated,1,1,1,14,D 20,,,FALSE,CV,q,868,cv,D,0,c,c,TRUE,1,-0.411253672
CVOE updated,1,1,1,15,I 31,,,FALSE,CV,p,550,cv,I,1,v,v,TRUE,1,-0.667355794
CVOE updated,1,1,1,16,P 16,,,FALSE,CV,q,731,cv,P,6,c,c,TRUE,1,-0.521586976
CVOE updated,1,1,1,17,A 49,,,FALSE,CV,p,784,cv,A,9,v,v,TRUE,1,-0.478903289
CVOE updated,1,1,1,18,O 64,,,TRUE,CV,p,1165,cv,O,4,v,v,TRUE,1,-0.172063953
CVOE updated,1,1,1,19,D 02,,,FALSE,CV,q,1267,cv,D,2,c,c,TRUE,1,-0.089917989
CVOE updated,1,1,1,20,P 81,,,TRUE,CV,q,1141,cv,P,1,c,c,TRUE,1,-0.191392415
CVOE updated,1,1,1,21,J 58,,,FALSE,CV,q,3512,cv,J,8,c,c,TRUE,1,1.71809857
CVOE updated,1,1,1,22,A 22,,,TRUE,CV,p,492,cv,A,2,v,v,TRUE,1,-0.714066245
CVOE updated,1,1,1,23,J 72,,,FALSE,CV,q,599,cv,J,2,c,c,TRUE,1,-0.627893518
CVOE updated,1,1,1,24,P 91,,,TRUE,CV,q,590,cv,P,1,c,c,TRUE,1,-0.635141691
CVOE updated,1,1,1,25,E 19,,,FALSE,CV,p,666,cv,E,9,v,v,TRUE,1,-0.573934894
CVOE updated,1,1,1,26,I 30,,,TRUE,CV,p,710,cv,I,0,v,v,TRUE,1,-0.53849938
CVOE updated,1,1,1,27,D 91,,,TRUE,CV,q,515,cv,D,1,c,c,TRUE,1,-0.695543135
CVOE updated,1,1,1,28,O 48,,,TRUE,CV,p,823,cv,O,8,v,v,TRUE,1,-0.447494538
CVOE updated,1,1,1,29,A 89,,,FALSE,CV,p,545,cv,A,9,v,v,TRUE,1,-0.671382557
CVOE updated,1,1,1,30,U 11,,,FALSE,CV,p,736,cv,U,1,v,v,TRUE,1,-0.517560213
CVOE updated,1,1,1,31,I 76,,,TRUE,CV,p,608,cv,I,6,v,v,TRUE,1,-0.620645344
CVOE updated,1,1,1,32,U 89,,,FALSE,CV,p,978,cv,U,9,v,v,TRUE,1,-0.322664887
CVOE updated,1,1,1,33,D 63,,,TRUE,CV,q,482,cv,D,3,c,c,TRUE,1,-0.72211977
CVOE updated,1,1,1,34,H 70,,,FALSE,CV,q,795,cv,H,0,c,c,TRUE,1,-0.470044411
CVOE updated,1,1,1,35,D 48,,,FALSE,CV,q,585,cv,D,8,c,c,TRUE,1,-0.639168454
CVOE updated,1,1,1,36,P 56,,,FALSE,CV,p,520,cv,P,6,c,v,FALSE,0,-0.691516372
CVOE updated,1,1,1,37,O 77,,,FALSE,CV,p,1241,cv,O,7,v,v,TRUE,1,-0.110857157
CVOE updated,1,1,1,38,P 42,,,FALSE,CV,q,601,cv,P,2,c,c,TRUE,1,-0.626282812
CVOE updated,1,1,1,39,H 22,,,FALSE,CV,q,808,cv,H,2,c,c,TRUE,1,-0.459574827
CVOE updated,1,1,1,40,E 42,,,TRUE,CV,p,579,cv,E,2,v,v,TRUE,1,-0.644000569
CVOE updated,1,1,1,41,J 28,,,FALSE,CV,q,537,cv,J,8,c,c,TRUE,1,-0.677825378
CVOE updated,1,1,1,42,E 95,,,FALSE,CV,p,698,cv,E,5,v,v,TRUE,1,-0.548163612
CVOE updated,1,1,1,43,S 63,,,TRUE,CV,q,1279,cv,S,3,c,c,TRUE,1,-0.080253758
CVOE updated,1,1,1,44,H 50,,,FALSE,CV,q,1077,cv,H,0,c,c,TRUE,1,-0.242934981
CVOE updated,1,1,1,45,S 33,,,TRUE,CV,q,619,cv,S,3,c,c,TRUE,1,-0.611786466
CVOE updated,1,1,1,46,P 57,,,TRUE,CV,q,705,cv,P,7,c,c,TRUE,1,-0.542526143
CVOE updated,1,1,1,47,E 23,,,FALSE,CV,p,568,cv,E,3,v,v,TRUE,1,-0.652859448
CVOE updated,1,1,1,48,S 61,,,TRUE,CV,q,465,cv,S,1,c,c,TRUE,1,-0.735810764
CVOE updated,1,1,1,49,U 67,,,FALSE,CV,p,564,cv,U,7,v,v,TRUE,1,-0.656080858
CVOE updated,1,1,1,50,H 32,,,FALSE,CV,q,507,cv,H,2,c,c,TRUE,1,-0.701985956
CVOE updated,1,1,1,51,U 50,,,TRUE,CV,p,635,cv,U,0,v,v,TRUE,1,-0.598900825
CVOE updated,1,1,1,52,O 49,,,FALSE,CV,p,2704,cv,O,9,v,v,TRUE,1,1.067373679
CVOE updated,1,1,1,53,U 32,,,TRUE,CV,p,865,cv,U,2,v,v,TRUE,1,-0.413669729
CVOE updated,1,1,1,54,J 78,,,FALSE,CV,q,523,cv,J,8,c,c,TRUE,1,-0.689100314
CVOE updated,1,1,1,55,S 54,,,FALSE,CV,q,577,cv,S,4,c,c,TRUE,1,-0.645611275
CVOE updated,1,1,1,56,J 27,,,TRUE,CV,q,680,cv,J,7,c,c,TRUE,1,-0.562659958
CVOE updated,1,1,1,57,S 06,,,FALSE,CV,q,387,cv,S,6,c,c,TRUE,1,-0.798628266
CVOE updated,1,1,1,58,D 67,,,TRUE,CV,q,411,cv,D,7,c,c,TRUE,1,-0.779299804
CVOE updated,1,1,1,59,A 79,,,FALSE,CV,p,500,cv,A,9,v,v,TRUE,1,-0.707623424
CVOE updated,1,1,1,60,S 52,,,FALSE,CV,q,490,cv,S,2,c,c,TRUE,1,-0.71567695
CVOE updated,1,1,1,61,U 16,,,TRUE,CV,p,1018,cv,U,6,v,v,TRUE,1,-0.290450784
CVOE updated,1,1,1,62,O 82,,,TRUE,CV,p,609,cv,O,2,v,v,TRUE,1,-0.619839992
CVOE updated,1,1,1,63,H 87,,,TRUE,CV,q,586,cv,H,7,c,c,TRUE,1,-0.638363101
CVOE updated,1,1,1,64,I 32,,,TRUE,CV,p,397,cv,I,2,v,v,TRUE,1,-0.79057474
CVOE updated,1,1,1,65,U 37,,,FALSE,CV,p,543,cv,U,7,v,v,TRUE,1,-0.672993263
CVOE updated,1,1,1,66,I 42,,,TRUE,CV,p,455,cv,I,2,v,v,TRUE,1,-0.74386429
CVOE updated,1,1,1,67,D 65,,,TRUE,CV,q,432,cv,D,5,c,c,TRUE,1,-0.7623874
CVOE updated,1,1,1,68,U 77,,,FALSE,CV,p,619,cv,U,7,v,v,TRUE,1,-0.611786466
CVOE updated,1,1,1,69,E 12,,,TRUE,CV,p,464,cv,E,2,v,v,TRUE,1,-0.736616117
CVOE updated,1,1,1,70,I 60,,,TRUE,CV,p,490,cv,I,0,v,v,TRUE,1,-0.71567695
CVOE updated,1,1,1,71,J 36,,,FALSE,CV,q,545,cv,J,6,c,c,TRUE,1,-0.671382557
CVOE updated,1,1,1,72,H 75,,,TRUE,CV,q,2057,cv,H,5,c,c,TRUE,1,0.546310555
CVOE updated,1,1,1,73,I 50,,,TRUE,CV,p,504,cv,I,0,v,v,TRUE,1,-0.704402013
CVOE updated,1,1,1,74,E 99,,,FALSE,CV,p,771,cv,E,9,v,v,TRUE,1,-0.489372873
CVOE updated,1,1,1,75,A 86,,,TRUE,CV,p,596,cv,A,6,v,v,TRUE,1,-0.630309575
CVOE updated,1,1,1,76,U 48,,,TRUE,CV,p,514,cv,U,8,v,v,TRUE,1,-0.696348488
CVOE updated,1,1,1,77,E 01,,,FALSE,CV,p,468,cv,E,1,v,v,TRUE,1,-0.733394707
CVOE updated,1,1,1,78,A 78,,,TRUE,CV,p,356,cv,A,8,v,v,TRUE,1,-0.823594196
CVOE updated,1,1,1,79,P 60,,,FALSE,CV,q,500,cv,P,0,c,c,TRUE,1,-0.707623424
CVOE updated,1,1,1,80,E 43,,,FALSE,CV,p,662,cv,E,3,v,v,TRUE,1,-0.577156305
CVOE updated,1,1,1,81,D 69,,,TRUE,CV,q,627,cv,D,9,c,c,TRUE,1,-0.605343645
CVOE updated,1,1,1,82,H 11,,,TRUE,CV,q,634,cv,H,1,c,c,TRUE,1,-0.599706177
CVOE updated,1,1,1,83,P 43,,,TRUE,CV,q,568,cv,P,3,c,c,TRUE,1,-0.652859448
CVOE updated,1,1,1,84,O 67,,,FALSE,CV,p,433,cv,O,7,v,v,TRUE,1,-0.761582047
CVOE updated,1,1,1,85,S 91,,,FALSE,CV,q,533,cv,S,1,c,c,TRUE,1,-0.681046788
CVOE updated,1,1,1,86,J 68,,,TRUE,CV,q,674,cv,J,8,c,c,TRUE,1,-0.567492074
CVOE updated,1,1,1,87,S 47,,,FALSE,CV,q,443,cv,S,7,c,c,TRUE,1,-0.753528521
CVOE updated,1,1,1,88,I 81,,,TRUE,CV,p,478,cv,I,1,v,v,TRUE,1,-0.725341181
CVOE updated,1,1,1,89,J 39,,,FALSE,CV,q,483,cv,J,9,c,c,TRUE,1,-0.721314418
CVOE updated,1,1,1,90,A 11,,,TRUE,CV,p,454,cv,A,1,v,v,TRUE,1,-0.744669643
CVOE updated,1,1,1,91,O 76,,,FALSE,CV,p,726,cv,O,6,v,v,TRUE,1,-0.525613739
CVOE updated,1,1,1,92,A 62,,,FALSE,CV,p,563,cv,A,2,v,v,TRUE,1,-0.656886211
CVOE updated,1,1,1,93,O 27,,,TRUE,CV,p,554,cv,O,7,v,v,TRUE,1,-0.664134384
CVOE updated,1,1,1,94,E 66,,,FALSE,CV,p,653,cv,E,6,v,v,TRUE,1,-0.584404478
CVOE updated,1,1,1,95,J 62,,,TRUE,CV,q,924,cv,J,2,c,c,TRUE,1,-0.366153927
CVOE updated,1,1,1,96,H 72,,,TRUE,CV,q,541,cv,H,2,c,c,TRUE,1,-0.674603968
CVOE updated,1,1,1,97,E 49,,,TRUE,CV,p,575,cv,E,9,v,v,TRUE,1,-0.64722198
CVOE updated,1,1,1,98,D 52,,,TRUE,CV,q,754,cv,D,2,c,c,TRUE,1,-0.503063867
CVOE updated,1,1,1,99,H 62,,,TRUE,CV,q,633,cv,H,2,c,c,TRUE,1,-0.60051153
CVOE updated,1,1,1,100,I 11,,,TRUE,CV,p,544,cv,I,1,v,v,TRUE,1,-0.67218791
CVOE updated,1,1,1,101,A 98,,,FALSE,CV,p,588,cv,A,8,v,v,TRUE,1,-0.636752396
CVOE updated,1,1,1,102,H 29,,,FALSE,CV,q,516,cv,H,9,c,c,TRUE,1,-0.694737782
CVOE updated,1,1,1,103,E 83,,,TRUE,CV,p,544,cv,E,3,v,v,TRUE,1,-0.67218791
CVOE updated,1,1,1,104,D 43,,,FALSE,CV,q,919,cv,D,3,c,c,TRUE,1,-0.37018069
CVOE updated,1,1,1,105,P 45,,,TRUE,CV,q,658,cv,P,5,c,c,TRUE,1,-0.580377715
CVOE updated,1,1,1,106,J 17,,,TRUE,CV,q,504,cv,J,7,c,c,TRUE,1,-0.704402013
CVOE updated,9,1,1,11,A 71,,,FALSE,CV,p,1803,cv,A,1,v,v,TRUE,1,2.262653857
CVOE updated,9,1,1,12,I 66,,,TRUE,CV,p,612,cv,I,6,v,v,TRUE,1,-0.553468761
CVOE updated,9,1,1,13,S 30,,,FALSE,CV,q,487,cv,S,0,c,c,TRUE,1,-0.849031588
CVOE updated,9,1,1,14,D 20,,,FALSE,CV,q,571,cv,D,0,c,c,TRUE,1,-0.650413368
CVOE updated,9,1,1,15,I 31,,,FALSE,CV,p,526,cv,I,1,v,v,TRUE,1,-0.756815986
CVOE updated,9,1,1,16,P 16,,,FALSE,CV,q,590,cv,P,6,c,c,TRUE,1,-0.605487819
CVOE updated,9,1,1,17,A 49,,,FALSE,CV,p,524,cv,A,9,v,v,TRUE,1,-0.761544991
CVOE updated,9,1,1,18,O 64,,,TRUE,CV,p,612,cv,O,4,v,v,TRUE,1,-0.553468761
CVOE updated,9,1,1,19,D 02,,,FALSE,CV,q,471,cv,D,2,c,c,TRUE,1,-0.88686363
CVOE updated,9,1,1,20,P 81,,,TRUE,CV,q,765,cv,P,1,c,c,TRUE,1,-0.19169986
CVOE updated,9,1,1,21,J 58,,,FALSE,CV,q,749,cv,J,8,c,c,TRUE,1,-0.229531902
CVOE updated,9,1,1,22,A 22,,,TRUE,CV,p,475,cv,A,2,v,v,TRUE,1,-0.87740562
CVOE updated,9,1,1,23,J 72,,,FALSE,CV,q,532,cv,J,2,c,c,TRUE,1,-0.74262897
CVOE updated,9,1,1,24,P 91,,,TRUE,CV,q,535,cv,P,1,c,c,TRUE,1,-0.735535463
CVOE updated,9,1,1,25,E 19,,,FALSE,CV,p,450,cv,E,9,v,v,TRUE,1,-0.936518185
CVOE updated,9,1,1,26,I 30,,,TRUE,CV,p,453,cv,I,0,v,v,TRUE,1,-0.929424677
CVOE updated,9,1,1,27,D 91,,,TRUE,CV,q,488,cv,D,1,c,c,TRUE,1,-0.846667086
CVOE updated,9,1,1,28,O 48,,,TRUE,CV,p,531,cv,O,8,v,v,TRUE,1,-0.744993473
CVOE updated,9,1,1,29,A 89,,,FALSE,CV,p,566,cv,A,9,v,v,TRUE,1,-0.662235881
CVOE updated,9,1,1,30,U 11,,,FALSE,CV,p,542,cv,U,1,v,v,TRUE,1,-0.718983944
CVOE updated,9,1,1,31,I 76,,,TRUE,CV,p,420,cv,I,6,v,v,TRUE,1,-1.007453264
CVOE updated,9,1,1,32,U 89,,,FALSE,CV,p,450,cv,U,9,v,v,TRUE,1,-0.936518185
CVOE updated,9,1,1,33,D 63,,,TRUE,CV,q,461,cv,D,3,c,c,TRUE,1,-0.910508656
CVOE updated,9,1,1,34,H 70,,,FALSE,CV,q,475,cv,H,0,c,c,TRUE,1,-0.87740562
CVOE updated,9,1,1,35,D 48,,,FALSE,CV,q,451,cv,D,8,c,c,TRUE,1,-0.934153682
CVOE updated,9,1,1,36,P 56,,,FALSE,CV,q,502,cv,P,6,c,c,TRUE,1,-0.813564049
CVOE updated,9,1,1,37,O 77,,,FALSE,CV,p,444,cv,O,7,v,v,TRUE,1,-0.950705201
CVOE updated,9,1,1,38,P 42,,,FALSE,CV,q,756,cv,P,2,c,c,TRUE,1,-0.212980384
CVOE updated,9,1,1,39,H 22,,,FALSE,CV,q,693,cv,H,2,c,c,TRUE,1,-0.361944049
CVOE updated,9,1,1,40,E 42,,,TRUE,CV,p,344,cv,E,2,v,v,TRUE,1,-1.187155463
CVOE updated,9,1,1,41,J 28,,,FALSE,CV,q,1029,cv,J,8,c,c,TRUE,1,0.432528831
CVOE updated,9,1,1,42,E 95,,,FALSE,CV,p,595,cv,E,5,v,v,TRUE,1,-0.593665305
CVOE updated,9,1,1,43,S 63,,,TRUE,CV,q,508,cv,S,3,c,c,TRUE,1,-0.799377033
CVOE updated,9,1,1,44,H 50,,,FALSE,CV,q,449,cv,H,0,c,c,TRUE,1,-0.938882688
CVOE updated,9,1,1,45,S 33,,,TRUE,CV,q,476,cv,S,3,c,c,TRUE,1,-0.875041117
CVOE updated,9,1,1,46,P 57,,,TRUE,CV,q,541,cv,P,7,c,c,TRUE,1,-0.721348447
CVOE updated,9,1,1,47,E 23,,,FALSE,CV,p,459,cv,E,3,v,v,TRUE,1,-0.915237661
CVOE updated,9,1,1,48,S 61,,,TRUE,CV,q,422,cv,S,1,c,c,TRUE,1,-1.002724258
CVOE updated,9,1,1,49,U 67,,,FALSE,CV,p,515,cv,U,7,v,v,TRUE,1,-0.782825515
CVOE updated,9,1,1,50,H 32,,,FALSE,CV,q,540,cv,H,2,c,c,TRUE,1,-0.723712949
CVOE updated,9,1,1,51,U 50,,,TRUE,CV,p,575,cv,U,0,v,v,TRUE,1,-0.640955358
CVOE updated,9,1,1,52,O 49,,,FALSE,CV,p,554,cv,O,9,v,v,TRUE,1,-0.690609913
CVOE updated,9,1,1,53,U 32,,,TRUE,CV,p,530,cv,U,2,v,v,TRUE,1,-0.747357976
CVOE updated,9,1,1,54,J 78,,,FALSE,CV,q,509,cv,J,8,c,c,TRUE,1,-0.797012531
CVOE updated,9,1,1,55,S 54,,,FALSE,CV,q,571,cv,S,4,c,c,TRUE,1,-0.650413368
CVOE updated,9,1,1,56,J 27,,,TRUE,CV,q,550,cv,J,7,c,c,TRUE,1,-0.700067923
CVOE updated,9,1,1,57,S 06,,,FALSE,CV,q,612,cv,S,6,c,c,TRUE,1,-0.553468761
CVOE updated,9,1,1,58,D 67,,,TRUE,CV,q,487,cv,D,7,c,c,TRUE,1,-0.849031588
CVOE updated,9,1,1,59,A 79,,,FALSE,CV,p,482,cv,A,9,v,v,TRUE,1,-0.860854101
CVOE updated,9,1,1,60,S 52,,,FALSE,CV,q,498,cv,S,2,c,c,TRUE,1,-0.823022059
CVOE updated,9,1,1,61,U 16,,,TRUE,CV,p,526,cv,U,6,v,v,TRUE,1,-0.756815986
CVOE updated,9,1,1,62,O 82,,,TRUE,CV,p,430,cv,O,2,v,v,TRUE,1,-0.983808237
CVOE updated,9,1,1,63,H 87,,,TRUE,CV,q,516,cv,H,7,c,c,TRUE,1,-0.780461012
CVOE updated,9,1,1,64,I 32,,,TRUE,CV,p,372,cv,I,2,v,v,TRUE,1,-1.120949389
CVOE updated,9,1,1,65,U 37,,,FALSE,CV,p,455,cv,U,7,v,v,TRUE,1,-0.924695672
CVOE updated,9,1,1,66,I 42,,,TRUE,CV,p,466,cv,I,2,v,v,TRUE,1,-0.898686143
CVOE updated,9,1,1,67,D 65,,,TRUE,CV,q,400,cv,D,5,c,c,TRUE,1,-1.054743316
CVOE updated,9,1,1,68,U 77,,,FALSE,CV,p,472,cv,U,7,v,v,TRUE,1,-0.884499127
CVOE updated,9,1,1,69,E 12,,,TRUE,CV,p,462,cv,E,2,v,v,TRUE,1,-0.908144154
CVOE updated,9,1,1,70,I 60,,,TRUE,CV,p,452,cv,I,0,v,v,TRUE,1,-0.93178918
CVOE updated,9,1,1,71,J 36,,,FALSE,CV,q,423,cv,J,6,c,c,TRUE,1,-1.000359756
CVOE updated,9,1,1,72,H 75,,,TRUE,CV,q,492,cv,H,5,c,c,TRUE,1,-0.837209075
CVOE updated,9,1,1,73,I 50,,,TRUE,CV,p,535,cv,I,0,v,v,TRUE,1,-0.735535463
CVOE updated,9,1,1,74,E 99,,,FALSE,CV,p,450,cv,E,9,v,v,TRUE,1,-0.936518185
CVOE updated,9,1,1,75,A 86,,,TRUE,CV,p,437,cv,A,6,v,v,TRUE,1,-0.967256719
CVOE updated,9,1,1,76,U 48,,,TRUE,CV,p,510,cv,U,8,v,v,TRUE,1,-0.794648028
CVOE updated,9,1,1,77,E 01,,,FALSE,CV,p,484,cv,E,1,v,v,TRUE,1,-0.856125096
CVOE updated,9,1,1,78,A 78,,,TRUE,CV,p,444,cv,A,8,v,v,TRUE,1,-0.950705201
CVOE updated,9,1,1,79,P 60,,,FALSE,CV,q,468,cv,P,0,c,c,TRUE,1,-0.893957138
CVOE updated,9,1,1,80,E 43,,,FALSE,CV,p,458,cv,E,3,v,v,TRUE,1,-0.917602164
CVOE updated,9,1,1,81,D 69,,,TRUE,CV,q,413,cv,D,9,c,c,TRUE,1,-1.024004782
CVOE updated,9,1,1,82,H 11,,,TRUE,CV,q,520,cv,H,1,c,c,TRUE,1,-0.771003002
CVOE updated,9,1,1,83,P 43,,,TRUE,CV,q,1016,cv,P,3,c,c,TRUE,1,0.401790297
CVOE updated,9,1,1,84,O 67,,,FALSE,CV,p,484,cv,O,7,v,v,TRUE,1,-0.856125096
CVOE updated,9,1,1,85,S 91,,,FALSE,CV,q,476,cv,S,1,c,c,TRUE,1,-0.875041117
CVOE updated,9,1,1,86,J 68,,,TRUE,CV,q,444,cv,J,8,c,c,TRUE,1,-0.950705201
CVOE updated,9,1,1,87,S 47,,,FALSE,CV,q,501,cv,S,7,c,c,TRUE,1,-0.815928552
CVOE updated,9,1,1,88,I 81,,,TRUE,CV,p,499,cv,I,1,v,v,TRUE,1,-0.820657557
CVOE updated,9,1,1,89,J 39,,,FALSE,CV,q,438,cv,J,9,c,c,TRUE,1,-0.964892216
CVOE updated,9,1,1,90,A 11,,,TRUE,CV,p,526,cv,A,1,v,v,TRUE,1,-0.756815986
CVOE updated,9,1,1,91,O 76,,,FALSE,CV,p,398,cv,O,6,v,v,TRUE,1,-1.059472321
CVOE updated,9,1,1,92,A 62,,,FALSE,CV,p,415,cv,A,2,v,v,TRUE,1,-1.019275777
CVOE updated,9,1,1,93,O 27,,,TRUE,CV,p,394,cv,O,7,v,v,TRUE,1,-1.068930332
CVOE updated,9,1,1,94,E 66,,,FALSE,CV,p,466,cv,E,6,v,v,TRUE,1,-0.898686143
CVOE updated,9,1,1,95,J 62,,,TRUE,CV,q,448,cv,J,2,c,c,TRUE,1,-0.94124719
CVOE updated,9,1,1,96,H 72,,,TRUE,CV,q,507,cv,H,2,c,c,TRUE,1,-0.801741536
CVOE updated,9,1,1,97,E 49,,,TRUE,CV,p,417,cv,E,9,v,v,TRUE,1,-1.014546771
CVOE updated,9,1,1,98,D 52,,,TRUE,CV,q,460,cv,D,2,c,c,TRUE,1,-0.912873159
CVOE updated,9,1,1,99,H 62,,,TRUE,CV,q,383,cv,H,2,c,c,TRUE,1,-1.09493986
CVOE updated,9,1,1,100,I 11,,,TRUE,CV,p,372,cv,I,1,v,v,TRUE,1,-1.120949389
CVOE updated,9,1,1,101,A 98,,,FALSE,CV,p,367,cv,A,8,v,v,TRUE,1,-1.132771902
CVOE updated,9,1,1,102,H 29,,,FALSE,CV,q,426,cv,H,9,c,c,TRUE,1,-0.993266248
CVOE updated,9,1,1,103,E 83,,,TRUE,CV,p,488,cv,E,3,v,v,TRUE,1,-0.846667086
CVOE updated,9,1,1,104,D 43,,,FALSE,CV,q,459,cv,D,3,c,c,TRUE,1,-0.915237661
CVOE updated,9,1,1,105,P 45,,,TRUE,CV,q,502,cv,P,5,c,c,TRUE,1,-0.813564049
CVOE updated,9,1,1,106,J 17,,,TRUE,CV,q,420,cv,J,7,c,c,TRUE,1,-1.007453264
CVOE_B,2,1,2,11,A 71,,,FALSE,CV,p,1063,cv,A,1,v,v,TRUE,1,0.605863042
CVOE_B,2,1,2,12,I 66,,,TRUE,CV,p,574,cv,I,6,v,v,TRUE,1,-0.718372404
CVOE_B,2,1,2,13,S 30,,,FALSE,CV,q,481,cv,S,0,c,c,TRUE,1,-0.970220863
CVOE_B,2,1,2,14,D 20,,,FALSE,CV,q,577,cv,D,0,c,c,TRUE,1,-0.71024826
CVOE_B,2,1,2,15,I 31,,,FALSE,CV,p,621,cv,I,1,v,v,TRUE,1,-0.591094151
CVOE_B,2,1,2,16,P 16,,,FALSE,CV,q,706,cv,P,6,c,c,TRUE,1,-0.360910075
CVOE_B,2,1,2,17,A 49,,,FALSE,CV,p,583,cv,A,9,v,v,TRUE,1,-0.693999973
CVOE_B,2,1,2,18,O 64,,,TRUE,CV,p,1661,cv,O,4,v,v,TRUE,1,2.225275714
CVOE_B,2,1,2,19,D 02,,,FALSE,CV,q,580,cv,D,2,c,c,TRUE,1,-0.702124117
CVOE_B,2,1,2,20,P 81,,,TRUE,CV,q,1006,cv,P,1,c,c,TRUE,1,0.451504309
CVOE_B,2,1,2,21,J 58,,,FALSE,CV,q,537,cv,J,8,c,c,TRUE,1,-0.818570178
CVOE_B,2,1,2,22,A 22,,,TRUE,CV,p,572,cv,A,2,v,v,TRUE,1,-0.7237885
CVOE_B,2,1,2,23,J 72,,,FALSE,CV,q,505,cv,J,2,c,c,TRUE,1,-0.905227713
CVOE_B,2,1,2,24,P 91,,,TRUE,CV,q,485,cv,P,1,c,c,TRUE,1,-0.959388671
CVOE_B,2,1,2,25,E 19,,,FALSE,CV,p,414,cv,E,9,v,v,TRUE,1,-1.151660076
CVOE_B,2,1,2,26,I 30,,,TRUE,CV,p,585,cv,I,0,v,v,TRUE,1,-0.688583877
CVOE_B,2,1,2,27,D 91,,,TRUE,CV,q,414,cv,D,1,c,c,TRUE,1,-1.151660076
CVOE_B,2,1,2,28,O 48,,,TRUE,CV,p,401,cv,O,8,v,v,TRUE,1,-1.186864699
CVOE_B,2,1,2,29,A 89,,,FALSE,CV,p,578,cv,A,9,v,v,TRUE,1,-0.707540212
CVOE_B,2,1,2,30,U 11,,,FALSE,CV,p,606,cv,U,1,v,v,TRUE,1,-0.63171487
CVOE_B,2,1,2,31,I 76,,,TRUE,CV,p,485,cv,I,6,v,v,TRUE,1,-0.959388671
CVOE_B,2,1,2,32,U 89,,,FALSE,CV,p,431,cv,U,9,v,v,TRUE,1,-1.105623261
CVOE_B,2,1,2,33,D 63,,,TRUE,CV,q,443,cv,D,3,c,c,TRUE,1,-1.073126685
CVOE_B,2,1,2,34,H 70,,,FALSE,CV,q,564,cv,H,0,c,c,TRUE,1,-0.745452884
CVOE_B,2,1,2,35,D 48,,,FALSE,CV,q,508,cv,D,8,c,c,TRUE,1,-0.897103569
CVOE_B,2,1,2,36,P 56,,,FALSE,CV,q,498,cv,P,6,c,c,TRUE,1,-0.924184048
CVOE_B,2,1,2,37,O 77,,,FALSE,CV,p,445,cv,O,7,v,v,TRUE,1,-1.067710589
CVOE_B,2,1,2,38,P 42,,,FALSE,CV,q,461,cv,P,2,c,c,TRUE,1,-1.024381822
CVOE_B,2,1,2,39,H 22,,,FALSE,CV,q,443,cv,H,2,c,c,TRUE,1,-1.073126685
CVOE_B,2,1,2,40,E 42,,,TRUE,CV,p,491,cv,E,2,v,v,TRUE,1,-0.943140384
CVOE_B,2,1,2,41,J 28,,,FALSE,CV,q,663,cv,J,8,c,c,TRUE,1,-0.477356137
CVOE_B,2,1,2,42,E 95,,,FALSE,CV,p,692,cv,E,5,v,v,TRUE,1,-0.398822746
CVOE_B,2,1,2,43,S 63,,,TRUE,CV,q,559,cv,S,3,c,c,TRUE,1,-0.758993123
CVOE_B,2,1,2,44,H 50,,,FALSE,CV,q,480,cv,H,0,c,c,TRUE,1,-0.972928911
CVOE_B,2,1,2,45,S 33,,,TRUE,CV,q,408,cv,S,3,c,c,TRUE,1,-1.167908363
CVOE_B,2,1,2,46,P 57,,,TRUE,CV,q,459,cv,P,7,c,c,TRUE,1,-1.029797918
CVOE_B,2,1,2,47,E 23,,,FALSE,CV,p,543,cv,E,3,v,v,TRUE,1,-0.802321891
CVOE_B,2,1,2,48,S 61,,,TRUE,CV,q,549,cv,S,1,c,c,TRUE,1,-0.786073603
CVOE_B,2,1,2,49,U 67,,,FALSE,CV,p,602,cv,U,7,v,v,TRUE,1,-0.642547062
CVOE_B,2,1,2,50,H 32,,,FALSE,CV,q,467,cv,H,2,c,c,TRUE,1,-1.008133534
CVOE_B,2,1,2,51,U 50,,,TRUE,CV,p,593,cv,U,0,v,v,TRUE,1,-0.666919493
CVOE_B,2,1,2,52,O 49,,,FALSE,CV,p,542,cv,O,9,v,v,TRUE,1,-0.805029938
CVOE_B,2,1,2,53,U 32,,,TRUE,CV,p,516,cv,U,2,v,v,TRUE,1,-0.875439185
CVOE_B,2,1,2,54,J 78,,,FALSE,CV,q,477,cv,J,8,c,c,TRUE,1,-0.981053055
CVOE_B,2,1,2,55,S 54,,,FALSE,CV,q,500,cv,S,4,c,c,TRUE,1,-0.918767952
CVOE_B,2,1,2,56,J 27,,,TRUE,CV,q,491,cv,J,7,c,c,TRUE,1,-0.943140384
CVOE_B,2,1,2,57,S 06,,,FALSE,CV,q,437,cv,S,6,c,c,TRUE,1,-1.089374973
CVOE_B,2,1,2,58,D 67,,,TRUE,CV,q,421,cv,D,7,c,c,TRUE,1,-1.13270374
CVOE_B,2,1,2,59,A 79,,,FALSE,CV,p,563,cv,A,9,v,v,TRUE,1,-0.748160932
CVOE_B,2,1,2,60,S 52,,,FALSE,CV,q,556,cv,S,2,c,c,TRUE,1,-0.767117267
CVOE_B,2,1,2,61,U 16,,,TRUE,CV,p,581,cv,U,6,v,v,TRUE,1,-0.699416069
CVOE_B,2,1,2,62,O 82,,,TRUE,CV,p,577,cv,O,2,v,v,TRUE,1,-0.71024826
CVOE_B,2,1,2,63,H 87,,,TRUE,CV,q,582,cv,H,7,c,c,TRUE,1,-0.696708021
CVOE_B,2,1,2,64,I 32,,,TRUE,CV,p,610,cv,I,2,v,v,TRUE,1,-0.620882678
CVOE_B,2,1,2,65,U 37,,,FALSE,CV,q,598,cv,U,7,v,c,FALSE,0,-0.653379253
CVOE_B,2,1,2,66,I 42,,,TRUE,CV,p,743,cv,I,2,v,v,TRUE,1,-0.260712301
CVOE_B,2,1,2,67,D 65,,,TRUE,CV,q,517,cv,D,5,c,c,TRUE,1,-0.872731137
CVOE_B,2,1,2,68,U 77,,,FALSE,CV,q,549,cv,U,7,v,c,FALSE,0,-0.786073603
CVOE_B,2,1,2,69,E 12,,,TRUE,CV,p,530,cv,E,2,v,v,TRUE,1,-0.837526514
CVOE_B,2,1,2,70,I 60,,,TRUE,CV,p,605,cv,I,0,v,v,TRUE,1,-0.634422918
CVOE_B,2,1,2,71,J 36,,,FALSE,CV,q,542,cv,J,6,c,c,TRUE,1,-0.805029938
CVOE_B,2,1,2,72,H 75,,,TRUE,CV,q,724,cv,H,5,c,c,TRUE,1,-0.312165212
CVOE_B,2,1,2,73,I 50,,,TRUE,CV,p,588,cv,I,0,v,v,TRUE,1,-0.680459733
CVOE_B,2,1,2,74,E 99,,,FALSE,CV,p,706,cv,E,9,v,v,TRUE,1,-0.360910075
CVOE_B,2,1,2,75,A 86,,,TRUE,CV,p,527,cv,A,6,v,v,TRUE,1,-0.845650658
CVOE_B,2,1,2,76,U 48,,,TRUE,CV,p,522,cv,U,8,v,v,TRUE,1,-0.859190897
CVOE_B,2,1,2,77,E 01,,,FALSE,CV,p,468,cv,E,1,v,v,TRUE,1,-1.005425487
CVOE_B,2,1,2,78,A 78,,,TRUE,CV,p,449,cv,A,8,v,v,TRUE,1,-1.056878398
CVOE_B,2,1,2,79,P 60,,,FALSE,CV,q,476,cv,P,0,c,c,TRUE,1,-0.983761103
CVOE_B,2,1,2,80,E 43,,,FALSE,CV,p,780,cv,E,3,v,v,TRUE,1,-0.160514527
CVOE_B,2,1,2,81,D 69,,,TRUE,CV,q,538,cv,D,9,c,c,TRUE,1,-0.81586213
CVOE_B,2,1,2,82,H 11,,,TRUE,CV,q,605,cv,H,1,c,c,TRUE,1,-0.634422918
CVOE_B,2,1,2,83,P 43,,,TRUE,CV,q,830,cv,P,3,c,c,TRUE,1,-0.02511213
CVOE_B,2,1,2,84,O 67,,,FALSE,CV,p,508,cv,O,7,v,v,TRUE,1,-0.897103569
CVOE_B,2,1,2,85,S 91,,,FALSE,CV,q,497,cv,S,1,c,c,TRUE,1,-0.926892096
CVOE_B,2,1,2,86,J 68,,,TRUE,CV,q,588,cv,J,8,c,c,TRUE,1,-0.680459733
CVOE_B,2,1,2,87,S 47,,,FALSE,CV,q,497,cv,S,7,c,c,TRUE,1,-0.926892096
CVOE_B,2,1,2,88,I 81,,,TRUE,CV,p,548,cv,I,1,v,v,TRUE,1,-0.788781651
CVOE_B,2,1,2,89,J 39,,,FALSE,CV,q,443,cv,J,9,c,c,TRUE,1,-1.073126685
CVOE_B,2,1,2,90,A 11,,,TRUE,CV,p,564,cv,A,1,v,v,TRUE,1,-0.745452884
CVOE_B,2,1,2,91,O 76,,,FALSE,CV,p,540,cv,O,6,v,v,TRUE,1,-0.810446034
CVOE_B,2,1,2,92,A 62,,,FALSE,CV,p,543,cv,A,2,v,v,TRUE,1,-0.802321891
CVOE_B,2,1,2,93,O 27,,,TRUE,CV,p,541,cv,O,7,v,v,TRUE,1,-0.807737986
CVOE_B,2,1,2,94,E 66,,,FALSE,CV,p,481,cv,E,6,v,v,TRUE,1,-0.970220863
CVOE_B,2,1,2,95,J 62,,,TRUE,CV,q,459,cv,J,2,c,c,TRUE,1,-1.029797918
CVOE_B,2,1,2,96,H 72,,,TRUE,CV,q,565,cv,H,2,c,c,TRUE,1,-0.742744836
CVOE_B,2,1,2,97,E 49,,,TRUE,CV,p,750,cv,E,9,v,v,TRUE,1,-0.241755966
CVOE_B,2,1,2,98,D 52,,,TRUE,CV,q,1780,cv,D,2,c,c,TRUE,1,2.54753342
CVOE_B,2,1,2,99,H 62,,,TRUE,CV,q,482,cv,H,2,c,c,TRUE,1,-0.967512815
CVOE_B,2,1,2,100,I 11,,,TRUE,CV,p,507,cv,I,1,v,v,TRUE,1,-0.899811617
CVOE_B,2,1,2,101,A 98,,,FALSE,CV,p,472,cv,A,8,v,v,TRUE,1,-0.994593295
CVOE_B,2,1,2,102,H 29,,,FALSE,CV,q,557,cv,H,9,c,c,TRUE,1,-0.764409219
CVOE_B,2,1,2,103,E 83,,,TRUE,CV,p,502,cv,E,3,v,v,TRUE,1,-0.913351856
CVOE_B,2,1,2,104,D 43,,,FALSE,CV,q,548,cv,D,3,c,c,TRUE,1,-0.788781651
CVOE_B,2,1,2,105,P 45,,,TRUE,CV,q,634,cv,P,5,c,c,TRUE,1,-0.555889527
CVOE_B,2,1,2,106,J 17,,,TRUE,CV,q,481,cv,J,7,c,c,TRUE,1,-0.970220863
CVOE_B,10,1,2,11,A 71,,,FALSE,CV,p,1228,cv,A,1,v,v,TRUE,1,-0.50895892
CVOE_B,10,1,2,12,I 66,,,TRUE,CV,p,930,cv,I,6,v,v,TRUE,1,-0.701537323
CVOE_B,10,1,2,13,S 30,,,FALSE,CV,q,950,cv,S,0,c,c,TRUE,1,-0.688612598
CVOE_B,10,1,2,14,D 20,,,FALSE,CV,q,643,cv,D,0,c,c,TRUE,1,-0.887007128
CVOE_B,10,1,2,15,I 31,,,FALSE,CV,p,732,cv,I,1,v,v,TRUE,1,-0.829492102
CVOE_B,10,1,2,16,P 16,,,FALSE,CV,q,1455,cv,P,6,c,c,TRUE,1,-0.36226329
CVOE_B,10,1,2,17,A 49,,,FALSE,CV,p,658,cv,A,9,v,v,TRUE,1,-0.877313585
CVOE_B,10,1,2,18,O 64,,,TRUE,CV,p,758,cv,O,4,v,v,TRUE,1,-0.812689959
CVOE_B,10,1,2,19,D 02,,,FALSE,CV,q,694,cv,D,2,c,c,TRUE,1,-0.854049079
CVOE_B,10,1,2,20,P 81,,,TRUE,CV,p,577,cv,P,1,c,v,FALSE,0,-0.929658721
CVOE_B,10,1,2,21,J 58,,,FALSE,CV,q,1428,cv,J,8,c,c,TRUE,1,-0.379711669
CVOE_B,10,1,2,22,A 22,,,TRUE,CV,p,610,cv,A,2,v,v,TRUE,1,-0.908332925
CVOE_B,10,1,2,23,J 72,,,FALSE,CV,q,533,cv,J,2,c,c,TRUE,1,-0.958093116
CVOE_B,10,1,2,24,P 91,,,TRUE,CV,q,696,cv,P,1,c,c,TRUE,1,-0.852756607
CVOE_B,10,1,2,25,E 19,,,FALSE,CV,p,780,cv,E,9,v,v,TRUE,1,-0.798472762
CVOE_B,10,1,2,26,I 30,,,TRUE,CV,p,1223,cv,I,0,v,v,TRUE,1,-0.512190101
CVOE_B,10,1,2,27,D 91,,,TRUE,CV,q,557,cv,D,1,c,c,TRUE,1,-0.942583446
CVOE_B,10,1,2,28,O 48,,,TRUE,CV,p,1861,cv,O,8,v,v,TRUE,1,-0.099891371
CVOE_B,10,1,2,29,A 89,,,FALSE,CV,p,651,cv,A,9,v,v,TRUE,1,-0.881837238
CVOE_B,10,1,2,30,U 11,,,FALSE,CV,p,822,cv,U,1,v,v,TRUE,1,-0.771330839
CVOE_B,10,1,2,31,I 76,,,TRUE,CV,p,652,cv,I,6,v,v,TRUE,1,-0.881191002
CVOE_B,10,1,2,32,U 89,,,FALSE,CV,p,815,cv,U,9,v,v,TRUE,1,-0.775854493
CVOE_B,10,1,2,33,D 63,,,TRUE,CV,q,603,cv,D,3,c,c,TRUE,1,-0.912856579
CVOE_B,10,1,2,34,H 70,,,FALSE,CV,q,731,cv,H,0,c,c,TRUE,1,-0.830138338
CVOE_B,10,1,2,35,D 48,,,FALSE,CV,q,630,cv,D,8,c,c,TRUE,1,-0.8954082
CVOE_B,10,1,2,36,P 56,,,FALSE,CV,q,404,cv,P,6,c,c,TRUE,1,-1.041457593
CVOE_B,10,1,2,37,O 77,,,FALSE,CV,p,948,cv,O,7,v,v,TRUE,1,-0.689905071
CVOE_B,10,1,2,38,P 42,,,FALSE,CV,q,674,cv,P,2,c,c,TRUE,1,-0.866973805
CVOE_B,10,1,2,39,H 22,,,FALSE,CV,q,1475,cv,H,2,c,c,TRUE,1,-0.349338565
CVOE_B,10,1,2,40,E 42,,,TRUE,CV,p,555,cv,E,2,v,v,TRUE,1,-0.943875919
CVOE_B,10,1,2,41,J 28,,,FALSE,CV,q,460,cv,J,8,c,c,TRUE,1,-1.005268363
CVOE_B,10,1,2,42,E 95,,,FALSE,CV,p,679,cv,E,5,v,v,TRUE,1,-0.863742623
CVOE_B,10,1,2,43,S 63,,,TRUE,CV,q,335,cv,S,3,c,c,TRUE,1,-1.086047895
CVOE_B,10,1,2,44,H 50,,,FALSE,CV,q,554,cv,H,0,c,c,TRUE,1,-0.944522155
CVOE_B,10,1,2,45,S 33,,,TRUE,CV,q,579,cv,S,3,c,c,TRUE,1,-0.928366249
CVOE_B,10,1,2,46,P 57,,,TRUE,CV,q,574,cv,P,7,c,c,TRUE,1,-0.93159743
CVOE_B,10,1,2,47,E 23,,,FALSE,CV,p,601,cv,E,3,v,v,TRUE,1,-0.914149051
CVOE_B,10,1,2,48,S 61,,,TRUE,CV,q,697,cv,S,1,c,c,TRUE,1,-0.852110371
CVOE_B,10,1,2,49,U 67,,,FALSE,CV,p,700,cv,U,7,v,v,TRUE,1,-0.850171662
CVOE_B,10,1,2,50,H 32,,,FALSE,CV,q,600,cv,H,2,c,c,TRUE,1,-0.914795287
CVOE_B,10,1,2,51,U 50,,,TRUE,CV,p,336,cv,U,0,v,v,TRUE,1,-1.085401659
CVOE_B,10,1,2,52,O 49,,,FALSE,CV,p,1555,cv,O,9,v,v,TRUE,1,-0.297639664
CVOE_B,10,1,2,53,U 32,,,TRUE,CV,p,580,cv,U,2,v,v,TRUE,1,-0.927720012
CVOE_B,10,1,2,54,J 78,,,FALSE,CV,q,623,cv,J,8,c,c,TRUE,1,-0.899931854
CVOE_B,10,1,2,55,S 54,,,FALSE,CV,q,613,cv,S,4,c,c,TRUE,1,-0.906394216
CVOE_B,10,1,2,56,J 27,,,TRUE,CV,q,608,cv,J,7,c,c,TRUE,1,-0.909625397
CVOE_B,10,1,2,57,S 06,,,FALSE,CV,q,1251,cv,S,6,c,c,TRUE,1,-0.494095486
CVOE_B,10,1,2,58,D 67,,,TRUE,CV,q,1094,cv,D,7,c,c,TRUE,1,-0.595554578
CVOE_B,10,1,2,59,A 79,,,FALSE,CV,p,513,cv,A,9,v,v,TRUE,1,-0.971017842
CVOE_B,10,1,2,60,S 52,,,FALSE,CV,q,535,cv,S,2,c,c,TRUE,1,-0.956800644
CVOE_B,10,1,2,61,U 16,,,TRUE,CV,p,1610,cv,U,6,v,v,TRUE,1,-0.26209667
CVOE_B,10,1,2,62,O 82,,,TRUE,CV,p,1174,cv,O,2,v,v,TRUE,1,-0.543855677
CVOE_B,10,1,2,63,H 87,,,TRUE,CV,q,801,cv,H,7,c,c,TRUE,1,-0.7849018
CVOE_B,10,1,2,64,I 32,,,TRUE,CV,p,489,cv,I,2,v,v,TRUE,1,-0.986527512
CVOE_B,10,1,2,65,U 37,,,FALSE,CV,p,541,cv,U,7,v,v,TRUE,1,-0.952923226
CVOE_B,10,1,2,66,I 42,,,TRUE,CV,p,522,cv,I,2,v,v,TRUE,1,-0.965201715
CVOE_B,10,1,2,67,D 65,,,TRUE,CV,q,939,cv,D,5,c,c,TRUE,1,-0.695721197
CVOE_B,10,1,2,68,U 77,,,FALSE,CV,p,2078,cv,U,7,v,v,TRUE,1,0.040341897
CVOE_B,10,1,2,69,E 12,,,TRUE,CV,p,439,cv,E,2,v,v,TRUE,1,-1.018839324
CVOE_B,10,1,2,70,I 60,,,TRUE,CV,p,375,cv,I,0,v,v,TRUE,1,-1.060198445
CVOE_B,10,1,2,71,J 36,,,FALSE,CV,q,586,cv,J,6,c,c,TRUE,1,-0.923842595
CVOE_B,10,1,2,72,H 75,,,TRUE,CV,q,640,cv,H,5,c,c,TRUE,1,-0.888945837
CVOE_B,10,1,2,73,I 50,,,TRUE,CV,p,664,cv,I,0,v,v,TRUE,1,-0.873436167
CVOE_B,10,1,2,74,E 99,,,FALSE,CV,p,2926,cv,E,9,v,v,TRUE,1,0.58835024
CVOE_B,10,1,2,75,A 86,,,TRUE,CV,p,720,cv,A,6,v,v,TRUE,1,-0.837246937
CVOE_B,10,1,2,76,U 48,,,TRUE,CV,p,752,cv,U,8,v,v,TRUE,1,-0.816567377
CVOE_B,10,1,2,77,E 01,,,FALSE,CV,p,574,cv,E,1,v,v,TRUE,1,-0.93159743
CVOE_B,10,1,2,78,A 78,,,TRUE,CV,p,409,cv,A,8,v,v,TRUE,1,-1.038226412
CVOE_B,10,1,2,79,P 60,,,FALSE,CV,q,588,cv,P,0,c,c,TRUE,1,-0.922550122
CVOE_B,10,1,2,80,E 43,,,FALSE,CV,p,538,cv,E,3,v,v,TRUE,1,-0.954861935
CVOE_B,10,1,2,81,D 69,,,TRUE,CV,q,1317,cv,D,9,c,c,TRUE,1,-0.451443893
CVOE_B,10,1,2,82,H 11,,,TRUE,CV,q,637,cv,H,1,c,c,TRUE,1,-0.890884546
CVOE_B,10,1,2,83,P 43,,,TRUE,CV,q,534,cv,P,3,c,c,TRUE,1,-0.95744688
CVOE_B,10,1,2,84,O 67,,,FALSE,CV,p,433,cv,O,7,v,v,TRUE,1,-1.022716742
CVOE_B,10,1,2,85,S 91,,,FALSE,CV,q,599,cv,S,1,c,c,TRUE,1,-0.915441524
CVOE_B,10,1,2,86,J 68,,,TRUE,CV,q,647,cv,J,8,c,c,TRUE,1,-0.884422183
CVOE_B,10,1,2,87,S 47,,,FALSE,CV,q,903,cv,S,7,c,c,TRUE,1,-0.718985702
CVOE_B,10,1,2,88,I 81,,,TRUE,CV,p,629,cv,I,1,v,v,TRUE,1,-0.896054436
CVOE_B,10,1,2,89,J 39,,,FALSE,CV,q,2691,cv,J,9,c,c,TRUE,1,0.43648472
CVOE_B,10,1,2,90,A 11,,,TRUE,CV,p,359,cv,A,1,v,v,TRUE,1,-1.070538225
CVOE_B,10,1,2,91,O 76,,,FALSE,CV,p,343,cv,O,6,v,v,TRUE,1,-1.080878005
CVOE_B,10,1,2,92,A 62,,,FALSE,CV,p,629,cv,A,2,v,v,TRUE,1,-0.896054436
CVOE_B,10,1,2,93,O 27,,,TRUE,CV,p,1347,cv,O,7,v,v,TRUE,1,-0.432056805
CVOE_B,10,1,2,94,E 66,,,FALSE,CV,p,1249,cv,E,6,v,v,TRUE,1,-0.495387958
CVOE_B,10,1,2,95,J 62,,,TRUE,CV,q,476,cv,J,2,c,c,TRUE,1,-0.994928583
CVOE_B,10,1,2,96,H 72,,,TRUE,CV,q,549,cv,H,2,c,c,TRUE,1,-0.947753336
CVOE_B,10,1,2,97,E 49,,,TRUE,CV,p,762,cv,E,9,v,v,TRUE,1,-0.810105014
CVOE_B,10,1,2,98,D 52,,,TRUE,CV,q,747,cv,D,2,c,c,TRUE,1,-0.819798558
CVOE_B,10,1,2,99,H 62,,,TRUE,CV,q,673,cv,H,2,c,c,TRUE,1,-0.867620041
CVOE_B,10,1,2,100,I 11,,,TRUE,CV,p,1182,cv,I,1,v,v,TRUE,1,-0.538685787
CVOE_B,10,1,2,101,A 98,,,FALSE,CV,p,580,cv,A,8,v,v,TRUE,1,-0.927720012
CVOE_B,10,1,2,102,H 29,,,FALSE,CV,q,631,cv,H,9,c,c,TRUE,1,-0.894761964
CVOE_B,10,1,2,103,E 83,,,TRUE,CV,p,437,cv,E,3,v,v,TRUE,1,-1.020131797
CVOE_B,10,1,2,104,D 43,,,FALSE,CV,q,694,cv,D,3,c,c,TRUE,1,-0.854049079
CVOE_B,10,1,2,105,P 45,,,TRUE,CV,q,2057,cv,P,5,c,c,TRUE,1,0.026770935
CVOE_B,10,1,2,106,J 17,,,TRUE,CV,q,524,cv,J,7,c,c,TRUE,1,-0.963909243
CVOE_B,6,1,2,12,I 66,,,TRUE,CV,p,1477,cv,I,6,v,v,TRUE,1,0.137468718
CVOE_B,6,1,2,13,S 30,,,FALSE,CV,q,894,cv,S,0,c,c,TRUE,1,-0.462592314
CVOE_B,6,1,2,14,D 20,,,FALSE,CV,q,1961,cv,D,0,c,c,TRUE,1,0.635632593
CVOE_B,6,1,2,15,I 31,,,FALSE,CV,p,978,cv,I,1,v,v,TRUE,1,-0.376134121
CVOE_B,6,1,2,16,P 16,,,FALSE,CV,q,885,cv,P,6,c,c,TRUE,1,-0.471855692
CVOE_B,6,1,2,17,A 49,,,FALSE,CV,p,934,cv,A,9,v,v,TRUE,1,-0.421421746
CVOE_B,6,1,2,18,O 64,,,TRUE,CV,p,721,cv,O,4,v,v,TRUE,1,-0.640655021
CVOE_B,6,1,2,19,D 02,,,FALSE,CV,q,770,cv,D,2,c,c,TRUE,1,-0.590221075
CVOE_B,6,1,2,20,P 81,,,TRUE,CV,q,805,cv,P,1,c,c,TRUE,1,-0.554196828
CVOE_B,6,1,2,21,J 58,,,FALSE,CV,q,749,cv,J,8,c,c,TRUE,1,-0.611835624
CVOE_B,6,1,2,22,A 22,,,TRUE,CV,p,763,cv,A,2,v,v,TRUE,1,-0.597425925
CVOE_B,6,1,2,23,J 72,,,FALSE,CV,q,972,cv,J,2,c,c,TRUE,1,-0.382309706
CVOE_B,6,1,2,24,P 91,,,TRUE,CV,q,1671,cv,P,1,c,c,TRUE,1,0.337145974
CVOE_B,6,1,2,25,E 19,,,FALSE,CV,p,773,cv,E,9,v,v,TRUE,1,-0.587133283
CVOE_B,6,1,2,26,I 30,,,TRUE,CV,p,936,cv,I,0,v,v,TRUE,1,-0.419363217
CVOE_B,6,1,2,27,D 91,,,TRUE,CV,q,675,cv,D,1,c,c,TRUE,1,-0.688001175
CVOE_B,6,1,2,28,O 48,,,TRUE,CV,p,892,cv,O,8,v,v,TRUE,1,-0.464650842
CVOE_B,6,1,2,29,A 89,,,FALSE,CV,p,807,cv,A,9,v,v,TRUE,1,-0.5521383
CVOE_B,6,1,2,30,U 11,,,FALSE,CV,p,882,cv,U,1,v,v,TRUE,1,-0.474943484
CVOE_B,6,1,2,31,I 76,,,TRUE,CV,p,715,cv,I,6,v,v,TRUE,1,-0.646830607
CVOE_B,6,1,2,32,U 89,,,FALSE,CV,p,859,cv,U,9,v,v,TRUE,1,-0.498616561
CVOE_B,6,1,2,33,D 63,,,TRUE,CV,q,654,cv,D,3,c,c,TRUE,1,-0.709615723
CVOE_B,6,1,2,34,H 70,,,FALSE,CV,q,1257,cv,H,0,c,c,TRUE,1,-0.088969407
CVOE_B,6,1,2,35,D 48,,,FALSE,CV,q,1205,cv,D,8,c,c,TRUE,1,-0.142491146
CVOE_B,6,1,2,36,P 56,,,FALSE,CV,q,1117,cv,P,6,c,c,TRUE,1,-0.233066396
CVOE_B,6,1,2,37,O 77,,,FALSE,CV,p,606,cv,O,7,v,v,TRUE,1,-0.759020405
CVOE_B,6,1,2,38,P 42,,,FALSE,CV,q,1230,cv,P,2,c,c,TRUE,1,-0.116759541
CVOE_B,6,1,2,39,H 22,,,FALSE,CV,q,2244,cv,H,2,c,c,TRUE,1,0.926914364
CVOE_B,6,1,2,40,E 42,,,TRUE,CV,p,654,cv,E,2,v,v,TRUE,1,-0.709615723
CVOE_B,6,1,2,41,J 28,,,FALSE,CV,q,657,cv,J,8,c,c,TRUE,1,-0.706527931
CVOE_B,6,1,2,42,E 95,,,FALSE,CV,p,604,cv,E,5,v,v,TRUE,1,-0.761078934
CVOE_B,6,1,2,43,S 63,,,TRUE,CV,q,668,cv,S,3,c,c,TRUE,1,-0.695206024
CVOE_B,6,1,2,44,H 50,,,FALSE,CV,q,746,cv,H,0,c,c,TRUE,1,-0.614923416
CVOE_B,6,1,2,45,S 33,,,TRUE,CV,p,696,cv,S,3,c,v,FALSE,0,-0.666386627
CVOE_B,6,1,2,46,P 57,,,TRUE,CV,q,3707,cv,P,7,c,c,TRUE,1,2.432727896
CVOE_B,6,1,2,47,E 23,,,FALSE,CV,p,850,cv,E,3,v,v,TRUE,1,-0.507879939
CVOE_B,6,1,2,48,S 61,,,TRUE,CV,q,2413,cv,S,1,c,c,TRUE,1,1.100860014
CVOE_B,6,1,2,49,U 67,,,FALSE,CV,p,761,cv,U,7,v,v,TRUE,1,-0.599484453
CVOE_B,6,1,2,50,H 32,,,FALSE,CV,q,913,cv,H,2,c,c,TRUE,1,-0.443036294
CVOE_B,6,1,2,51,U 50,,,TRUE,CV,p,679,cv,U,0,v,v,TRUE,1,-0.683884118
CVOE_B,6,1,2,52,O 49,,,FALSE,CV,p,920,cv,O,9,v,v,TRUE,1,-0.435831445
CVOE_B,6,1,2,53,U 32,,,TRUE,CV,p,688,cv,U,2,v,v,TRUE,1,-0.67462074
CVOE_B,6,1,2,54,J 78,,,FALSE,CV,q,747,cv,J,8,c,c,TRUE,1,-0.613894152
CVOE_B,6,1,2,55,S 54,,,FALSE,CV,q,881,cv,S,4,c,c,TRUE,1,-0.475972749
CVOE_B,6,1,2,56,J 27,,,TRUE,CV,q,762,cv,J,7,c,c,TRUE,1,-0.598455189
CVOE_B,6,1,2,57,S 06,,,FALSE,CV,q,906,cv,S,6,c,c,TRUE,1,-0.450241143
CVOE_B,6,1,2,58,D 67,,,TRUE,CV,q,744,cv,D,7,c,c,TRUE,1,-0.616981945
CVOE_B,6,1,2,59,A 79,,,FALSE,CV,p,766,cv,A,9,v,v,TRUE,1,-0.594338132
CVOE_B,6,1,2,60,S 52,,,FALSE,CV,q,894,cv,S,2,c,c,TRUE,1,-0.462592314
CVOE_B,6,1,2,61,U 16,,,TRUE,CV,p,874,cv,U,6,v,v,TRUE,1,-0.483177598
CVOE_B,6,1,2,62,O 82,,,TRUE,CV,p,1402,cv,O,2,v,v,TRUE,1,0.060273902
CVOE_B,6,1,2,63,H 87,,,TRUE,CV,q,779,cv,H,7,c,c,TRUE,1,-0.580957698
CVOE_B,6,1,2,64,I 32,,,TRUE,CV,p,894,cv,I,2,v,v,TRUE,1,-0.462592314
CVOE_B,6,1,2,65,U 37,,,FALSE,CV,p,752,cv,U,7,v,v,TRUE,1,-0.608747831
CVOE_B,6,1,2,66,I 42,,,TRUE,CV,p,2095,cv,I,2,v,v,TRUE,1,0.773553997
CVOE_B,6,1,2,67,D 65,,,TRUE,CV,q,875,cv,D,5,c,c,TRUE,1,-0.482148334
CVOE_B,6,1,2,68,U 77,,,FALSE,CV,p,691,cv,U,7,v,v,TRUE,1,-0.671532948
CVOE_B,6,1,2,69,E 12,,,TRUE,CV,p,758,cv,E,2,v,v,TRUE,1,-0.602572246
CVOE_B,6,1,2,70,I 60,,,TRUE,CV,p,783,cv,I,0,v,v,TRUE,1,-0.576840641
CVOE_B,6,1,2,71,J 36,,,FALSE,CV,q,741,cv,J,6,c,c,TRUE,1,-0.620069737
CVOE_B,6,1,2,72,H 75,,,TRUE,CV,q,802,cv,H,5,c,c,TRUE,1,-0.557284621
CVOE_B,6,1,2,73,I 50,,,TRUE,CV,p,675,cv,I,0,v,v,TRUE,1,-0.688001175
CVOE_B,6,1,2,74,E 99,,,FALSE,CV,p,907,cv,E,9,v,v,TRUE,1,-0.449211879
CVOE_B,6,1,2,75,A 86,,,TRUE,CV,p,873,cv,A,6,v,v,TRUE,1,-0.484206862
CVOE_B,6,1,2,76,U 48,,,TRUE,CV,p,791,cv,U,8,v,v,TRUE,1,-0.568606527
CVOE_B,6,1,2,77,E 01,,,FALSE,CV,p,693,cv,E,1,v,v,TRUE,1,-0.669474419
CVOE_B,6,1,2,78,A 78,,,TRUE,CV,p,752,cv,A,8,v,v,TRUE,1,-0.608747831
CVOE_B,6,1,2,79,P 60,,,FALSE,CV,q,814,cv,P,0,c,c,TRUE,1,-0.54493345
CVOE_B,6,1,2,80,E 43,,,FALSE,CV,p,673,cv,E,3,v,v,TRUE,1,-0.690059703
CVOE_B,6,1,2,81,D 69,,,TRUE,CV,q,1798,cv,D,9,c,c,TRUE,1,0.467862528
CVOE_B,6,1,2,82,H 11,,,TRUE,CV,q,935,cv,H,1,c,c,TRUE,1,-0.420392481
CVOE_B,6,1,2,83,P 43,,,TRUE,CV,q,955,cv,P,3,c,c,TRUE,1,-0.399807197
CVOE_B,6,1,2,84,O 67,,,FALSE,CV,p,660,cv,O,7,v,v,TRUE,1,-0.703440138
CVOE_B,6,1,2,85,S 91,,,FALSE,CV,q,678,cv,S,1,c,c,TRUE,1,-0.684913382
CVOE_B,6,1,2,86,J 68,,,TRUE,CV,q,1574,cv,J,8,c,c,TRUE,1,0.237307346
CVOE_B,6,1,2,87,S 47,,,FALSE,CV,q,499,cv,S,7,c,c,TRUE,1,-0.869151675
CVOE_B,6,1,2,88,I 81,,,TRUE,CV,p,678,cv,I,1,v,v,TRUE,1,-0.684913382
CVOE_B,6,1,2,89,J 39,,,FALSE,CV,q,806,cv,J,9,c,c,TRUE,1,-0.553167564
CVOE_B,6,1,2,90,A 11,,,TRUE,CV,p,663,cv,A,1,v,v,TRUE,1,-0.700352345
CVOE_B,6,1,2,91,O 76,,,FALSE,CV,p,1491,cv,O,6,v,v,TRUE,1,0.151878417
CVOE_B,6,1,2,92,A 62,,,FALSE,CV,p,720,cv,A,2,v,v,TRUE,1,-0.641684286
CVOE_B,6,1,2,93,O 27,,,TRUE,CV,p,920,cv,O,7,v,v,TRUE,1,-0.435831445
CVOE_B,6,1,2,94,E 66,,,FALSE,CV,p,641,cv,E,6,v,v,TRUE,1,-0.722996158
CVOE_B,6,1,2,95,J 62,,,TRUE,CV,q,769,cv,J,2,c,c,TRUE,1,-0.59125034
CVOE_B,6,1,2,96,H 72,,,TRUE,CV,q,620,cv,H,2,c,c,TRUE,1,-0.744610706
CVOE_B,6,1,2,97,E 49,,,TRUE,CV,p,530,cv,E,9,v,v,TRUE,1,-0.837244485
CVOE_B,6,1,2,98,D 52,,,TRUE,CV,q,653,cv,D,2,c,c,TRUE,1,-0.710644987
CVOE_B,6,1,2,99,H 62,,,TRUE,CV,q,568,cv,H,2,c,c,TRUE,1,-0.798132445
CVOE_B,6,1,2,100,I 11,,,TRUE,CV,p,660,cv,I,1,v,v,TRUE,1,-0.703440138
CVOE_B,6,1,2,101,A 98,,,FALSE,CV,p,1054,cv,A,8,v,v,TRUE,1,-0.297910041
CVOE_B,6,1,2,102,H 29,,,FALSE,CV,q,890,cv,H,9,c,c,TRUE,1,-0.466709371
CVOE_B,6,1,2,103,E 83,,,TRUE,CV,p,789,cv,E,3,v,v,TRUE,1,-0.570665055
CVOE_B,6,1,2,104,D 43,,,FALSE,CV,q,1587,cv,D,3,c,c,TRUE,1,0.25068778
CVOE_B,6,1,2,105,P 45,,,TRUE,CV,q,681,cv,P,5,c,c,TRUE,1,-0.68182559
CVOE_B,6,1,2,106,J 17,,,TRUE,CV,q,546,cv,J,7,c,c,TRUE,1,-0.820776257
CVOE_C,3,1,2,12,I 66,,,TRUE,CV,p,678,cv,I,6,v,v,TRUE,1,-0.550890138
CVOE_C,3,1,2,13,S 30,,,FALSE,CV,q,743,cv,S,0,c,c,TRUE,1,-0.468238956
CVOE_C,3,1,2,14,D 20,,,FALSE,CV,q,765,cv,D,0,c,c,TRUE,1,-0.44026471
CVOE_C,3,1,2,15,I 31,,,FALSE,CV,p,533,cv,I,1,v,v,TRUE,1,-0.735265849
CVOE_C,3,1,2,16,P 16,,,FALSE,CV,q,568,cv,P,6,c,c,TRUE,1,-0.690761367
CVOE_C,3,1,2,17,A 49,,,FALSE,CV,p,643,cv,A,9,v,v,TRUE,1,-0.59539462
CVOE_C,3,1,2,18,O 64,,,TRUE,CV,p,524,cv,O,4,v,v,TRUE,1,-0.746709859
CVOE_C,3,1,2,19,D 02,,,FALSE,CV,q,532,cv,D,2,c,c,TRUE,1,-0.736537406
CVOE_C,3,1,2,20,P 81,,,TRUE,CV,q,871,cv,P,1,c,c,TRUE,1,-0.305479707
CVOE_C,3,1,2,21,J 58,,,FALSE,CV,q,797,cv,J,8,c,c,TRUE,1,-0.399574898
CVOE_C,3,1,2,22,A 22,,,TRUE,CV,p,557,cv,A,2,v,v,TRUE,1,-0.70474849
CVOE_C,3,1,2,23,J 72,,,FALSE,CV,q,678,cv,J,2,c,c,TRUE,1,-0.550890138
CVOE_C,3,1,2,24,P 91,,,TRUE,CV,q,454,cv,P,1,c,c,TRUE,1,-0.835718823
CVOE_C,3,1,2,25,E 19,,,FALSE,CV,p,513,cv,E,9,v,v,TRUE,1,-0.760696982
CVOE_C,3,1,2,26,I 30,,,TRUE,CV,p,482,cv,I,0,v,v,TRUE,1,-0.800115238
CVOE_C,3,1,2,27,D 91,,,TRUE,CV,q,378,cv,D,1,c,c,TRUE,1,-0.932357127
CVOE_C,3,1,2,28,O 48,,,TRUE,CV,p,589,cv,O,8,v,v,TRUE,1,-0.664058678
CVOE_C,3,1,2,29,A 89,,,FALSE,CV,p,531,cv,A,9,v,v,TRUE,1,-0.737808963
CVOE_C,3,1,2,30,U 11,,,FALSE,CV,q,382,cv,U,1,v,c,FALSE,0,-0.927270901
CVOE_C,3,1,2,31,I 76,,,TRUE,CV,p,684,cv,I,6,v,v,TRUE,1,-0.543260798
CVOE_C,3,1,2,32,U 89,,,FALSE,CV,p,380,cv,U,9,v,v,TRUE,1,-0.929814014
CVOE_C,3,1,2,33,D 63,,,TRUE,CV,q,562,cv,D,3,c,c,TRUE,1,-0.698390707
CVOE_C,3,1,2,34,H 70,,,FALSE,CV,q,874,cv,H,0,c,c,TRUE,1,-0.301665037
CVOE_C,3,1,2,35,D 48,,,FALSE,CV,q,475,cv,D,8,c,c,TRUE,1,-0.809016134
CVOE_C,3,1,2,36,P 56,,,FALSE,CV,q,475,cv,P,6,c,c,TRUE,1,-0.809016134
CVOE_C,3,1,2,37,O 77,,,FALSE,CV,p,643,cv,O,7,v,v,TRUE,1,-0.59539462
CVOE_C,3,1,2,38,P 42,,,FALSE,CV,q,804,cv,P,2,c,c,TRUE,1,-0.390674002
CVOE_C,3,1,2,39,H 22,,,FALSE,CV,q,484,cv,H,2,c,c,TRUE,1,-0.797572124
CVOE_C,3,1,2,40,E 42,,,TRUE,CV,p,485,cv,E,2,v,v,TRUE,1,-0.796300568
CVOE_C,3,1,2,41,J 28,,,FALSE,CV,q,389,cv,J,8,c,c,TRUE,1,-0.918370004
CVOE_C,3,1,2,42,E 95,,,FALSE,CV,q,491,cv,E,5,v,c,FALSE,0,-0.788671228
CVOE_C,3,1,2,43,S 63,,,TRUE,CV,q,814,cv,S,3,c,c,TRUE,1,-0.377958435
CVOE_C,3,1,2,44,H 50,,,FALSE,CV,q,521,cv,H,0,c,c,TRUE,1,-0.750524529
CVOE_C,3,1,2,45,S 33,,,TRUE,CV,q,985,cv,S,3,c,c,TRUE,1,-0.160522251
CVOE_C,3,1,2,46,P 57,,,TRUE,CV,q,543,cv,P,7,c,c,TRUE,1,-0.722550283
CVOE_C,3,1,2,47,E 23,,,FALSE,CV,p,901,cv,E,3,v,v,TRUE,1,-0.267333008
CVOE_C,3,1,2,48,S 61,,,TRUE,CV,q,763,cv,S,1,c,c,TRUE,1,-0.442807824
CVOE_C,3,1,2,49,U 67,,,FALSE,CV,p,771,cv,U,7,v,v,TRUE,1,-0.432635371
CVOE_C,3,1,2,50,H 32,,,FALSE,CV,q,607,cv,H,2,c,c,TRUE,1,-0.641170658
CVOE_C,3,1,2,51,U 50,,,TRUE,CV,p,498,cv,U,0,v,v,TRUE,1,-0.779770331
CVOE_C,3,1,2,52,O 49,,,FALSE,CV,p,469,cv,O,9,v,v,TRUE,1,-0.816645474
CVOE_C,3,1,2,53,U 32,,,TRUE,CV,p,434,cv,U,2,v,v,TRUE,1,-0.861149956
CVOE_C,3,1,2,54,J 78,,,FALSE,CV,q,667,cv,J,8,c,c,TRUE,1,-0.564877261
CVOE_C,3,1,2,55,S 54,,,FALSE,CV,q,849,cv,S,4,c,c,TRUE,1,-0.333453953
CVOE_C,3,1,2,56,J 27,,,TRUE,CV,q,612,cv,J,7,c,c,TRUE,1,-0.634812875
CVOE_C,3,1,2,57,S 06,,,FALSE,CV,q,759,cv,S,6,c,c,TRUE,1,-0.44789405
CVOE_C,3,1,2,58,D 67,,,TRUE,CV,q,1023,cv,D,7,c,c,TRUE,1,-0.112203099
CVOE_C,3,1,2,59,A 79,,,FALSE,CV,p,701,cv,A,9,v,v,TRUE,1,-0.521644335
CVOE_C,3,1,2,60,S 52,,,FALSE,CV,q,1147,cv,S,2,c,c,TRUE,1,0.045469923
CVOE_C,3,1,2,61,U 16,,,TRUE,CV,p,593,cv,U,6,v,v,TRUE,1,-0.658972451
CVOE_C,3,1,2,62,O 82,,,TRUE,CV,p,434,cv,O,2,v,v,TRUE,1,-0.861149956
CVOE_C,3,1,2,63,H 87,,,TRUE,CV,q,474,cv,H,7,c,c,TRUE,1,-0.810287691
CVOE_C,3,1,2,64,I 32,,,TRUE,CV,p,586,cv,I,2,v,v,TRUE,1,-0.667873348
CVOE_C,3,1,2,65,U 37,,,FALSE,CV,p,496,cv,U,7,v,v,TRUE,1,-0.782313445
CVOE_C,3,1,2,66,I 42,,,TRUE,CV,p,483,cv,I,2,v,v,TRUE,1,-0.798843681
CVOE_C,3,1,2,67,D 65,,,TRUE,CV,q,603,cv,D,5,c,c,TRUE,1,-0.646256885
CVOE_C,3,1,2,68,U 77,,,FALSE,CV,p,604,cv,U,7,v,v,TRUE,1,-0.644985328
CVOE_C,3,1,2,69,E 12,,,TRUE,CV,p,492,cv,E,2,v,v,TRUE,1,-0.787399671
CVOE_C,3,1,2,70,I 60,,,TRUE,CV,p,383,cv,I,0,v,v,TRUE,1,-0.925999344
CVOE_C,3,1,2,71,J 36,,,FALSE,CV,q,541,cv,J,6,c,c,TRUE,1,-0.725093396
CVOE_C,3,1,2,72,H 75,,,TRUE,CV,q,555,cv,H,5,c,c,TRUE,1,-0.707291603
CVOE_C,3,1,2,73,I 50,,,TRUE,CV,p,459,cv,I,0,v,v,TRUE,1,-0.82936104
CVOE_C,3,1,2,74,E 99,,,FALSE,CV,q,446,cv,E,9,v,c,FALSE,0,-0.845891276
CVOE_C,3,1,2,75,A 86,,,TRUE,CV,p,519,cv,A,6,v,v,TRUE,1,-0.753067642
CVOE_C,3,1,2,76,U 48,,,TRUE,CV,p,367,cv,U,8,v,v,TRUE,1,-0.94634425
CVOE_C,3,1,2,77,E 01,,,FALSE,CV,p,370,cv,E,1,v,v,TRUE,1,-0.942529581
CVOE_C,3,1,2,78,A 78,,,TRUE,CV,p,1013,cv,A,8,v,v,TRUE,1,-0.124918666
CVOE_C,3,1,2,79,P 60,,,FALSE,CV,q,728,cv,P,0,c,c,TRUE,1,-0.487312306
CVOE_C,3,1,2,80,E 43,,,FALSE,CV,p,619,cv,E,3,v,v,TRUE,1,-0.625911979
CVOE_C,3,1,2,81,D 69,,,TRUE,CV,q,646,cv,D,9,c,c,TRUE,1,-0.59157995
CVOE_C,3,1,2,82,H 11,,,TRUE,CV,q,634,cv,H,1,c,c,TRUE,1,-0.606838629
CVOE_C,3,1,2,83,P 43,,,TRUE,CV,q,586,cv,P,3,c,c,TRUE,1,-0.667873348
CVOE_C,3,1,2,84,O 67,,,FALSE,CV,p,536,cv,O,7,v,v,TRUE,1,-0.731451179
CVOE_C,3,1,2,85,S 91,,,FALSE,CV,q,467,cv,S,1,c,c,TRUE,1,-0.819188587
CVOE_C,3,1,2,86,J 68,,,TRUE,CV,q,441,cv,J,8,c,c,TRUE,1,-0.85224906
CVOE_C,3,1,2,87,S 47,,,FALSE,CV,q,353,cv,S,7,c,c,TRUE,1,-0.964146043
CVOE_C,3,1,2,88,I 81,,,TRUE,CV,p,511,cv,I,1,v,v,TRUE,1,-0.763240095
CVOE_C,3,1,2,89,J 39,,,FALSE,CV,q,484,cv,J,9,c,c,TRUE,1,-0.797572124
CVOE_C,3,1,2,90,A 11,,,TRUE,CV,p,509,cv,A,1,v,v,TRUE,1,-0.765783209
CVOE_C,3,1,2,91,O 76,,,FALSE,CV,p,490,cv,O,6,v,v,TRUE,1,-0.789942785
CVOE_C,3,1,2,92,A 62,,,FALSE,CV,p,406,cv,A,2,v,v,TRUE,1,-0.896753542
CVOE_C,3,1,2,93,O 27,,,TRUE,CV,p,342,cv,O,7,v,v,TRUE,1,-0.978133166
CVOE_C,3,1,2,94,E 66,,,FALSE,CV,p,420,cv,E,6,v,v,TRUE,1,-0.878951749
CVOE_C,3,1,2,95,J 62,,,TRUE,CV,q,647,cv,J,2,c,c,TRUE,1,-0.590308393
CVOE_C,3,1,2,96,H 72,,,TRUE,CV,p,530,cv,H,2,c,v,FALSE,0,-0.739080519
CVOE_C,3,1,2,97,E 49,,,TRUE,CV,p,973,cv,E,9,v,v,TRUE,1,-0.175780931
CVOE_C,3,1,2,98,D 52,,,TRUE,CV,q,648,cv,D,2,c,c,TRUE,1,-0.589036837
CVOE_C,3,1,2,99,H 62,,,TRUE,CV,q,451,cv,H,2,c,c,TRUE,1,-0.839533493
CVOE_C,3,1,2,100,I 11,,,TRUE,CV,p,694,cv,I,1,v,v,TRUE,1,-0.530545231
CVOE_C,3,1,2,101,A 98,,,FALSE,CV,p,425,cv,A,8,v,v,TRUE,1,-0.872593966
CVOE_C,3,1,2,102,H 29,,,FALSE,CV,q,559,cv,H,9,c,c,TRUE,1,-0.702205377
CVOE_C,3,1,2,103,E 83,,,TRUE,CV,q,479,cv,E,3,v,c,FALSE,0,-0.803929908
CVOE_C,3,1,2,104,D 43,,,FALSE,CV,q,1089,cv,D,3,c,c,TRUE,1,-0.028280361
CVOE_C,3,1,2,105,P 45,,,TRUE,CV,q,555,cv,P,5,c,c,TRUE,1,-0.707291603
CVOE_C,3,1,2,106,J 17,,,TRUE,CV,q,459,cv,J,7,c,c,TRUE,1,-0.82936104
CVOE_C,11,1,2,11,A 71,,,FALSE,CV,p,2185,cv,A,1,v,v,TRUE,1,2.408472635
CVOE_C,11,1,2,12,I 66,,,TRUE,CV,p,727,cv,I,6,v,v,TRUE,1,-0.406749587
CVOE_C,11,1,2,13,S 30,,,FALSE,CV,q,575,cv,S,0,c,c,TRUE,1,-0.700243262
CVOE_C,11,1,2,14,D 20,,,FALSE,CV,q,1930,cv,D,0,c,c,TRUE,1,1.916098378
CVOE_C,11,1,2,15,I 31,,,FALSE,CV,p,574,cv,I,1,v,v,TRUE,1,-0.702174141
CVOE_C,11,1,2,16,P 16,,,FALSE,CV,q,705,cv,P,6,c,c,TRUE,1,-0.449228935
CVOE_C,11,1,2,17,A 49,,,FALSE,CV,p,775,cv,A,9,v,v,TRUE,1,-0.314067374
CVOE_C,11,1,2,18,O 64,,,TRUE,CV,p,466,cv,O,4,v,v,TRUE,1,-0.910709121
CVOE_C,11,1,2,19,D 02,,,FALSE,CV,q,544,cv,D,2,c,c,TRUE,1,-0.760100524
CVOE_C,11,1,2,20,P 81,,,TRUE,CV,q,870,cv,P,1,c,c,TRUE,1,-0.130633827
CVOE_C,11,1,2,21,J 58,,,FALSE,CV,q,499,cv,J,8,c,c,TRUE,1,-0.846990099
CVOE_C,11,1,2,22,A 22,,,TRUE,CV,p,598,cv,A,2,v,v,TRUE,1,-0.655833035
CVOE_C,11,1,2,23,J 72,,,FALSE,CV,q,559,cv,J,2,c,c,TRUE,1,-0.731137333
CVOE_C,11,1,2,24,P 91,,,TRUE,CV,q,903,cv,P,1,c,c,TRUE,1,-0.066914806
CVOE_C,11,1,2,25,E 19,,,FALSE,CV,p,765,cv,E,9,v,v,TRUE,1,-0.333376168
CVOE_C,11,1,2,26,I 30,,,TRUE,CV,p,398,cv,I,0,v,v,TRUE,1,-1.042008922
CVOE_C,11,1,2,27,D 91,,,TRUE,CV,q,486,cv,D,1,c,c,TRUE,1,-0.872091532
CVOE_C,11,1,2,28,O 48,,,TRUE,CV,p,550,cv,O,8,v,v,TRUE,1,-0.748515248
CVOE_C,11,1,2,29,A 89,,,FALSE,CV,q,556,cv,A,9,v,c,FALSE,0,-0.736929971
CVOE_C,11,1,2,30,U 11,,,FALSE,CV,p,1045,cv,U,1,v,v,TRUE,1,0.207270075
CVOE_C,11,1,2,31,I 76,,,TRUE,CV,p,1189,cv,I,6,v,v,TRUE,1,0.485316714
CVOE_C,11,1,2,32,U 89,,,FALSE,CV,p,483,cv,U,9,v,v,TRUE,1,-0.87788417
CVOE_C,11,1,2,33,D 63,,,TRUE,CV,q,892,cv,D,3,c,c,TRUE,1,-0.08815448
CVOE_C,11,1,2,34,H 70,,,FALSE,CV,q,495,cv,H,0,c,c,TRUE,1,-0.854713617
CVOE_C,11,1,2,35,D 48,,,FALSE,CV,q,858,cv,D,8,c,c,TRUE,1,-0.15380438
CVOE_C,11,1,2,36,P 56,,,FALSE,CV,q,429,cv,P,6,c,c,TRUE,1,-0.98215166
CVOE_C,11,1,2,37,O 77,,,FALSE,CV,p,859,cv,O,7,v,v,TRUE,1,-0.151873501
CVOE_C,11,1,2,38,P 42,,,FALSE,CV,q,654,cv,P,2,c,c,TRUE,1,-0.547703786
CVOE_C,11,1,2,39,H 22,,,FALSE,CV,q,897,cv,H,2,c,c,TRUE,1,-0.078500082
CVOE_C,11,1,2,40,E 42,,,TRUE,CV,p,564,cv,E,2,v,v,TRUE,1,-0.721482936
CVOE_C,11,1,2,41,J 28,,,FALSE,CV,q,485,cv,J,8,c,c,TRUE,1,-0.874022411
CVOE_C,11,1,2,42,E 95,,,FALSE,CV,p,509,cv,E,5,v,v,TRUE,1,-0.827681305
CVOE_C,11,1,2,43,S 63,,,TRUE,CV,q,387,cv,S,3,c,c,TRUE,1,-1.063248596
CVOE_C,11,1,2,44,H 50,,,FALSE,CV,q,496,cv,H,0,c,c,TRUE,1,-0.852782737
CVOE_C,11,1,2,45,S 33,,,TRUE,CV,q,595,cv,S,3,c,c,TRUE,1,-0.661625673
CVOE_C,11,1,2,46,P 57,,,TRUE,CV,q,460,cv,P,7,c,c,TRUE,1,-0.922294397
CVOE_C,11,1,2,47,E 23,,,FALSE,CV,p,567,cv,E,3,v,v,TRUE,1,-0.715690297
CVOE_C,11,1,2,48,S 61,,,TRUE,CV,q,695,cv,S,1,c,c,TRUE,1,-0.468537729
CVOE_C,11,1,2,49,U 67,,,FALSE,CV,p,490,cv,U,7,v,v,TRUE,1,-0.864368014
CVOE_C,11,1,2,50,H 32,,,FALSE,CV,q,397,cv,H,2,c,c,TRUE,1,-1.043939802
CVOE_C,11,1,2,51,U 50,,,TRUE,CV,p,502,cv,U,0,v,v,TRUE,1,-0.841197461
CVOE_C,11,1,2,52,O 49,,,FALSE,CV,p,619,cv,O,9,v,v,TRUE,1,-0.615284566
CVOE_C,11,1,2,53,U 32,,,TRUE,CV,p,799,cv,U,2,v,v,TRUE,1,-0.267726267
CVOE_C,11,1,2,54,J 78,,,FALSE,CV,q,527,cv,J,8,c,c,TRUE,1,-0.792925475
CVOE_C,11,1,2,55,S 54,,,FALSE,CV,q,831,cv,S,4,c,c,TRUE,1,-0.205938125
CVOE_C,11,1,2,56,J 27,,,TRUE,CV,q,421,cv,J,7,c,c,TRUE,1,-0.997598695
CVOE_C,11,1,2,57,S 06,,,FALSE,CV,q,491,cv,S,6,c,c,TRUE,1,-0.862437135
CVOE_C,11,1,2,58,D 67,,,TRUE,CV,q,446,cv,D,7,c,c,TRUE,1,-0.949326709
CVOE_C,11,1,2,59,A 79,,,FALSE,CV,p,398,cv,A,9,v,v,TRUE,1,-1.042008922
CVOE_C,11,1,2,60,S 52,,,FALSE,CV,q,479,cv,S,2,c,c,TRUE,1,-0.885607688
CVOE_C,11,1,2,61,U 16,,,TRUE,CV,p,503,cv,U,6,v,v,TRUE,1,-0.839266581
CVOE_C,11,1,2,62,O 82,,,TRUE,CV,p,837,cv,O,2,v,v,TRUE,1,-0.194352849
CVOE_C,11,1,2,63,H 87,,,TRUE,CV,q,509,cv,H,7,c,c,TRUE,1,-0.827681305
CVOE_C,11,1,2,64,I 32,,,TRUE,CV,p,451,cv,I,2,v,v,TRUE,1,-0.939672312
CVOE_C,11,1,2,65,U 37,,,FALSE,CV,p,574,cv,U,7,v,v,TRUE,1,-0.702174141
CVOE_C,11,1,2,66,I 42,,,TRUE,CV,p,409,cv,I,2,v,v,TRUE,1,-1.020769249
CVOE_C,11,1,2,67,D 65,,,TRUE,CV,q,420,cv,D,5,c,c,TRUE,1,-0.999529575
CVOE_C,11,1,2,68,U 77,,,FALSE,CV,p,447,cv,U,7,v,v,TRUE,1,-0.94739583
CVOE_C,11,1,2,69,E 12,,,TRUE,CV,q,368,cv,E,2,v,c,FALSE,0,-1.099935306
CVOE_C,11,1,2,70,I 60,,,TRUE,CV,p,544,cv,I,0,v,v,TRUE,1,-0.760100524
CVOE_C,11,1,2,71,J 36,,,FALSE,CV,q,646,cv,J,6,c,c,TRUE,1,-0.563150822
CVOE_C,11,1,2,72,H 75,,,TRUE,CV,q,646,cv,H,5,c,c,TRUE,1,-0.563150822
CVOE_C,11,1,2,73,I 50,,,TRUE,CV,p,1543,cv,I,0,v,v,TRUE,1,1.168848035
CVOE_C,11,1,2,74,E 99,,,FALSE,CV,p,381,cv,E,9,v,v,TRUE,1,-1.074833873
CVOE_C,11,1,2,75,A 86,,,TRUE,CV,p,520,cv,A,6,v,v,TRUE,1,-0.806441631
CVOE_C,11,1,2,76,U 48,,,TRUE,CV,p,408,cv,U,8,v,v,TRUE,1,-1.022700128
CVOE_C,11,1,2,77,E 01,,,FALSE,CV,p,763,cv,E,1,v,v,TRUE,1,-0.337237927
CVOE_C,11,1,2,78,A 78,,,TRUE,CV,p,460,cv,A,8,v,v,TRUE,1,-0.922294397
CVOE_C,11,1,2,79,P 60,,,FALSE,CV,q,471,cv,P,0,c,c,TRUE,1,-0.901054723
CVOE_C,11,1,2,80,E 43,,,FALSE,CV,p,428,cv,E,3,v,v,TRUE,1,-0.984082539
CVOE_C,11,1,2,81,D 69,,,TRUE,CV,q,578,cv,D,9,c,c,TRUE,1,-0.694450623
CVOE_C,11,1,2,82,H 11,,,TRUE,CV,q,1333,cv,H,1,c,c,TRUE,1,0.763363353
CVOE_C,11,1,2,83,P 43,,,TRUE,CV,q,696,cv,P,3,c,c,TRUE,1,-0.46660685
CVOE_C,11,1,2,84,O 67,,,FALSE,CV,p,460,cv,O,7,v,v,TRUE,1,-0.922294397
CVOE_C,11,1,2,85,S 91,,,FALSE,CV,q,559,cv,S,1,c,c,TRUE,1,-0.731137333
CVOE_C,11,1,2,86,J 68,,,TRUE,CV,q,407,cv,J,8,c,c,TRUE,1,-1.024631007
CVOE_C,11,1,2,87,S 47,,,FALSE,CV,q,367,cv,S,7,c,c,TRUE,1,-1.101866185
CVOE_C,11,1,2,88,I 81,,,TRUE,CV,p,568,cv,I,1,v,v,TRUE,1,-0.713759418
CVOE_C,11,1,2,89,J 39,,,FALSE,CV,q,459,cv,J,9,c,c,TRUE,1,-0.924225277
CVOE_C,11,1,2,90,A 11,,,TRUE,CV,p,502,cv,A,1,v,v,TRUE,1,-0.841197461
CVOE_C,11,1,2,91,O 76,,,FALSE,CV,p,436,cv,O,6,v,v,TRUE,1,-0.968635504
CVOE_C,11,1,2,92,A 62,,,FALSE,CV,p,372,cv,A,2,v,v,TRUE,1,-1.092211788
CVOE_C,11,1,2,93,O 27,,,TRUE,CV,p,407,cv,O,7,v,v,TRUE,1,-1.024631007
CVOE_C,11,1,2,94,E 66,,,FALSE,CV,p,439,cv,E,6,v,v,TRUE,1,-0.962842865
CVOE_C,11,1,2,95,J 62,,,TRUE,CV,q,536,cv,J,2,c,c,TRUE,1,-0.77554756
CVOE_C,11,1,2,96,H 72,,,TRUE,CV,q,483,cv,H,2,c,c,TRUE,1,-0.87788417
CVOE_C,11,1,2,97,E 49,,,TRUE,CV,p,403,cv,E,9,v,v,TRUE,1,-1.032354525
CVOE_C,11,1,2,98,D 52,,,TRUE,CV,q,467,cv,D,2,c,c,TRUE,1,-0.908778241
CVOE_C,11,1,2,99,H 62,,,TRUE,CV,q,809,cv,H,2,c,c,TRUE,1,-0.248417473
CVOE_C,11,1,2,100,I 11,,,TRUE,CV,p,516,cv,I,1,v,v,TRUE,1,-0.814165149
CVOE_C,11,1,2,101,A 98,,,FALSE,CV,p,789,cv,A,8,v,v,TRUE,1,-0.287035062
CVOE_C,11,1,2,102,H 29,,,FALSE,CV,q,507,cv,H,9,c,c,TRUE,1,-0.831543064
CVOE_C,11,1,2,103,E 83,,,TRUE,CV,p,400,cv,E,3,v,v,TRUE,1,-1.038147164
CVOE_C,11,1,2,104,D 43,,,FALSE,CV,q,537,cv,D,3,c,c,TRUE,1,-0.77361668
CVOE_C,11,1,2,105,P 45,,,TRUE,CV,q,572,cv,P,5,c,c,TRUE,1,-0.7060359
CVOE_C,11,1,2,106,J 17,,,TRUE,CV,q,375,cv,J,7,c,c,TRUE,1,-1.08641915
CVOE_C,15,1,2,12,I 66,,,TRUE,CV,p,1180,cv,I,6,v,v,TRUE,1,2.090067329
CVOE_C,15,1,2,13,S 30,,,FALSE,CV,q,442,cv,S,0,c,c,TRUE,1,-0.414600752
CVOE_C,15,1,2,14,D 20,,,FALSE,CV,q,450,cv,D,0,c,c,TRUE,1,-0.387449878
CVOE_C,15,1,2,15,I 31,,,FALSE,CV,p,430,cv,I,1,v,v,TRUE,1,-0.455327062
CVOE_C,15,1,2,16,P 16,,,FALSE,CV,q,603,cv,P,6,c,c,TRUE,1,0.131810577
CVOE_C,15,1,2,17,A 49,,,FALSE,CV,p,500,cv,A,9,v,v,TRUE,1,-0.217756919
CVOE_C,15,1,2,18,O 64,,,TRUE,CV,p,415,cv,O,4,v,v,TRUE,1,-0.50623495
CVOE_C,15,1,2,19,D 02,,,FALSE,CV,q,1338,cv,D,2,c,c,TRUE,1,2.626297081
CVOE_C,15,1,2,20,P 81,,,TRUE,CV,q,437,cv,P,1,c,c,TRUE,1,-0.431570048
CVOE_C,15,1,2,21,J 58,,,FALSE,CV,q,429,cv,J,8,c,c,TRUE,1,-0.458720921
CVOE_C,15,1,2,22,A 22,,,TRUE,CV,p,419,cv,A,2,v,v,TRUE,1,-0.492659513
CVOE_C,15,1,2,23,J 72,,,FALSE,CV,q,414,cv,J,2,c,c,TRUE,1,-0.509628809
CVOE_C,15,1,2,24,P 91,,,TRUE,CV,q,377,cv,P,1,c,c,TRUE,1,-0.635201599
CVOE_C,15,1,2,25,E 19,,,FALSE,CV,p,404,cv,E,9,v,v,TRUE,1,-0.543567401
CVOE_C,15,1,2,26,I 30,,,TRUE,CV,p,413,cv,I,0,v,v,TRUE,1,-0.513022668
CVOE_C,15,1,2,27,D 91,,,TRUE,CV,q,512,cv,D,1,c,c,TRUE,1,-0.177030609
CVOE_C,15,1,2,28,O 48,,,TRUE,CV,p,381,cv,O,8,v,v,TRUE,1,-0.621626162
CVOE_C,15,1,2,29,A 89,,,FALSE,CV,q,339,cv,A,9,v,c,FALSE,0,-0.764168248
CVOE_C,15,1,2,30,U 11,,,FALSE,CV,q,614,cv,U,1,v,c,FALSE,0,0.169143029
CVOE_C,15,1,2,31,I 76,,,TRUE,CV,p,481,cv,I,6,v,v,TRUE,1,-0.282240244
CVOE_C,15,1,2,32,U 89,,,FALSE,CV,p,497,cv,U,9,v,v,TRUE,1,-0.227938497
CVOE_C,15,1,2,33,D 63,,,TRUE,CV,q,628,cv,D,3,c,c,TRUE,1,0.216657057
CVOE_C,15,1,2,34,H 70,,,FALSE,CV,q,674,cv,H,0,c,c,TRUE,1,0.37277458
CVOE_C,15,1,2,35,D 48,,,FALSE,CV,q,467,cv,D,8,c,c,TRUE,1,-0.329754272
CVOE_C,15,1,2,36,P 56,,,FALSE,CV,q,368,cv,P,6,c,c,TRUE,1,-0.665746332
CVOE_C,15,1,2,37,O 77,,,FALSE,CV,p,379,cv,O,7,v,v,TRUE,1,-0.628413881
CVOE_C,15,1,2,38,P 42,,,FALSE,CV,q,350,cv,P,2,c,c,TRUE,1,-0.726835797
CVOE_C,15,1,2,39,H 22,,,FALSE,CV,q,404,cv,H,2,c,c,TRUE,1,-0.543567401
CVOE_C,15,1,2,40,E 42,,,TRUE,CV,p,436,cv,E,2,v,v,TRUE,1,-0.434963907
CVOE_C,15,1,2,41,J 28,,,FALSE,CV,q,405,cv,J,8,c,c,TRUE,1,-0.540173542
CVOE_C,15,1,2,42,E 95,,,FALSE,CV,q,301,cv,E,5,v,c,FALSE,0,-0.893134897
CVOE_C,15,1,2,43,S 63,,,TRUE,CV,q,523,cv,S,3,c,c,TRUE,1,-0.139698158
CVOE_C,15,1,2,44,H 50,,,FALSE,CV,q,363,cv,H,0,c,c,TRUE,1,-0.682715628
CVOE_C,15,1,2,45,S 33,,,TRUE,CV,q,467,cv,S,3,c,c,TRUE,1,-0.329754272
CVOE_C,15,1,2,46,P 57,,,TRUE,CV,q,329,cv,P,7,c,c,TRUE,1,-0.79810684
CVOE_C,15,1,2,47,E 23,,,FALSE,CV,p,348,cv,E,3,v,v,TRUE,1,-0.733623516
CVOE_C,15,1,2,48,S 61,,,TRUE,CV,q,578,cv,S,1,c,c,TRUE,1,0.046964098
CVOE_C,15,1,2,49,U 67,,,FALSE,CV,p,669,cv,U,7,v,v,TRUE,1,0.355805284
CVOE_C,15,1,2,50,H 32,,,FALSE,CV,q,547,cv,H,2,c,c,TRUE,1,-0.058245537
CVOE_C,15,1,2,51,U 50,,,TRUE,CV,p,312,cv,U,0,v,v,TRUE,1,-0.855802446
CVOE_C,15,1,2,52,O 49,,,FALSE,CV,p,462,cv,O,9,v,v,TRUE,1,-0.346723568
CVOE_C,15,1,2,53,U 32,,,TRUE,CV,p,388,cv,U,2,v,v,TRUE,1,-0.597869148
CVOE_C,15,1,2,54,J 78,,,FALSE,CV,q,345,cv,J,8,c,c,TRUE,1,-0.743805093
CVOE_C,15,1,2,55,S 54,,,FALSE,CV,q,367,cv,S,4,c,c,TRUE,1,-0.669140191
CVOE_C,15,1,2,56,J 27,,,TRUE,CV,q,354,cv,J,7,c,c,TRUE,1,-0.71326036
CVOE_C,15,1,2,57,S 06,,,FALSE,CV,q,1354,cv,S,6,c,c,TRUE,1,2.680598828
CVOE_C,15,1,2,58,D 67,,,TRUE,CV,q,379,cv,D,7,c,c,TRUE,1,-0.628413881
CVOE_C,15,1,2,59,A 79,,,FALSE,CV,p,462,cv,A,9,v,v,TRUE,1,-0.346723568
CVOE_C,15,1,2,60,S 52,,,FALSE,CV,q,460,cv,S,2,c,c,TRUE,1,-0.353511286
CVOE_C,15,1,2,61,U 16,,,TRUE,CV,p,431,cv,U,6,v,v,TRUE,1,-0.451933203
CVOE_C,15,1,2,62,O 82,,,TRUE,CV,p,357,cv,O,2,v,v,TRUE,1,-0.703078783
CVOE_C,15,1,2,63,H 87,,,TRUE,CV,q,349,cv,H,7,c,c,TRUE,1,-0.730229656
CVOE_C,15,1,2,64,I 32,,,TRUE,CV,p,403,cv,I,2,v,v,TRUE,1,-0.54696126
CVOE_C,15,1,2,65,U 37,,,FALSE,CV,p,803,cv,U,7,v,v,TRUE,1,0.810582415
CVOE_C,15,1,2,66,I 42,,,TRUE,CV,p,355,cv,I,2,v,v,TRUE,1,-0.709866501
CVOE_C,15,1,2,67,D 65,,,TRUE,CV,q,300,cv,D,5,c,c,TRUE,1,-0.896528757
CVOE_C,15,1,2,68,U 77,,,FALSE,CV,p,343,cv,U,7,v,v,TRUE,1,-0.750592812
CVOE_C,15,1,2,69,E 12,,,TRUE,CV,p,396,cv,E,2,v,v,TRUE,1,-0.570718275
CVOE_C,15,1,2,70,I 60,,,TRUE,CV,p,365,cv,I,0,v,v,TRUE,1,-0.675927909
CVOE_C,15,1,2,71,J 36,,,FALSE,CV,p,333,cv,J,6,c,v,FALSE,0,-0.784531403
CVOE_C,15,1,2,72,H 75,,,TRUE,CV,q,392,cv,H,5,c,c,TRUE,1,-0.584293711
CVOE_C,15,1,2,73,I 50,,,TRUE,CV,p,366,cv,I,0,v,v,TRUE,1,-0.67253405
CVOE_C,15,1,2,74,E 99,,,FALSE,CV,q,350,cv,E,9,v,c,FALSE,0,-0.726835797
CVOE_C,15,1,2,75,A 86,,,TRUE,CV,q,340,cv,A,6,v,c,FALSE,0,-0.760774389
CVOE_C,15,1,2,76,U 48,,,TRUE,CV,p,591,cv,U,8,v,v,TRUE,1,0.091084267
CVOE_C,15,1,2,77,E 01,,,FALSE,CV,p,405,cv,E,1,v,v,TRUE,1,-0.540173542
CVOE_C,15,1,2,78,A 78,,,TRUE,CV,p,429,cv,A,8,v,v,TRUE,1,-0.458720921
CVOE_C,15,1,2,79,P 60,,,FALSE,CV,q,307,cv,P,0,c,c,TRUE,1,-0.872771742
CVOE_C,15,1,2,80,E 43,,,FALSE,CV,p,344,cv,E,3,v,v,TRUE,1,-0.747198952
CVOE_C,15,1,2,81,D 69,,,TRUE,CV,q,278,cv,D,9,c,c,TRUE,1,-0.971193659
CVOE_C,15,1,2,82,H 11,,,TRUE,CV,q,382,cv,H,1,c,c,TRUE,1,-0.618232303
CVOE_C,15,1,2,83,P 43,,,TRUE,CV,q,380,cv,P,3,c,c,TRUE,1,-0.625020022
CVOE_C,15,1,2,84,O 67,,,FALSE,CV,p,431,cv,O,7,v,v,TRUE,1,-0.451933203
CVOE_C,15,1,2,85,S 91,,,FALSE,CV,p,357,cv,S,1,c,v,FALSE,0,-0.703078783
CVOE_C,15,1,2,86,J 68,,,TRUE,CV,q,469,cv,J,8,c,c,TRUE,1,-0.322966554
CVOE_C,15,1,2,87,S 47,,,FALSE,CV,q,371,cv,S,7,c,c,TRUE,1,-0.655564754
CVOE_C,15,1,2,88,I 81,,,TRUE,CV,p,478,cv,I,1,v,v,TRUE,1,-0.292421821
CVOE_C,15,1,2,89,J 39,,,FALSE,CV,q,462,cv,J,9,c,c,TRUE,1,-0.346723568
CVOE_C,15,1,2,90,A 11,,,TRUE,CV,q,380,cv,A,1,v,c,FALSE,0,-0.625020022
CVOE_C,15,1,2,91,O 76,,,FALSE,CV,p,457,cv,O,6,v,v,TRUE,1,-0.363692864
CVOE_C,15,1,2,92,A 62,,,FALSE,CV,p,620,cv,A,2,v,v,TRUE,1,0.189506184
CVOE_C,15,1,2,93,O 27,,,TRUE,CV,p,354,cv,O,7,v,v,TRUE,1,-0.71326036
CVOE_C,15,1,2,94,E 66,,,FALSE,CV,p,411,cv,E,6,v,v,TRUE,1,-0.519810387
CVOE_C,15,1,2,95,J 62,,,TRUE,CV,q,494,cv,J,2,c,c,TRUE,1,-0.238120074
CVOE_C,15,1,2,96,H 72,,,TRUE,CV,q,521,cv,H,2,c,c,TRUE,1,-0.146485876
CVOE_C,15,1,2,97,E 49,,,TRUE,CV,p,361,cv,E,9,v,v,TRUE,1,-0.689503346
CVOE_C,15,1,2,98,D 52,,,TRUE,CV,q,329,cv,D,2,c,c,TRUE,1,-0.79810684
CVOE_C,15,1,2,99,H 62,,,TRUE,CV,q,396,cv,H,2,c,c,TRUE,1,-0.570718275
CVOE_C,15,1,2,100,I 11,,,TRUE,CV,p,397,cv,I,1,v,v,TRUE,1,-0.567324415
CVOE_C,15,1,2,101,A 98,,,FALSE,CV,p,501,cv,A,8,v,v,TRUE,1,-0.21436306
CVOE_C,15,1,2,102,H 29,,,FALSE,CV,p,363,cv,H,9,c,v,FALSE,0,-0.682715628
CVOE_C,15,1,2,103,E 83,,,TRUE,CV,q,299,cv,E,3,v,c,FALSE,0,-0.899922616
CVOE_C,15,1,2,104,D 43,,,FALSE,CV,q,518,cv,D,3,c,c,TRUE,1,-0.156667454
CVOE_C,15,1,2,105,P 45,,,TRUE,CV,q,430,cv,P,5,c,c,TRUE,1,-0.455327062
CVOE_C,15,1,2,106,J 17,,,TRUE,CV,q,316,cv,J,7,c,c,TRUE,1,-0.84222701
CVOE_C,7,1,2,11,A 71,,,FALSE,CV,p,3005,cv,A,1,v,v,TRUE,1,2.215221308
CVOE_C,7,1,2,12,I 66,,,TRUE,CV,p,830,cv,I,6,v,v,TRUE,1,-0.560207778
CVOE_C,7,1,2,13,S 30,,,FALSE,CV,q,668,cv,S,0,c,c,TRUE,1,-0.766929392
CVOE_C,7,1,2,14,D 20,,,FALSE,CV,q,754,cv,D,0,c,c,TRUE,1,-0.657188288
CVOE_C,7,1,2,15,I 31,,,FALSE,CV,p,874,cv,I,1,v,v,TRUE,1,-0.504061166
CVOE_C,7,1,2,16,P 16,,,FALSE,CV,q,859,cv,P,6,c,c,TRUE,1,-0.523202056
CVOE_C,7,1,2,17,A 49,,,FALSE,CV,p,902,cv,A,9,v,v,TRUE,1,-0.468331504
CVOE_C,7,1,2,18,O 64,,,TRUE,CV,p,1076,cv,O,4,v,v,TRUE,1,-0.246297178
CVOE_C,7,1,2,19,D 02,,,FALSE,CV,q,581,cv,D,2,c,c,TRUE,1,-0.877946556
CVOE_C,7,1,2,20,P 81,,,TRUE,CV,q,1338,cv,P,1,c,c,TRUE,1,0.088030372
CVOE_C,7,1,2,21,J 58,,,FALSE,CV,q,646,cv,J,8,c,c,TRUE,1,-0.795002698
CVOE_C,7,1,2,22,A 22,,,TRUE,CV,p,606,cv,A,2,v,v,TRUE,1,-0.846045072
CVOE_C,7,1,2,23,J 72,,,FALSE,CV,q,601,cv,J,2,c,c,TRUE,1,-0.852425369
CVOE_C,7,1,2,24,P 91,,,TRUE,CV,q,986,cv,P,1,c,c,TRUE,1,-0.361142519
CVOE_C,7,1,2,25,E 19,,,FALSE,CV,p,1024,cv,E,9,v,v,TRUE,1,-0.312652264
CVOE_C,7,1,2,26,I 30,,,TRUE,CV,p,694,cv,I,0,v,v,TRUE,1,-0.733751849
CVOE_C,7,1,2,27,D 91,,,TRUE,CV,q,697,cv,D,1,c,c,TRUE,1,-0.729923671
CVOE_C,7,1,2,28,O 48,,,TRUE,CV,p,636,cv,O,8,v,v,TRUE,1,-0.807763291
CVOE_C,7,1,2,29,A 89,,,FALSE,CV,p,764,cv,A,9,v,v,TRUE,1,-0.644427695
CVOE_C,7,1,2,30,U 11,,,FALSE,CV,p,789,cv,U,1,v,v,TRUE,1,-0.612526211
CVOE_C,7,1,2,31,I 76,,,TRUE,CV,p,787,cv,I,6,v,v,TRUE,1,-0.61507833
CVOE_C,7,1,2,32,U 89,,,FALSE,CV,p,672,cv,U,9,v,v,TRUE,1,-0.761825155
CVOE_C,7,1,2,33,D 63,,,TRUE,CV,q,614,cv,D,3,c,c,TRUE,1,-0.835836597
CVOE_C,7,1,2,34,H 70,,,FALSE,CV,q,857,cv,H,0,c,c,TRUE,1,-0.525754175
CVOE_C,7,1,2,35,D 48,,,FALSE,CV,q,597,cv,D,8,c,c,TRUE,1,-0.857529606
CVOE_C,7,1,2,36,P 56,,,FALSE,CV,q,861,cv,P,6,c,c,TRUE,1,-0.520649938
CVOE_C,7,1,2,37,O 77,,,FALSE,CV,p,699,cv,O,7,v,v,TRUE,1,-0.727371552
CVOE_C,7,1,2,38,P 42,,,FALSE,CV,q,598,cv,P,2,c,c,TRUE,1,-0.856253547
CVOE_C,7,1,2,39,H 22,,,FALSE,CV,q,1014,cv,H,2,c,c,TRUE,1,-0.325412857
CVOE_C,7,1,2,40,E 42,,,TRUE,CV,p,954,cv,E,2,v,v,TRUE,1,-0.401976418
CVOE_C,7,1,2,41,J 28,,,FALSE,CV,q,1394,cv,J,8,c,c,TRUE,1,0.159489696
CVOE_C,7,1,2,42,E 95,,,FALSE,CV,p,595,cv,E,5,v,v,TRUE,1,-0.860081725
CVOE_C,7,1,2,43,S 63,,,TRUE,CV,q,587,cv,S,3,c,c,TRUE,1,-0.8702902
CVOE_C,7,1,2,44,H 50,,,FALSE,CV,q,1201,cv,H,0,c,c,TRUE,1,-0.086789759
CVOE_C,7,1,2,45,S 33,,,TRUE,CV,q,642,cv,S,3,c,c,TRUE,1,-0.800106935
CVOE_C,7,1,2,46,P 57,,,TRUE,CV,q,1034,cv,P,7,c,c,TRUE,1,-0.29989167
CVOE_C,7,1,2,47,E 23,,,FALSE,CV,p,923,cv,E,3,v,v,TRUE,1,-0.441534258
CVOE_C,7,1,2,48,S 61,,,TRUE,CV,q,587,cv,S,1,c,c,TRUE,1,-0.8702902
CVOE_C,7,1,2,49,U 67,,,FALSE,CV,p,697,cv,U,7,v,v,TRUE,1,-0.729923671
CVOE_C,7,1,2,50,H 32,,,FALSE,CV,q,516,cv,H,2,c,c,TRUE,1,-0.960890413
CVOE_C,7,1,2,51,U 50,,,TRUE,CV,p,653,cv,U,0,v,v,TRUE,1,-0.786070282
CVOE_C,7,1,2,52,O 49,,,FALSE,CV,p,776,cv,O,9,v,v,TRUE,1,-0.629114982
CVOE_C,7,1,2,53,U 32,,,TRUE,CV,p,675,cv,U,2,v,v,TRUE,1,-0.757996977
CVOE_C,7,1,2,54,J 78,,,FALSE,CV,q,539,cv,J,8,c,c,TRUE,1,-0.931541048
CVOE_C,7,1,2,55,S 54,,,FALSE,CV,q,942,cv,S,4,c,c,TRUE,1,-0.41728913
CVOE_C,7,1,2,56,J 27,,,TRUE,CV,q,572,cv,J,7,c,c,TRUE,1,-0.88943109
CVOE_C,7,1,2,57,S 06,,,FALSE,CV,q,647,cv,S,6,c,c,TRUE,1,-0.793726639
CVOE_C,7,1,2,58,D 67,,,TRUE,CV,q,691,cv,D,7,c,c,TRUE,1,-0.737580027
CVOE_C,7,1,2,59,A 79,,,FALSE,CV,p,598,cv,A,9,v,v,TRUE,1,-0.856253547
CVOE_C,7,1,2,60,S 52,,,FALSE,CV,q,494,cv,S,2,c,c,TRUE,1,-0.988963719
CVOE_C,7,1,2,61,U 16,,,TRUE,CV,p,465,cv,U,6,v,v,TRUE,1,-1.02596944
CVOE_C,7,1,2,62,O 82,,,TRUE,CV,p,511,cv,O,2,v,v,TRUE,1,-0.96727071
CVOE_C,7,1,2,63,H 87,,,TRUE,CV,q,573,cv,H,7,c,c,TRUE,1,-0.88815503
CVOE_C,7,1,2,64,I 32,,,TRUE,CV,p,592,cv,I,2,v,v,TRUE,1,-0.863909903
CVOE_C,7,1,2,65,U 37,,,FALSE,CV,p,549,cv,U,7,v,v,TRUE,1,-0.918780455
CVOE_C,7,1,2,66,I 42,,,TRUE,CV,p,515,cv,I,2,v,v,TRUE,1,-0.962166473
CVOE_C,7,1,2,67,D 65,,,TRUE,CV,q,652,cv,D,5,c,c,TRUE,1,-0.787346342
CVOE_C,7,1,2,68,U 77,,,FALSE,CV,p,599,cv,U,7,v,v,TRUE,1,-0.854977487
CVOE_C,7,1,2,69,E 12,,,TRUE,CV,p,999,cv,E,2,v,v,TRUE,1,-0.344553747
CVOE_C,7,1,2,70,I 60,,,TRUE,CV,p,784,cv,I,0,v,v,TRUE,1,-0.618906508
CVOE_C,7,1,2,71,J 36,,,FALSE,CV,q,582,cv,J,6,c,c,TRUE,1,-0.876670496
CVOE_C,7,1,2,72,H 75,,,TRUE,CV,q,579,cv,H,5,c,c,TRUE,1,-0.880498674
CVOE_C,7,1,2,73,I 50,,,TRUE,CV,p,1022,cv,I,0,v,v,TRUE,1,-0.315204382
CVOE_C,7,1,2,74,E 99,,,FALSE,CV,p,956,cv,E,9,v,v,TRUE,1,-0.3994243
CVOE_C,7,1,2,75,A 86,,,TRUE,CV,p,805,cv,A,6,v,v,TRUE,1,-0.592109261
CVOE_C,7,1,2,76,U 48,,,TRUE,CV,p,1085,cv,U,8,v,v,TRUE,1,-0.234812643
CVOE_C,7,1,2,77,E 01,,,FALSE,CV,p,574,cv,E,1,v,v,TRUE,1,-0.886878971
CVOE_C,7,1,2,78,A 78,,,TRUE,CV,p,497,cv,A,8,v,v,TRUE,1,-0.985135541
CVOE_C,7,1,2,79,P 60,,,FALSE,CV,q,548,cv,P,0,c,c,TRUE,1,-0.920056514
CVOE_C,7,1,2,80,E 43,,,FALSE,CV,p,562,cv,E,3,v,v,TRUE,1,-0.902191683
CVOE_C,7,1,2,81,D 69,,,TRUE,CV,q,570,cv,D,9,c,c,TRUE,1,-0.891983209
CVOE_C,7,1,2,82,H 11,,,TRUE,CV,q,981,cv,H,1,c,c,TRUE,1,-0.367522816
CVOE_C,7,1,2,83,P 43,,,TRUE,CV,q,1235,cv,P,3,c,c,TRUE,1,-0.043403741
CVOE_C,7,1,2,84,O 67,,,FALSE,CV,p,628,cv,O,7,v,v,TRUE,1,-0.817971766
CVOE_C,7,1,2,85,S 91,,,FALSE,CV,q,922,cv,S,1,c,c,TRUE,1,-0.442810317
CVOE_C,7,1,2,86,J 68,,,TRUE,CV,q,1162,cv,J,8,c,c,TRUE,1,-0.136556073
CVOE_C,7,1,2,87,S 47,,,FALSE,CV,q,467,cv,S,7,c,c,TRUE,1,-1.023417322
CVOE_C,7,1,2,88,I 81,,,TRUE,CV,p,721,cv,I,1,v,v,TRUE,1,-0.699298247
CVOE_C,7,1,2,89,J 39,,,FALSE,CV,q,537,cv,J,9,c,c,TRUE,1,-0.934093167
CVOE_C,7,1,2,90,A 11,,,TRUE,CV,p,556,cv,A,1,v,v,TRUE,1,-0.909848039
CVOE_C,7,1,2,91,O 76,,,FALSE,CV,p,445,cv,O,6,v,v,TRUE,1,-1.051490627
CVOE_C,7,1,2,92,A 62,,,FALSE,CV,p,573,cv,A,2,v,v,TRUE,1,-0.88815503
CVOE_C,7,1,2,93,O 27,,,TRUE,CV,p,800,cv,O,7,v,v,TRUE,1,-0.598489558
CVOE_C,7,1,2,94,E 66,,,FALSE,CV,p,832,cv,E,6,v,v,TRUE,1,-0.557655659
CVOE_C,7,1,2,95,J 62,,,TRUE,CV,q,494,cv,J,2,c,c,TRUE,1,-0.988963719
CVOE_C,7,1,2,96,H 72,,,TRUE,CV,q,441,cv,H,2,c,c,TRUE,1,-1.056594865
CVOE_C,7,1,2,97,E 49,,,TRUE,CV,p,602,cv,E,9,v,v,TRUE,1,-0.851149309
CVOE_C,7,1,2,98,D 52,,,TRUE,CV,q,682,cv,D,2,c,c,TRUE,1,-0.749064561
CVOE_C,7,1,2,99,H 62,,,TRUE,CV,q,579,cv,H,2,c,c,TRUE,1,-0.880498674
CVOE_C,7,1,2,100,I 11,,,TRUE,CV,p,494,cv,I,1,v,v,TRUE,1,-0.988963719
CVOE_C,7,1,2,101,A 98,,,FALSE,CV,p,825,cv,A,8,v,v,TRUE,1,-0.566588074
CVOE_C,7,1,2,102,H 29,,,FALSE,CV,q,687,cv,H,9,c,c,TRUE,1,-0.742684265
CVOE_C,7,1,2,103,E 83,,,TRUE,CV,p,554,cv,E,3,v,v,TRUE,1,-0.912400158
CVOE_C,7,1,2,104,D 43,,,FALSE,CV,q,562,cv,D,3,c,c,TRUE,1,-0.902191683
CVOE_C,7,1,2,105,P 45,,,TRUE,CV,q,491,cv,P,5,c,c,TRUE,1,-0.992791897
CVOE_C,7,1,2,106,J 17,,,TRUE,CV,q,518,cv,J,7,c,c,TRUE,1,-0.958338295
CVOE_D,4,1,1,11,A 71,,,FALSE,CV,p,1212,cv,A,1,v,v,TRUE,1,-0.099966291
CVOE_D,4,1,1,12,I 66,,,TRUE,CV,p,840,cv,I,6,v,v,TRUE,1,-0.478108246
CVOE_D,4,1,1,13,S 30,,,FALSE,CV,q,728,cv,S,0,c,c,TRUE,1,-0.591957437
CVOE_D,4,1,1,14,D 20,,,FALSE,CV,q,1075,cv,D,0,c,c,TRUE,1,-0.239228248
CVOE_D,4,1,1,15,I 31,,,FALSE,CV,p,708,cv,I,1,v,v,TRUE,1,-0.61228765
CVOE_D,4,1,1,16,P 16,,,FALSE,CV,q,802,cv,P,6,c,c,TRUE,1,-0.51673565
CVOE_D,4,1,1,17,A 49,,,FALSE,CV,p,706,cv,A,9,v,v,TRUE,1,-0.614320671
CVOE_D,4,1,1,18,O 64,,,TRUE,CV,p,776,cv,O,4,v,v,TRUE,1,-0.543164927
CVOE_D,4,1,1,19,D 02,,,FALSE,CV,q,851,cv,D,2,c,c,TRUE,1,-0.466926629
CVOE_D,4,1,1,20,P 81,,,TRUE,CV,q,1006,cv,P,1,c,c,TRUE,1,-0.309367481
CVOE_D,4,1,1,21,J 58,,,FALSE,CV,q,687,cv,J,8,c,c,TRUE,1,-0.633634373
CVOE_D,4,1,1,22,A 22,,,TRUE,CV,p,959,cv,A,2,v,v,TRUE,1,-0.357143481
CVOE_D,4,1,1,23,J 72,,,FALSE,CV,q,1439,cv,J,2,c,c,TRUE,1,0.130781623
CVOE_D,4,1,1,24,P 91,,,TRUE,CV,q,889,cv,P,1,c,c,TRUE,1,-0.428299225
CVOE_D,4,1,1,25,E 19,,,FALSE,CV,p,860,cv,E,9,v,v,TRUE,1,-0.457778034
CVOE_D,4,1,1,26,I 30,,,TRUE,CV,p,743,cv,I,0,v,v,TRUE,1,-0.576709778
CVOE_D,4,1,1,27,D 91,,,TRUE,CV,q,1597,cv,D,1,c,c,TRUE,1,0.291390303
CVOE_D,4,1,1,28,O 48,,,TRUE,CV,p,3798,cv,O,8,v,v,TRUE,1,2.528730205
CVOE_D,4,1,1,29,A 89,,,FALSE,CV,p,663,cv,A,9,v,v,TRUE,1,-0.658030628
CVOE_D,4,1,1,30,U 11,,,FALSE,CV,p,1909,cv,U,1,v,v,TRUE,1,0.60854162
CVOE_D,4,1,1,31,I 76,,,TRUE,CV,p,651,cv,I,6,v,v,TRUE,1,-0.670228756
CVOE_D,4,1,1,32,U 89,,,FALSE,CV,p,950,cv,U,9,v,v,TRUE,1,-0.366292077
CVOE_D,4,1,1,33,D 63,,,TRUE,CV,q,1036,cv,D,3,c,c,TRUE,1,-0.278872162
CVOE_D,4,1,1,34,H 70,,,FALSE,CV,q,1157,cv,H,0,c,c,TRUE,1,-0.155874376
CVOE_D,4,1,1,35,D 48,,,FALSE,CV,q,734,cv,D,8,c,c,TRUE,1,-0.585858373
CVOE_D,4,1,1,36,P 56,,,FALSE,CV,q,689,cv,P,6,c,c,TRUE,1,-0.631601352
CVOE_D,4,1,1,37,O 77,,,FALSE,CV,p,924,cv,O,7,v,v,TRUE,1,-0.392721353
CVOE_D,4,1,1,38,P 42,,,FALSE,CV,q,756,cv,P,2,c,c,TRUE,1,-0.56349514
CVOE_D,4,1,1,39,H 22,,,FALSE,CV,q,1901,cv,H,2,c,c,TRUE,1,0.600409535
CVOE_D,4,1,1,40,E 42,,,TRUE,CV,p,667,cv,E,2,v,v,TRUE,1,-0.653964586
CVOE_D,4,1,1,41,J 28,,,FALSE,CV,q,897,cv,J,8,c,c,TRUE,1,-0.42016714
CVOE_D,4,1,1,42,E 95,,,FALSE,CV,p,908,cv,E,5,v,v,TRUE,1,-0.408985523
CVOE_D,4,1,1,43,S 63,,,TRUE,CV,q,738,cv,S,3,c,c,TRUE,1,-0.581792331
CVOE_D,4,1,1,44,H 50,,,FALSE,CV,q,1133,cv,H,0,c,c,TRUE,1,-0.180270631
CVOE_D,4,1,1,45,S 33,,,TRUE,CV,q,712,cv,S,3,c,c,TRUE,1,-0.608221607
CVOE_D,4,1,1,46,P 57,,,TRUE,CV,q,926,cv,P,7,c,c,TRUE,1,-0.390688332
CVOE_D,4,1,1,47,E 23,,,FALSE,CV,p,1031,cv,E,3,v,v,TRUE,1,-0.283954716
CVOE_D,4,1,1,48,S 61,,,TRUE,CV,q,677,cv,S,1,c,c,TRUE,1,-0.64379948
CVOE_D,4,1,1,49,U 67,,,FALSE,CV,p,805,cv,U,7,v,v,TRUE,1,-0.513686119
CVOE_D,4,1,1,50,H 32,,,FALSE,CV,q,1102,cv,H,2,c,c,TRUE,1,-0.211782461
CVOE_D,4,1,1,51,U 50,,,TRUE,CV,p,836,cv,U,0,v,v,TRUE,1,-0.482174289
CVOE_D,4,1,1,52,O 49,,,FALSE,CV,p,820,cv,O,9,v,v,TRUE,1,-0.498438459
CVOE_D,4,1,1,53,U 32,,,TRUE,CV,p,711,cv,U,2,v,v,TRUE,1,-0.609238118
CVOE_D,4,1,1,54,J 78,,,FALSE,CV,q,749,cv,J,8,c,c,TRUE,1,-0.570610714
CVOE_D,4,1,1,55,S 54,,,FALSE,CV,q,723,cv,S,4,c,c,TRUE,1,-0.59703999
CVOE_D,4,1,1,56,J 27,,,TRUE,CV,q,707,cv,J,7,c,c,TRUE,1,-0.613304161
CVOE_D,4,1,1,57,S 06,,,FALSE,CV,q,569,cv,S,6,c,c,TRUE,1,-0.753582628
CVOE_D,4,1,1,58,D 67,,,TRUE,CV,q,1188,cv,D,7,c,c,TRUE,1,-0.124362546
CVOE_D,4,1,1,59,A 79,,,FALSE,CV,p,642,cv,A,9,v,v,TRUE,1,-0.679377352
CVOE_D,4,1,1,60,S 52,,,FALSE,CV,q,819,cv,S,2,c,c,TRUE,1,-0.49945497
CVOE_D,4,1,1,61,U 16,,,TRUE,CV,p,709,cv,U,6,v,v,TRUE,1,-0.611271139
CVOE_D,4,1,1,62,O 82,,,TRUE,CV,p,756,cv,O,2,v,v,TRUE,1,-0.56349514
CVOE_D,4,1,1,63,H 87,,,TRUE,CV,q,788,cv,H,7,c,c,TRUE,1,-0.530966799
CVOE_D,4,1,1,64,I 32,,,TRUE,CV,p,778,cv,I,2,v,v,TRUE,1,-0.541131906
CVOE_D,4,1,1,65,U 37,,,FALSE,CV,p,1237,cv,U,7,v,v,TRUE,1,-0.074553525
CVOE_D,4,1,1,66,I 42,,,TRUE,CV,p,750,cv,I,2,v,v,TRUE,1,-0.569594203
CVOE_D,4,1,1,67,D 65,,,TRUE,CV,q,628,cv,D,5,c,c,TRUE,1,-0.693608501
CVOE_D,4,1,1,68,U 77,,,FALSE,CV,p,785,cv,U,7,v,v,TRUE,1,-0.534016331
CVOE_D,4,1,1,69,E 12,,,TRUE,CV,p,1191,cv,E,2,v,v,TRUE,1,-0.121313014
CVOE_D,4,1,1,70,I 60,,,TRUE,CV,p,781,cv,I,0,v,v,TRUE,1,-0.538082374
CVOE_D,4,1,1,71,J 36,,,FALSE,CV,q,699,cv,J,6,c,c,TRUE,1,-0.621436246
CVOE_D,4,1,1,72,H 75,,,TRUE,CV,q,598,cv,H,5,c,c,TRUE,1,-0.72410382
CVOE_D,4,1,1,73,I 50,,,TRUE,CV,p,759,cv,I,0,v,v,TRUE,1,-0.560445608
CVOE_D,4,1,1,74,E 99,,,FALSE,CV,p,1423,cv,E,9,v,v,TRUE,1,0.114517452
CVOE_D,4,1,1,75,A 86,,,TRUE,CV,p,669,cv,A,6,v,v,TRUE,1,-0.651931565
CVOE_D,4,1,1,76,U 48,,,TRUE,CV,p,771,cv,U,8,v,v,TRUE,1,-0.54824748
CVOE_D,4,1,1,77,E 01,,,FALSE,CV,p,694,cv,E,1,v,v,TRUE,1,-0.626518799
CVOE_D,4,1,1,78,A 78,,,TRUE,CV,p,721,cv,A,8,v,v,TRUE,1,-0.599073012
CVOE_D,4,1,1,79,P 60,,,FALSE,CV,q,698,cv,P,0,c,c,TRUE,1,-0.622452756
CVOE_D,4,1,1,80,E 43,,,FALSE,CV,p,693,cv,E,3,v,v,TRUE,1,-0.627535309
CVOE_D,4,1,1,81,D 69,,,TRUE,CV,q,768,cv,D,9,c,c,TRUE,1,-0.551297012
CVOE_D,4,1,1,82,H 11,,,TRUE,CV,q,603,cv,H,1,c,c,TRUE,1,-0.719021266
CVOE_D,4,1,1,83,P 43,,,TRUE,CV,q,820,cv,P,3,c,c,TRUE,1,-0.498438459
CVOE_D,4,1,1,84,O 67,,,FALSE,CV,p,719,cv,O,7,v,v,TRUE,1,-0.601106033
CVOE_D,4,1,1,85,S 91,,,FALSE,CV,q,743,cv,S,1,c,c,TRUE,1,-0.576709778
CVOE_D,4,1,1,86,J 68,,,TRUE,CV,q,693,cv,J,8,c,c,TRUE,1,-0.627535309
CVOE_D,4,1,1,87,S 47,,,FALSE,CV,q,568,cv,S,7,c,c,TRUE,1,-0.754599138
CVOE_D,4,1,1,88,I 81,,,TRUE,CV,p,675,cv,I,1,v,v,TRUE,1,-0.645832501
CVOE_D,4,1,1,89,J 39,,,FALSE,CV,q,580,cv,J,9,c,c,TRUE,1,-0.742401011
CVOE_D,4,1,1,90,A 11,,,TRUE,CV,p,671,cv,A,1,v,v,TRUE,1,-0.649898543
CVOE_D,4,1,1,91,O 76,,,FALSE,CV,p,669,cv,O,6,v,v,TRUE,1,-0.651931565
CVOE_D,4,1,1,92,A 62,,,FALSE,CV,p,618,cv,A,2,v,v,TRUE,1,-0.703773607
CVOE_D,4,1,1,93,O 27,,,TRUE,CV,p,582,cv,O,7,v,v,TRUE,1,-0.74036799
CVOE_D,4,1,1,94,E 66,,,FALSE,CV,p,643,cv,E,6,v,v,TRUE,1,-0.678360841
CVOE_D,4,1,1,95,J 62,,,TRUE,CV,q,652,cv,J,2,c,c,TRUE,1,-0.669212245
CVOE_D,4,1,1,96,H 72,,,TRUE,CV,q,655,cv,H,2,c,c,TRUE,1,-0.666162713
CVOE_D,4,1,1,97,E 49,,,TRUE,CV,p,818,cv,E,9,v,v,TRUE,1,-0.50047148
CVOE_D,4,1,1,98,D 52,,,TRUE,CV,q,533,cv,D,2,c,c,TRUE,1,-0.790177011
CVOE_D,4,1,1,99,H 62,,,TRUE,CV,q,624,cv,H,2,c,c,TRUE,1,-0.697674543
CVOE_D,4,1,1,100,I 11,,,TRUE,CV,p,974,cv,I,1,v,v,TRUE,1,-0.341895822
CVOE_D,4,1,1,101,A 98,,,FALSE,CV,p,657,cv,A,8,v,v,TRUE,1,-0.664129692
CVOE_D,4,1,1,102,H 29,,,FALSE,CV,q,604,cv,H,9,c,c,TRUE,1,-0.718004756
CVOE_D,4,1,1,103,E 83,,,TRUE,CV,p,645,cv,E,3,v,v,TRUE,1,-0.67632782
CVOE_D,4,1,1,104,D 43,,,FALSE,CV,q,613,cv,D,3,c,c,TRUE,1,-0.70885616
CVOE_D,4,1,1,105,P 45,,,TRUE,CV,q,528,cv,P,5,c,c,TRUE,1,-0.795259564
CVOE_D,4,1,1,106,J 17,,,TRUE,CV,q,675,cv,J,7,c,c,TRUE,1,-0.645832501
CVOE_D,12,1,1,11,A 71,,,FALSE,CV,p,2677,cv,A,1,v,v,TRUE,1,2.823789269
CVOE_D,12,1,1,12,I 66,,,TRUE,CV,p,926,cv,I,6,v,v,TRUE,1,-0.057412098
CVOE_D,12,1,1,13,S 30,,,FALSE,CV,q,823,cv,S,0,c,c,TRUE,1,-0.226894532
CVOE_D,12,1,1,14,D 20,,,FALSE,CV,q,589,cv,D,0,c,c,TRUE,1,-0.611932293
CVOE_D,12,1,1,15,I 31,,,FALSE,CV,p,738,cv,I,1,v,v,TRUE,1,-0.366758676
CVOE_D,12,1,1,16,P 16,,,FALSE,CV,q,750,cv,P,6,c,c,TRUE,1,-0.347013149
CVOE_D,12,1,1,17,A 49,,,FALSE,CV,p,635,cv,A,9,v,v,TRUE,1,-0.536241109
CVOE_D,12,1,1,18,O 64,,,TRUE,CV,p,828,cv,O,4,v,v,TRUE,1,-0.218667229
CVOE_D,12,1,1,19,D 02,,,FALSE,CV,q,506,cv,D,2,c,c,TRUE,1,-0.748505516
CVOE_D,12,1,1,20,P 81,,,TRUE,CV,q,775,cv,P,1,c,c,TRUE,1,-0.305876636
CVOE_D,12,1,1,21,J 58,,,FALSE,CV,q,499,cv,J,8,c,c,TRUE,1,-0.760023739
CVOE_D,12,1,1,22,A 22,,,TRUE,CV,p,646,cv,A,2,v,v,TRUE,1,-0.518141043
CVOE_D,12,1,1,23,J 72,,,FALSE,CV,q,534,cv,J,2,c,c,TRUE,1,-0.702432621
CVOE_D,12,1,1,24,P 91,,,TRUE,CV,q,737,cv,P,1,c,c,TRUE,1,-0.368404136
CVOE_D,12,1,1,25,E 19,,,FALSE,CV,p,948,cv,E,9,v,v,TRUE,1,-0.021211967
CVOE_D,12,1,1,26,I 30,,,TRUE,CV,p,658,cv,I,0,v,v,TRUE,1,-0.498395517
CVOE_D,12,1,1,27,D 91,,,TRUE,CV,q,589,cv,D,1,c,c,TRUE,1,-0.611932293
CVOE_D,12,1,1,28,O 48,,,TRUE,CV,p,627,cv,O,8,v,v,TRUE,1,-0.549404793
CVOE_D,12,1,1,29,A 89,,,FALSE,CV,p,697,cv,A,9,v,v,TRUE,1,-0.434222557
CVOE_D,12,1,1,30,U 11,,,FALSE,CV,p,692,cv,U,1,v,v,TRUE,1,-0.442449859
CVOE_D,12,1,1,31,I 76,,,TRUE,CV,p,471,cv,I,6,v,v,TRUE,1,-0.806096634
CVOE_D,12,1,1,32,U 89,,,FALSE,CV,p,501,cv,U,9,v,v,TRUE,1,-0.756732818
CVOE_D,12,1,1,33,D 63,,,TRUE,CV,q,640,cv,D,3,c,c,TRUE,1,-0.528013806
CVOE_D,12,1,1,34,H 70,,,FALSE,CV,q,800,cv,H,0,c,c,TRUE,1,-0.264740123
CVOE_D,12,1,1,35,D 48,,,FALSE,CV,q,729,cv,D,8,c,c,TRUE,1,-0.38156782
CVOE_D,12,1,1,36,P 56,,,FALSE,CV,q,788,cv,P,6,c,c,TRUE,1,-0.28448565
CVOE_D,12,1,1,37,O 77,,,FALSE,CV,p,586,cv,O,7,v,v,TRUE,1,-0.616868674
CVOE_D,12,1,1,38,P 42,,,FALSE,CV,q,519,cv,P,2,c,c,TRUE,1,-0.727114529
CVOE_D,12,1,1,39,H 22,,,FALSE,CV,q,904,cv,H,2,c,c,TRUE,1,-0.09361223
CVOE_D,12,1,1,40,E 42,,,TRUE,CV,p,662,cv,E,2,v,v,TRUE,1,-0.491813675
CVOE_D,12,1,1,41,J 28,,,FALSE,CV,q,468,cv,J,8,c,c,TRUE,1,-0.811033015
CVOE_D,12,1,1,42,E 95,,,FALSE,CV,p,577,cv,E,5,v,v,TRUE,1,-0.631677819
CVOE_D,12,1,1,43,S 63,,,TRUE,CV,q,484,cv,S,3,c,c,TRUE,1,-0.784705647
CVOE_D,12,1,1,44,H 50,,,FALSE,CV,q,565,cv,H,0,c,c,TRUE,1,-0.651423345
CVOE_D,12,1,1,45,S 33,,,TRUE,CV,q,1117,cv,S,3,c,c,TRUE,1,0.256870861
CVOE_D,12,1,1,46,P 57,,,TRUE,CV,q,502,cv,P,7,c,c,TRUE,1,-0.755087358
CVOE_D,12,1,1,47,E 23,,,FALSE,CV,p,467,cv,E,3,v,v,TRUE,1,-0.812678476
CVOE_D,12,1,1,48,S 61,,,TRUE,CV,q,529,cv,S,1,c,c,TRUE,1,-0.710659924
CVOE_D,12,1,1,49,U 67,,,FALSE,CV,p,636,cv,U,7,v,v,TRUE,1,-0.534595648
CVOE_D,12,1,1,50,H 32,,,FALSE,CV,q,477,cv,H,2,c,c,TRUE,1,-0.796223871
CVOE_D,12,1,1,51,U 50,,,TRUE,CV,p,693,cv,U,0,v,v,TRUE,1,-0.440804399
CVOE_D,12,1,1,52,O 49,,,FALSE,CV,p,528,cv,O,9,v,v,TRUE,1,-0.712305384
CVOE_D,12,1,1,53,U 32,,,TRUE,CV,p,595,cv,U,2,v,v,TRUE,1,-0.60205953
CVOE_D,12,1,1,54,J 78,,,FALSE,CV,q,516,cv,J,8,c,c,TRUE,1,-0.732050911
CVOE_D,12,1,1,55,S 54,,,FALSE,CV,q,724,cv,S,4,c,c,TRUE,1,-0.389795123
CVOE_D,12,1,1,56,J 27,,,TRUE,CV,q,573,cv,J,7,c,c,TRUE,1,-0.638259661
CVOE_D,12,1,1,57,S 06,,,FALSE,CV,q,504,cv,S,6,c,c,TRUE,1,-0.751796437
CVOE_D,12,1,1,58,D 67,,,TRUE,CV,q,517,cv,D,7,c,c,TRUE,1,-0.73040545
CVOE_D,12,1,1,59,A 79,,,FALSE,CV,p,718,cv,A,9,v,v,TRUE,1,-0.399667886
CVOE_D,12,1,1,60,S 52,,,FALSE,CV,q,470,cv,S,2,c,c,TRUE,1,-0.807742094
CVOE_D,12,1,1,61,U 16,,,TRUE,CV,p,604,cv,U,6,v,v,TRUE,1,-0.587250385
CVOE_D,12,1,1,62,O 82,,,TRUE,CV,p,484,cv,O,2,v,v,TRUE,1,-0.784705647
CVOE_D,12,1,1,63,H 87,,,TRUE,CV,q,565,cv,H,7,c,c,TRUE,1,-0.651423345
CVOE_D,12,1,1,64,I 32,,,TRUE,CV,p,533,cv,I,2,v,v,TRUE,1,-0.704078082
CVOE_D,12,1,1,65,U 37,,,FALSE,CV,p,512,cv,U,7,v,v,TRUE,1,-0.738632753
CVOE_D,12,1,1,66,I 42,,,TRUE,CV,p,510,cv,I,2,v,v,TRUE,1,-0.741923674
CVOE_D,12,1,1,67,D 65,,,TRUE,CV,q,492,cv,D,5,c,c,TRUE,1,-0.771541963
CVOE_D,12,1,1,68,U 77,,,FALSE,CV,q,543,cv,U,7,v,c,FALSE,0,-0.687623477
CVOE_D,12,1,1,69,E 12,,,TRUE,CV,p,964,cv,E,2,v,v,TRUE,1,0.005115402
CVOE_D,12,1,1,70,I 60,,,TRUE,CV,p,541,cv,I,0,v,v,TRUE,1,-0.690914398
CVOE_D,12,1,1,71,J 36,,,FALSE,CV,q,536,cv,J,6,c,c,TRUE,1,-0.6991417
CVOE_D,12,1,1,72,H 75,,,TRUE,CV,q,603,cv,H,5,c,c,TRUE,1,-0.588895846
CVOE_D,12,1,1,73,I 50,,,TRUE,CV,p,516,cv,I,0,v,v,TRUE,1,-0.732050911
CVOE_D,12,1,1,74,E 99,,,FALSE,CV,p,492,cv,E,9,v,v,TRUE,1,-0.771541963
CVOE_D,12,1,1,75,A 86,,,TRUE,CV,p,487,cv,A,6,v,v,TRUE,1,-0.779769266
CVOE_D,12,1,1,76,U 48,,,TRUE,CV,p,455,cv,U,8,v,v,TRUE,1,-0.832424002
CVOE_D,12,1,1,77,E 01,,,FALSE,CV,p,394,cv,E,1,v,v,TRUE,1,-0.932797094
CVOE_D,12,1,1,78,A 78,,,TRUE,CV,p,427,cv,A,8,v,v,TRUE,1,-0.878496897
CVOE_D,12,1,1,79,P 60,,,FALSE,CV,q,440,cv,P,0,c,c,TRUE,1,-0.85710591
CVOE_D,12,1,1,80,E 43,,,FALSE,CV,p,505,cv,E,3,v,v,TRUE,1,-0.750150976
CVOE_D,12,1,1,81,D 69,,,TRUE,CV,q,478,cv,D,9,c,c,TRUE,1,-0.79457841
CVOE_D,12,1,1,82,H 11,,,TRUE,CV,q,535,cv,H,1,c,c,TRUE,1,-0.700787161
CVOE_D,12,1,1,83,P 43,,,TRUE,CV,q,474,cv,P,3,c,c,TRUE,1,-0.801160252
CVOE_D,12,1,1,84,O 67,,,FALSE,CV,p,456,cv,O,7,v,v,TRUE,1,-0.830778542
CVOE_D,12,1,1,85,S 91,,,FALSE,CV,q,539,cv,S,1,c,c,TRUE,1,-0.694205319
CVOE_D,12,1,1,86,J 68,,,TRUE,CV,q,494,cv,J,8,c,c,TRUE,1,-0.768251042
CVOE_D,12,1,1,87,S 47,,,FALSE,CV,q,505,cv,S,7,c,c,TRUE,1,-0.750150976
CVOE_D,12,1,1,88,I 81,,,TRUE,CV,p,479,cv,I,1,v,v,TRUE,1,-0.79293295
CVOE_D,12,1,1,89,J 39,,,FALSE,CV,q,463,cv,J,9,c,c,TRUE,1,-0.819260318
CVOE_D,12,1,1,90,A 11,,,TRUE,CV,p,517,cv,A,1,v,v,TRUE,1,-0.73040545
CVOE_D,12,1,1,91,O 76,,,FALSE,CV,p,525,cv,O,6,v,v,TRUE,1,-0.717241766
CVOE_D,12,1,1,92,A 62,,,FALSE,CV,p,485,cv,A,2,v,v,TRUE,1,-0.783060187
CVOE_D,12,1,1,93,O 27,,,TRUE,CV,p,406,cv,O,7,v,v,TRUE,1,-0.913051568
CVOE_D,12,1,1,94,E 66,,,FALSE,CV,p,438,cv,E,6,v,v,TRUE,1,-0.860396831
CVOE_D,12,1,1,95,J 62,,,TRUE,CV,q,575,cv,J,2,c,c,TRUE,1,-0.63496874
CVOE_D,12,1,1,96,H 72,,,TRUE,CV,q,498,cv,H,2,c,c,TRUE,1,-0.7616692
CVOE_D,12,1,1,97,E 49,,,TRUE,CV,p,477,cv,E,9,v,v,TRUE,1,-0.796223871
CVOE_D,12,1,1,98,D 52,,,TRUE,CV,q,493,cv,D,2,c,c,TRUE,1,-0.769896503
CVOE_D,12,1,1,99,H 62,,,TRUE,CV,p,752,cv,H,2,c,v,FALSE,0,-0.343722228
CVOE_D,12,1,1,100,I 11,,,TRUE,CV,p,702,cv,I,1,v,v,TRUE,1,-0.425995254
CVOE_D,12,1,1,101,A 98,,,FALSE,CV,p,524,cv,A,8,v,v,TRUE,1,-0.718887226
CVOE_D,12,1,1,102,H 29,,,FALSE,CV,q,820,cv,H,9,c,c,TRUE,1,-0.231830913
CVOE_D,12,1,1,103,E 83,,,TRUE,CV,p,463,cv,E,3,v,v,TRUE,1,-0.819260318
CVOE_D,12,1,1,104,D 43,,,FALSE,CV,q,485,cv,D,3,c,c,TRUE,1,-0.783060187
CVOE_D,12,1,1,105,P 45,,,TRUE,CV,q,525,cv,P,5,c,c,TRUE,1,-0.717241766
CVOE_D,12,1,1,106,J 17,,,TRUE,CV,q,470,cv,J,7,c,c,TRUE,1,-0.807742094
CVOE_D,16,1,1,11,A 71,,,FALSE,CV,p,3638,cv,A,1,v,v,TRUE,1,1.221506919
CVOE_D,16,1,1,12,I 66,,,TRUE,CV,p,1496,cv,I,6,v,v,TRUE,1,-0.337405095
CVOE_D,16,1,1,13,S 30,,,FALSE,CV,q,2051,cv,S,0,c,c,TRUE,1,0.066514684
CVOE_D,16,1,1,14,D 20,,,FALSE,CV,q,687,cv,D,0,c,c,TRUE,1,-0.926181855
CVOE_D,16,1,1,15,I 31,,,FALSE,CV,p,695,cv,I,1,v,v,TRUE,1,-0.920359588
CVOE_D,16,1,1,16,P 16,,,FALSE,CV,q,618,cv,P,6,c,c,TRUE,1,-0.976398909
CVOE_D,16,1,1,17,A 49,,,FALSE,CV,p,662,cv,A,9,v,v,TRUE,1,-0.94437644
CVOE_D,16,1,1,18,O 64,,,TRUE,CV,p,2587,cv,O,4,v,v,TRUE,1,0.45660658
CVOE_D,16,1,1,19,D 02,,,FALSE,CV,q,714,cv,D,2,c,c,TRUE,1,-0.906531704
CVOE_D,16,1,1,20,P 81,,,TRUE,CV,p,728,cv,P,1,c,v,FALSE,0,-0.896342736
CVOE_D,16,1,1,21,J 58,,,FALSE,CV,q,4563,cv,J,8,c,c,TRUE,1,1.894706552
CVOE_D,16,1,1,22,A 22,,,TRUE,CV,p,1149,cv,A,2,v,v,TRUE,1,-0.58994593
CVOE_D,16,1,1,23,J 72,,,FALSE,CV,q,675,cv,J,2,c,c,TRUE,1,-0.934915256
CVOE_D,16,1,1,24,P 91,,,TRUE,CV,q,587,cv,P,1,c,c,TRUE,1,-0.998960194
CVOE_D,16,1,1,25,E 19,,,FALSE,CV,p,1993,cv,E,9,v,v,TRUE,1,0.024303248
CVOE_D,16,1,1,26,I 30,,,TRUE,CV,p,1359,cv,I,0,v,v,TRUE,1,-0.437111419
CVOE_D,16,1,1,27,D 91,,,TRUE,CV,q,640,cv,D,1,c,c,TRUE,1,-0.960387674
CVOE_D,16,1,1,28,O 48,,,TRUE,CV,p,600,cv,O,8,v,v,TRUE,1,-0.98949901
CVOE_D,16,1,1,29,A 89,,,FALSE,CV,p,817,cv,A,9,v,v,TRUE,1,-0.831570015
CVOE_D,16,1,1,30,U 11,,,FALSE,CV,p,796,cv,U,1,v,v,TRUE,1,-0.846853466
CVOE_D,16,1,1,31,I 76,,,TRUE,CV,p,860,cv,I,6,v,v,TRUE,1,-0.800275329
CVOE_D,16,1,1,32,U 89,,,FALSE,CV,p,976,cv,U,9,v,v,TRUE,1,-0.715852456
CVOE_D,16,1,1,33,D 63,,,TRUE,CV,q,747,cv,D,3,c,c,TRUE,1,-0.882514852
CVOE_D,16,1,1,34,H 70,,,FALSE,CV,q,1441,cv,H,0,c,c,TRUE,1,-0.377433181
CVOE_D,16,1,1,35,D 48,,,FALSE,CV,q,777,cv,D,8,c,c,TRUE,1,-0.86068135
CVOE_D,16,1,1,36,P 56,,,FALSE,CV,q,757,cv,P,6,c,c,TRUE,1,-0.875237018
CVOE_D,16,1,1,37,O 77,,,FALSE,CV,p,1253,cv,O,7,v,v,TRUE,1,-0.514256458
CVOE_D,16,1,1,38,P 42,,,FALSE,CV,q,888,cv,P,2,c,c,TRUE,1,-0.779897394
CVOE_D,16,1,1,39,H 22,,,FALSE,CV,q,1372,cv,H,2,c,c,TRUE,1,-0.427650235
CVOE_D,16,1,1,40,E 42,,,TRUE,CV,p,919,cv,E,2,v,v,TRUE,1,-0.757336109
CVOE_D,16,1,1,41,J 28,,,FALSE,CV,q,1288,cv,J,8,c,c,TRUE,1,-0.48878404
CVOE_D,16,1,1,42,E 95,,,FALSE,CV,p,827,cv,E,5,v,v,TRUE,1,-0.824292181
CVOE_D,16,1,1,43,S 63,,,TRUE,CV,q,689,cv,S,3,c,c,TRUE,1,-0.924726288
CVOE_D,16,1,1,44,H 50,,,FALSE,CV,q,716,cv,H,0,c,c,TRUE,1,-0.905076137
CVOE_D,16,1,1,45,S 33,,,TRUE,CV,q,508,cv,S,3,c,c,TRUE,1,-1.056455081
CVOE_D,16,1,1,46,P 57,,,TRUE,CV,q,554,cv,P,7,c,c,TRUE,1,-1.022977045
CVOE_D,16,1,1,47,E 23,,,FALSE,CV,p,880,cv,E,3,v,v,TRUE,1,-0.785719661
CVOE_D,16,1,1,48,S 61,,,TRUE,CV,q,672,cv,S,1,c,c,TRUE,1,-0.937098606
CVOE_D,16,1,1,49,U 67,,,FALSE,CV,p,718,cv,U,7,v,v,TRUE,1,-0.90362057
CVOE_D,16,1,1,50,H 32,,,FALSE,CV,q,1167,cv,H,2,c,c,TRUE,1,-0.576845829
CVOE_D,16,1,1,51,U 50,,,TRUE,CV,p,679,cv,U,0,v,v,TRUE,1,-0.932004122
CVOE_D,16,1,1,52,O 49,,,FALSE,CV,p,1000,cv,O,9,v,v,TRUE,1,-0.698385655
CVOE_D,16,1,1,53,U 32,,,TRUE,CV,p,544,cv,U,2,v,v,TRUE,1,-1.030254879
CVOE_D,16,1,1,54,J 78,,,FALSE,CV,q,678,cv,J,8,c,c,TRUE,1,-0.932731906
CVOE_D,16,1,1,55,S 54,,,FALSE,CV,q,1590,cv,S,4,c,c,TRUE,1,-0.268993457
CVOE_D,16,1,1,56,J 27,,,TRUE,CV,q,765,cv,J,7,c,c,TRUE,1,-0.869414751
CVOE_D,16,1,1,57,S 06,,,FALSE,CV,q,757,cv,S,6,c,c,TRUE,1,-0.875237018
CVOE_D,16,1,1,58,D 67,,,TRUE,CV,q,1230,cv,D,7,c,c,TRUE,1,-0.530995476
CVOE_D,16,1,1,59,A 79,,,FALSE,CV,p,540,cv,A,9,v,v,TRUE,1,-1.033166013
CVOE_D,16,1,1,60,S 52,,,FALSE,CV,q,591,cv,S,2,c,c,TRUE,1,-0.99604906
CVOE_D,16,1,1,61,U 16,,,TRUE,CV,p,556,cv,U,6,v,v,TRUE,1,-1.021521479
CVOE_D,16,1,1,62,O 82,,,TRUE,CV,p,797,cv,O,2,v,v,TRUE,1,-0.846125683
CVOE_D,16,1,1,63,H 87,,,TRUE,CV,q,557,cv,H,7,c,c,TRUE,1,-1.020793695
CVOE_D,16,1,1,64,I 32,,,TRUE,CV,p,486,cv,I,2,v,v,TRUE,1,-1.072466316
CVOE_D,16,1,1,65,U 37,,,FALSE,CV,p,654,cv,U,7,v,v,TRUE,1,-0.950198707
CVOE_D,16,1,1,66,I 42,,,TRUE,CV,p,705,cv,I,2,v,v,TRUE,1,-0.913081754
CVOE_D,16,1,1,67,D 65,,,TRUE,CV,q,799,cv,D,5,c,c,TRUE,1,-0.844670116
CVOE_D,16,1,1,68,U 77,,,FALSE,CV,p,1423,cv,U,7,v,v,TRUE,1,-0.390533282
CVOE_D,16,1,1,69,E 12,,,TRUE,CV,p,1046,cv,E,2,v,v,TRUE,1,-0.664907619
CVOE_D,16,1,1,70,I 60,,,TRUE,CV,p,638,cv,I,0,v,v,TRUE,1,-0.961843241
CVOE_D,16,1,1,71,J 36,,,FALSE,CV,q,671,cv,J,6,c,c,TRUE,1,-0.937826389
CVOE_D,16,1,1,72,H 75,,,TRUE,CV,q,852,cv,H,5,c,c,TRUE,1,-0.806097596
CVOE_D,16,1,1,73,I 50,,,TRUE,CV,p,840,cv,I,0,v,v,TRUE,1,-0.814830997
CVOE_D,16,1,1,74,E 99,,,FALSE,CV,p,800,cv,E,9,v,v,TRUE,1,-0.843942332
CVOE_D,16,1,1,75,A 86,,,TRUE,CV,p,609,cv,A,6,v,v,TRUE,1,-0.982948959
CVOE_D,16,1,1,76,U 48,,,TRUE,CV,p,1148,cv,U,8,v,v,TRUE,1,-0.590673714
CVOE_D,16,1,1,77,E 01,,,FALSE,CV,p,562,cv,E,1,v,v,TRUE,1,-1.017154778
CVOE_D,16,1,1,78,A 78,,,TRUE,CV,p,546,cv,A,8,v,v,TRUE,1,-1.028799313
CVOE_D,16,1,1,79,P 60,,,FALSE,CV,q,1552,cv,P,0,c,c,TRUE,1,-0.296649226
CVOE_D,16,1,1,80,E 43,,,FALSE,CV,p,694,cv,E,3,v,v,TRUE,1,-0.921087371
CVOE_D,16,1,1,81,D 69,,,TRUE,CV,q,2705,cv,D,9,c,c,TRUE,1,0.542485019
CVOE_D,16,1,1,82,H 11,,,TRUE,CV,q,832,cv,H,1,c,c,TRUE,1,-0.820653264
CVOE_D,16,1,1,83,P 43,,,TRUE,CV,q,733,cv,P,3,c,c,TRUE,1,-0.892703819
CVOE_D,16,1,1,84,O 67,,,FALSE,CV,p,681,cv,O,7,v,v,TRUE,1,-0.930548555
CVOE_D,16,1,1,85,S 91,,,FALSE,CV,q,633,cv,S,1,c,c,TRUE,1,-0.965482158
CVOE_D,16,1,1,86,J 68,,,TRUE,CV,q,1247,cv,J,8,c,c,TRUE,1,-0.518623158
CVOE_D,16,1,1,87,S 47,,,FALSE,CV,q,887,cv,S,7,c,c,TRUE,1,-0.780625178
CVOE_D,16,1,1,88,I 81,,,TRUE,CV,p,1171,cv,I,1,v,v,TRUE,1,-0.573934696
CVOE_D,16,1,1,89,J 39,,,FALSE,CV,q,974,cv,J,9,c,c,TRUE,1,-0.717308023
CVOE_D,16,1,1,90,A 11,,,TRUE,CV,p,1713,cv,A,1,v,v,TRUE,1,-0.1794761
CVOE_D,16,1,1,91,O 76,,,FALSE,CV,p,5111,cv,O,6,v,v,TRUE,1,2.293531848
CVOE_D,16,1,1,92,A 62,,,FALSE,CV,p,567,cv,A,2,v,v,TRUE,1,-1.013515861
CVOE_D,16,1,1,93,O 27,,,TRUE,CV,p,615,cv,O,7,v,v,TRUE,1,-0.978582259
CVOE_D,16,1,1,94,E 66,,,FALSE,CV,p,634,cv,E,6,v,v,TRUE,1,-0.964754375
CVOE_D,16,1,1,95,J 62,,,TRUE,CV,q,627,cv,J,2,c,c,TRUE,1,-0.969848858
CVOE_D,16,1,1,96,H 72,,,TRUE,CV,q,705,cv,H,2,c,c,TRUE,1,-0.913081754
CVOE_D,16,1,1,97,E 49,,,TRUE,CV,p,638,cv,E,9,v,v,TRUE,1,-0.961843241
CVOE_D,16,1,1,98,D 52,,,TRUE,CV,q,1111,cv,D,2,c,c,TRUE,1,-0.617601699
CVOE_D,16,1,1,99,H 62,,,TRUE,CV,q,541,cv,H,2,c,c,TRUE,1,-1.03243823
CVOE_D,16,1,1,100,I 11,,,TRUE,CV,p,554,cv,I,1,v,v,TRUE,1,-1.022977045
CVOE_D,16,1,1,101,A 98,,,FALSE,CV,p,467,cv,A,8,v,v,TRUE,1,-1.0862942
CVOE_D,16,1,1,102,H 29,,,FALSE,CV,q,593,cv,H,9,c,c,TRUE,1,-0.994593493
CVOE_D,16,1,1,103,E 83,,,TRUE,CV,p,550,cv,E,3,v,v,TRUE,1,-1.025888179
CVOE_D,16,1,1,104,D 43,,,FALSE,CV,q,2188,cv,D,3,c,c,TRUE,1,0.166221008
CVOE_D,16,1,1,105,P 45,,,TRUE,CV,q,850,cv,P,5,c,c,TRUE,1,-0.807553163
CVOE_D,16,1,1,106,J 17,,,TRUE,CV,q,1182,cv,J,7,c,c,TRUE,1,-0.565929079
CVOE_D,8,1,1,11,A 71,,,FALSE,CV,p,1660,cv,A,1,v,v,TRUE,1,0.566292681
CVOE_D,8,1,1,12,I 66,,,TRUE,CV,p,922,cv,I,6,v,v,TRUE,1,-0.552813534
CVOE_D,8,1,1,13,S 30,,,FALSE,CV,q,723,cv,S,0,c,c,TRUE,1,-0.854577947
CVOE_D,8,1,1,14,D 20,,,FALSE,CV,q,883,cv,D,0,c,c,TRUE,1,-0.611953293
CVOE_D,8,1,1,15,I 31,,,FALSE,CV,p,868,cv,I,1,v,v,TRUE,1,-0.634699354
CVOE_D,8,1,1,16,P 16,,,FALSE,CV,q,842,cv,P,6,c,c,TRUE,1,-0.674125861
CVOE_D,8,1,1,17,A 49,,,FALSE,CV,p,714,cv,A,9,v,v,TRUE,1,-0.868225583
CVOE_D,8,1,1,18,O 64,,,TRUE,CV,p,763,cv,O,4,v,v,TRUE,1,-0.793921783
CVOE_D,8,1,1,19,D 02,,,FALSE,CV,q,771,cv,D,2,c,c,TRUE,1,-0.781790551
CVOE_D,8,1,1,20,P 81,,,TRUE,CV,q,1006,cv,P,1,c,c,TRUE,1,-0.425435591
CVOE_D,8,1,1,21,J 58,,,FALSE,CV,q,991,cv,J,8,c,c,TRUE,1,-0.448181652
CVOE_D,8,1,1,22,A 22,,,TRUE,CV,p,557,cv,A,2,v,v,TRUE,1,-1.106301025
CVOE_D,8,1,1,23,J 72,,,FALSE,CV,q,869,cv,J,2,c,c,TRUE,1,-0.63318295
CVOE_D,8,1,1,24,P 91,,,TRUE,CV,q,611,cv,P,1,c,c,TRUE,1,-1.024415204
CVOE_D,8,1,1,25,E 19,,,FALSE,CV,p,686,cv,E,9,v,v,TRUE,1,-0.910684898
CVOE_D,8,1,1,26,I 30,,,TRUE,CV,p,791,cv,I,0,v,v,TRUE,1,-0.751462469
CVOE_D,8,1,1,27,D 91,,,TRUE,CV,q,732,cv,D,1,c,c,TRUE,1,-0.84093031
CVOE_D,8,1,1,28,O 48,,,TRUE,CV,p,976,cv,O,8,v,v,TRUE,1,-0.470927713
CVOE_D,8,1,1,29,A 89,,,FALSE,CV,p,859,cv,A,9,v,v,TRUE,1,-0.648346991
CVOE_D,8,1,1,30,U 11,,,FALSE,CV,p,870,cv,U,1,v,v,TRUE,1,-0.631666546
CVOE_D,8,1,1,31,I 76,,,TRUE,CV,p,588,cv,I,6,v,v,TRUE,1,-1.059292498
CVOE_D,8,1,1,32,U 89,,,FALSE,CV,p,794,cv,U,9,v,v,TRUE,1,-0.746913257
CVOE_D,8,1,1,33,D 63,,,TRUE,CV,q,698,cv,D,3,c,c,TRUE,1,-0.892488049
CVOE_D,8,1,1,34,H 70,,,FALSE,CV,q,741,cv,H,0,c,c,TRUE,1,-0.827282673
CVOE_D,8,1,1,35,D 48,,,FALSE,CV,q,755,cv,D,8,c,c,TRUE,1,-0.806053016
CVOE_D,8,1,1,36,P 56,,,FALSE,CV,q,764,cv,P,6,c,c,TRUE,1,-0.792405379
CVOE_D,8,1,1,37,O 77,,,FALSE,CV,p,788,cv,O,7,v,v,TRUE,1,-0.756011681
CVOE_D,8,1,1,38,P 42,,,FALSE,CV,q,682,cv,P,2,c,c,TRUE,1,-0.916750514
CVOE_D,8,1,1,39,H 22,,,FALSE,CV,q,690,cv,H,2,c,c,TRUE,1,-0.904619281
CVOE_D,8,1,1,40,E 42,,,TRUE,CV,p,669,cv,E,2,v,v,TRUE,1,-0.936463767
CVOE_D,8,1,1,41,J 28,,,FALSE,CV,q,587,cv,J,8,c,c,TRUE,1,-1.060808902
CVOE_D,8,1,1,42,E 95,,,FALSE,CV,p,521,cv,E,5,v,v,TRUE,1,-1.160891572
CVOE_D,8,1,1,43,S 63,,,TRUE,CV,q,561,cv,S,3,c,c,TRUE,1,-1.100235408
CVOE_D,8,1,1,44,H 50,,,FALSE,CV,q,890,cv,H,0,c,c,TRUE,1,-0.601338464
CVOE_D,8,1,1,45,S 33,,,TRUE,CV,q,1117,cv,S,3,c,c,TRUE,1,-0.257114737
CVOE_D,8,1,1,46,P 57,,,TRUE,CV,q,950,cv,P,7,c,c,TRUE,1,-0.510354219
CVOE_D,8,1,1,47,E 23,,,FALSE,CV,p,596,cv,E,3,v,v,TRUE,1,-1.047161265
CVOE_D,8,1,1,48,S 61,,,TRUE,CV,q,764,cv,S,1,c,c,TRUE,1,-0.792405379
CVOE_D,8,1,1,49,U 67,,,FALSE,CV,p,916,cv,U,7,v,v,TRUE,1,-0.561911958
CVOE_D,8,1,1,50,H 32,,,FALSE,CV,q,741,cv,H,2,c,c,TRUE,1,-0.827282673
CVOE_D,8,1,1,51,U 50,,,TRUE,CV,p,867,cv,U,0,v,v,TRUE,1,-0.636215758
CVOE_D,8,1,1,52,O 49,,,FALSE,CV,p,841,cv,O,9,v,v,TRUE,1,-0.675642265
CVOE_D,8,1,1,53,U 32,,,TRUE,CV,p,1177,cv,U,2,v,v,TRUE,1,-0.166130492
CVOE_D,8,1,1,54,J 78,,,FALSE,CV,q,845,cv,J,8,c,c,TRUE,1,-0.669576648
CVOE_D,8,1,1,55,S 54,,,FALSE,CV,q,1061,cv,S,4,c,c,TRUE,1,-0.342033366
CVOE_D,8,1,1,56,J 27,,,TRUE,CV,q,883,cv,J,7,c,c,TRUE,1,-0.611953293
CVOE_D,8,1,1,57,S 06,,,FALSE,CV,q,1516,cv,S,6,c,c,TRUE,1,0.347930493
CVOE_D,8,1,1,58,D 67,,,TRUE,CV,q,668,cv,D,7,c,c,TRUE,1,-0.937980171
CVOE_D,8,1,1,59,A 79,,,FALSE,CV,p,874,cv,A,9,v,v,TRUE,1,-0.62560093
CVOE_D,8,1,1,60,S 52,,,FALSE,CV,q,755,cv,S,2,c,c,TRUE,1,-0.806053016
CVOE_D,8,1,1,61,U 16,,,TRUE,CV,p,731,cv,U,6,v,v,TRUE,1,-0.842446714
CVOE_D,8,1,1,62,O 82,,,TRUE,CV,p,742,cv,O,2,v,v,TRUE,1,-0.825766269
CVOE_D,8,1,1,63,H 87,,,TRUE,CV,q,812,cv,H,7,c,c,TRUE,1,-0.719617983
CVOE_D,8,1,1,64,I 32,,,TRUE,CV,p,1343,cv,I,2,v,v,TRUE,1,0.085592586
CVOE_D,8,1,1,65,U 37,,,FALSE,CV,p,613,cv,U,7,v,v,TRUE,1,-1.021382396
CVOE_D,8,1,1,66,I 42,,,TRUE,CV,p,712,cv,I,2,v,v,TRUE,1,-0.871258392
CVOE_D,8,1,1,67,D 65,,,TRUE,CV,q,718,cv,D,5,c,c,TRUE,1,-0.862159967
CVOE_D,8,1,1,68,U 77,,,FALSE,CV,p,831,cv,U,7,v,v,TRUE,1,-0.690806305
CVOE_D,8,1,1,69,E 12,,,TRUE,CV,p,732,cv,E,2,v,v,TRUE,1,-0.84093031
CVOE_D,8,1,1,70,I 60,,,TRUE,CV,p,632,cv,I,0,v,v,TRUE,1,-0.992570718
CVOE_D,8,1,1,71,J 36,,,FALSE,CV,q,1133,cv,J,6,c,c,TRUE,1,-0.232852272
CVOE_D,8,1,1,72,H 75,,,TRUE,CV,q,897,cv,H,5,c,c,TRUE,1,-0.590723636
CVOE_D,8,1,1,73,I 50,,,TRUE,CV,p,900,cv,I,0,v,v,TRUE,1,-0.586174424
CVOE_D,8,1,1,74,E 99,,,FALSE,CV,p,1103,cv,E,9,v,v,TRUE,1,-0.278344394
CVOE_D,8,1,1,75,A 86,,,TRUE,CV,p,805,cv,A,6,v,v,TRUE,1,-0.730232812
CVOE_D,8,1,1,76,U 48,,,TRUE,CV,p,694,cv,U,8,v,v,TRUE,1,-0.898553665
CVOE_D,8,1,1,77,E 01,,,FALSE,CV,p,929,cv,E,1,v,v,TRUE,1,-0.542198705
CVOE_D,8,1,1,78,A 78,,,TRUE,CV,p,716,cv,A,8,v,v,TRUE,1,-0.865192775
CVOE_D,8,1,1,79,P 60,,,FALSE,CV,q,724,cv,P,0,c,c,TRUE,1,-0.853061543
CVOE_D,8,1,1,80,E 43,,,FALSE,CV,p,717,cv,E,3,v,v,TRUE,1,-0.863676371
CVOE_D,8,1,1,81,D 69,,,TRUE,CV,q,629,cv,D,9,c,c,TRUE,1,-0.997119931
CVOE_D,8,1,1,82,H 11,,,TRUE,CV,q,755,cv,H,1,c,c,TRUE,1,-0.806053016
CVOE_D,8,1,1,83,P 43,,,TRUE,CV,q,660,cv,P,3,c,c,TRUE,1,-0.950111404
CVOE_D,8,1,1,84,O 67,,,FALSE,CV,p,783,cv,O,7,v,v,TRUE,1,-0.763593702
CVOE_D,8,1,1,85,S 91,,,FALSE,CV,q,669,cv,S,1,c,c,TRUE,1,-0.936463767
CVOE_D,8,1,1,86,J 68,,,TRUE,CV,q,818,cv,J,8,c,c,TRUE,1,-0.710519559
CVOE_D,8,1,1,87,S 47,,,FALSE,CV,q,806,cv,S,7,c,c,TRUE,1,-0.728716408
CVOE_D,8,1,1,88,I 81,,,TRUE,CV,p,982,cv,I,1,v,v,TRUE,1,-0.461829289
CVOE_D,8,1,1,89,J 39,,,FALSE,CV,q,1132,cv,J,9,c,c,TRUE,1,-0.234368676
CVOE_D,8,1,1,90,A 11,,,TRUE,CV,p,847,cv,A,1,v,v,TRUE,1,-0.66654384
CVOE_D,8,1,1,91,O 76,,,FALSE,CV,p,610,cv,O,6,v,v,TRUE,1,-1.025931608
CVOE_D,8,1,1,92,A 62,,,FALSE,CV,p,1238,cv,A,2,v,v,TRUE,1,-0.073629843
CVOE_D,8,1,1,93,O 27,,,TRUE,CV,p,830,cv,O,7,v,v,TRUE,1,-0.69232271
CVOE_D,8,1,1,94,E 66,,,FALSE,CV,p,1020,cv,E,6,v,v,TRUE,1,-0.404205933
CVOE_D,8,1,1,95,J 62,,,TRUE,CV,q,538,cv,J,2,c,c,TRUE,1,-1.135112702
CVOE_D,8,1,1,96,H 72,,,TRUE,CV,q,989,cv,H,2,c,c,TRUE,1,-0.45121446
CVOE_D,8,1,1,97,E 49,,,TRUE,CV,p,931,cv,E,9,v,v,TRUE,1,-0.539165897
CVOE_D,8,1,1,98,D 52,,,TRUE,CV,q,686,cv,D,2,c,c,TRUE,1,-0.910684898
CVOE_D,8,1,1,99,H 62,,,TRUE,CV,q,1071,cv,H,2,c,c,TRUE,1,-0.326869325
CVOE_D,8,1,1,100,I 11,,,TRUE,CV,p,957,cv,I,1,v,v,TRUE,1,-0.499739391
CVOE_D,8,1,1,101,A 98,,,FALSE,CV,p,781,cv,A,8,v,v,TRUE,1,-0.76662651
CVOE_D,8,1,1,102,H 29,,,FALSE,CV,q,947,cv,H,9,c,c,TRUE,1,-0.514903432
CVOE_D,8,1,1,103,E 83,,,TRUE,CV,p,937,cv,E,3,v,v,TRUE,1,-0.530067472
CVOE_D,8,1,1,104,D 43,,,FALSE,CV,q,1068,cv,D,3,c,c,TRUE,1,-0.331418537
CVOE_D,8,1,1,105,P 45,,,TRUE,CV,q,1298,cv,P,5,c,c,TRUE,1,0.017354402
CVOE_D,8,1,1,106,J 17,,,TRUE,CV,q,853,cv,J,7,c,c,TRUE,1,-0.657445416
CVOE updated,13,1,1,11,A 71,,,FALSE,CV,p,2671,cv,A,1,v,v,TRUE,1,1.986942365
CVOE updated,13,1,1,12,I 66,,,TRUE,CV,p,1062,cv,I,6,v,v,TRUE,1,-0.234089487
CVOE updated,13,1,1,13,S 30,,,FALSE,CV,q,595,cv,S,0,c,c,TRUE,1,-0.878727073
CVOE updated,13,1,1,14,D 20,,,FALSE,CV,q,748,cv,D,0,c,c,TRUE,1,-0.667528891
CVOE updated,13,1,1,15,I 31,,,FALSE,CV,p,1090,cv,I,1,v,v,TRUE,1,-0.19543884
CVOE updated,13,1,1,16,P 16,,,FALSE,CV,q,692,cv,P,6,c,c,TRUE,1,-0.744830187
CVOE updated,13,1,1,17,A 49,,,FALSE,CV,p,703,cv,A,9,v,v,TRUE,1,-0.729646004
CVOE updated,13,1,1,18,O 64,,,TRUE,CV,p,1006,cv,O,4,v,v,TRUE,1,-0.311390782
CVOE updated,13,1,1,19,D 02,,,FALSE,CV,q,598,cv,D,2,c,c,TRUE,1,-0.874585932
CVOE updated,13,1,1,20,P 81,,,TRUE,CV,q,918,cv,P,1,c,c,TRUE,1,-0.432864246
CVOE updated,13,1,1,21,J 58,,,FALSE,CV,q,623,cv,J,8,c,c,TRUE,1,-0.840076425
CVOE updated,13,1,1,22,A 22,,,TRUE,CV,p,781,cv,A,2,v,v,TRUE,1,-0.621976343
CVOE updated,13,1,1,23,J 72,,,FALSE,CV,q,634,cv,J,2,c,c,TRUE,1,-0.824892242
CVOE updated,13,1,1,24,P 91,,,TRUE,CV,q,1115,cv,P,1,c,c,TRUE,1,-0.160929333
CVOE updated,13,1,1,25,E 19,,,FALSE,CV,p,747,cv,E,9,v,v,TRUE,1,-0.668909272
CVOE updated,13,1,1,26,I 30,,,TRUE,CV,p,577,cv,I,0,v,v,TRUE,1,-0.903573917
CVOE updated,13,1,1,27,D 91,,,TRUE,CV,q,644,cv,D,1,c,c,TRUE,1,-0.811088439
CVOE updated,13,1,1,28,O 48,,,TRUE,CV,p,533,cv,O,8,v,v,TRUE,1,-0.964310649
CVOE updated,13,1,1,29,A 89,,,FALSE,CV,p,729,cv,A,9,v,v,TRUE,1,-0.693756117
CVOE updated,13,1,1,30,U 11,,,FALSE,CV,p,699,cv,U,1,v,v,TRUE,1,-0.735167525
CVOE updated,13,1,1,31,I 76,,,TRUE,CV,p,679,cv,I,6,v,v,TRUE,1,-0.76277513
CVOE updated,13,1,1,32,U 89,,,FALSE,CV,p,655,cv,U,9,v,v,TRUE,1,-0.795904256
CVOE updated,13,1,1,33,D 63,,,TRUE,CV,q,585,cv,D,3,c,c,TRUE,1,-0.892530875
CVOE updated,13,1,1,34,H 70,,,FALSE,CV,q,631,cv,H,0,c,c,TRUE,1,-0.829033383
CVOE updated,13,1,1,35,D 48,,,FALSE,CV,q,870,cv,D,8,c,c,TRUE,1,-0.499122499
CVOE updated,13,1,1,36,P 56,,,FALSE,CV,q,643,cv,P,6,c,c,TRUE,1,-0.81246882
CVOE updated,13,1,1,37,O 77,,,FALSE,CV,p,475,cv,O,7,v,v,TRUE,1,-1.044372705
CVOE updated,13,1,1,38,P 42,,,FALSE,CV,q,956,cv,P,2,c,c,TRUE,1,-0.380409796
CVOE updated,13,1,1,39,H 22,,,FALSE,CV,q,540,cv,H,2,c,c,TRUE,1,-0.954647987
CVOE updated,13,1,1,40,E 42,,,TRUE,CV,p,618,cv,E,2,v,v,TRUE,1,-0.846978326
CVOE updated,13,1,1,41,J 28,,,FALSE,CV,q,574,cv,J,8,c,c,TRUE,1,-0.907715058
CVOE updated,13,1,1,42,E 95,,,FALSE,CV,p,697,cv,E,5,v,v,TRUE,1,-0.737928285
CVOE updated,13,1,1,43,S 63,,,TRUE,CV,q,531,cv,S,3,c,c,TRUE,1,-0.96707141
CVOE updated,13,1,1,44,H 50,,,FALSE,CV,q,566,cv,H,0,c,c,TRUE,1,-0.9187581
CVOE updated,13,1,1,45,S 33,,,TRUE,CV,q,1241,cv,S,3,c,c,TRUE,1,0.012998581
CVOE updated,13,1,1,46,P 57,,,TRUE,CV,q,811,cv,P,7,c,c,TRUE,1,-0.580564935
CVOE updated,13,1,1,47,E 23,,,FALSE,CV,p,685,cv,E,3,v,v,TRUE,1,-0.754492848
CVOE updated,13,1,1,48,S 61,,,TRUE,CV,q,558,cv,S,1,c,c,TRUE,1,-0.929801143
CVOE updated,13,1,1,49,U 67,,,FALSE,CV,p,655,cv,U,7,v,v,TRUE,1,-0.795904256
CVOE updated,13,1,1,50,H 32,,,FALSE,CV,q,546,cv,H,2,c,c,TRUE,1,-0.946365706
CVOE updated,13,1,1,51,U 50,,,TRUE,CV,p,687,cv,U,0,v,v,TRUE,1,-0.751732088
CVOE updated,13,1,1,52,O 49,,,FALSE,CV,p,674,cv,O,9,v,v,TRUE,1,-0.769677031
CVOE updated,13,1,1,53,U 32,,,TRUE,CV,p,532,cv,U,2,v,v,TRUE,1,-0.965691029
CVOE updated,13,1,1,54,J 78,,,FALSE,CV,q,550,cv,J,8,c,c,TRUE,1,-0.940844185
CVOE updated,13,1,1,55,S 54,,,FALSE,CV,q,683,cv,S,4,c,c,TRUE,1,-0.757253609
CVOE updated,13,1,1,56,J 27,,,TRUE,CV,q,572,cv,J,7,c,c,TRUE,1,-0.910475819
CVOE updated,13,1,1,57,S 06,,,FALSE,CV,q,543,cv,S,6,c,c,TRUE,1,-0.950506847
CVOE updated,13,1,1,58,D 67,,,TRUE,CV,q,646,cv,D,7,c,c,TRUE,1,-0.808327679
CVOE updated,13,1,1,59,A 79,,,FALSE,CV,p,477,cv,A,9,v,v,TRUE,1,-1.041611944
CVOE updated,13,1,1,60,S 52,,,FALSE,CV,q,614,cv,S,2,c,c,TRUE,1,-0.852499847
CVOE updated,13,1,1,61,U 16,,,TRUE,CV,p,506,cv,U,6,v,v,TRUE,1,-1.001580916
CVOE updated,13,1,1,62,O 82,,,TRUE,CV,p,566,cv,O,2,v,v,TRUE,1,-0.9187581
CVOE updated,13,1,1,63,H 87,,,TRUE,CV,q,513,cv,H,7,c,c,TRUE,1,-0.991918255
CVOE updated,13,1,1,64,I 32,,,TRUE,CV,p,610,cv,I,2,v,v,TRUE,1,-0.858021369
CVOE updated,13,1,1,65,U 37,,,FALSE,CV,p,862,cv,U,7,v,v,TRUE,1,-0.510165541
CVOE updated,13,1,1,66,I 42,,,TRUE,CV,p,532,cv,I,2,v,v,TRUE,1,-0.965691029
CVOE updated,13,1,1,67,D 65,,,TRUE,CV,q,446,cv,D,5,c,c,TRUE,1,-1.084403733
CVOE updated,13,1,1,68,U 77,,,FALSE,CV,p,510,cv,U,7,v,v,TRUE,1,-0.996059395
CVOE updated,13,1,1,69,E 12,,,TRUE,CV,p,508,cv,E,2,v,v,TRUE,1,-0.998820156
CVOE updated,13,1,1,70,I 60,,,TRUE,CV,p,530,cv,I,0,v,v,TRUE,1,-0.96845179
CVOE updated,13,1,1,71,J 36,,,FALSE,CV,q,581,cv,J,6,c,c,TRUE,1,-0.898052396
CVOE updated,13,1,1,72,H 75,,,TRUE,CV,q,595,cv,H,5,c,c,TRUE,1,-0.878727073
CVOE updated,13,1,1,73,I 50,,,TRUE,CV,p,564,cv,I,0,v,v,TRUE,1,-0.921518861
CVOE updated,13,1,1,74,E 99,,,FALSE,CV,p,555,cv,E,9,v,v,TRUE,1,-0.933942283
CVOE updated,13,1,1,75,A 86,,,TRUE,CV,p,597,cv,A,6,v,v,TRUE,1,-0.875966312
CVOE updated,13,1,1,76,U 48,,,TRUE,CV,p,949,cv,U,8,v,v,TRUE,1,-0.390072458
CVOE updated,13,1,1,77,E 01,,,FALSE,CV,p,554,cv,E,1,v,v,TRUE,1,-0.935322664
CVOE updated,13,1,1,78,A 78,,,TRUE,CV,p,507,cv,A,8,v,v,TRUE,1,-1.000200536
CVOE updated,13,1,1,79,P 60,,,FALSE,CV,q,536,cv,P,0,c,c,TRUE,1,-0.960169508
CVOE updated,13,1,1,80,E 43,,,FALSE,CV,p,1099,cv,E,3,v,v,TRUE,1,-0.183015417
CVOE updated,13,1,1,81,D 69,,,TRUE,CV,q,554,cv,D,9,c,c,TRUE,1,-0.935322664
CVOE updated,13,1,1,82,H 11,,,TRUE,CV,q,586,cv,H,1,c,c,TRUE,1,-0.891150495
CVOE updated,13,1,1,83,P 43,,,TRUE,CV,q,640,cv,P,3,c,c,TRUE,1,-0.81660996
CVOE updated,13,1,1,84,O 67,,,FALSE,CV,p,688,cv,O,7,v,v,TRUE,1,-0.750351708
CVOE updated,13,1,1,85,S 91,,,FALSE,CV,q,1059,cv,S,1,c,c,TRUE,1,-0.238230628
CVOE updated,13,1,1,86,J 68,,,TRUE,CV,q,502,cv,J,8,c,c,TRUE,1,-1.007102438
