"ExperimentName","Subject","Group","Block","Trial","STIM","TASK","Switch","Congruent","CVOE","Response","RT","block_type","letter","number","key2","response2","match2","score2","zRT"
"CVOE updated",5,1,1,11,"A 71","","",FALSE,"CV","p",2144,"cv","A",1,"v","v",TRUE,1,1.03067879127174
"CVOE updated",5,1,1,12,"I 66","","",TRUE,"CV","q",783,"cv","I",6,"v","c",FALSE,0,-0.441156216793287
"CVOE updated",5,1,1,13,"S 30","","",FALSE,"CV","q",636,"cv","S",0,"c","c",TRUE,1,-0.600127374901707
"CVOE updated",5,1,1,14,"D 20","","",FALSE,"CV","q",1261,"cv","D",0,"c","c",TRUE,1,0.0757704061715066
"CVOE updated",5,1,1,15,"I 31","","",FALSE,"CV","p",611,"cv","I",1,"v","v",TRUE,1,-0.627163286144635
"CVOE updated",5,1,1,16,"P 16","","",FALSE,"CV","q",574,"cv","P",6,"c","c",TRUE,1,-0.66717643478417
"CVOE updated",5,1,1,17,"A 49","","",FALSE,"CV","p",777,"cv","A",9,"v","v",TRUE,1,-0.44764483549159
"CVOE updated",5,1,1,18,"O 64","","",TRUE,"CV","p",420,"cv","O",4,"v","v",TRUE,1,-0.833717648040609
"CVOE updated",5,1,1,19,"D 02","","",FALSE,"CV","q",466,"cv","D",2,"c","c",TRUE,1,-0.783971571353621
"CVOE updated",5,1,1,20,"P 81","","",TRUE,"CV","q",904,"cv","P",1,"c","c",TRUE,1,-0.310302406377513
"CVOE updated",5,1,1,21,"J 58","","",FALSE,"CV","q",693,"cv","J",8,"c","c",TRUE,1,-0.53848549726783
"CVOE updated",5,1,1,22,"A 22","","",TRUE,"CV","p",633,"cv","A",2,"v","v",TRUE,1,-0.603371684250858
"CVOE updated",5,1,1,23,"J 72","","",FALSE,"CV","q",582,"cv","J",2,"c","c",TRUE,1,-0.658524943186432
"CVOE updated",5,1,1,24,"P 91","","",TRUE,"CV","q",868,"cv","P",1,"c","c",TRUE,1,-0.34923411856733
"CVOE updated",5,1,1,25,"E 19","","",FALSE,"CV","p",642,"cv","E",9,"v","v",TRUE,1,-0.593638756203404
"CVOE updated",5,1,1,26,"I 30","","",TRUE,"CV","q",602,"cv","I",0,"v","c",FALSE,0,-0.63689621419209
"CVOE updated",5,1,1,27,"D 91","","",TRUE,"CV","q",587,"cv","D",1,"c","c",TRUE,1,-0.653117760937847
"CVOE updated",5,1,1,28,"O 48","","",TRUE,"CV","p",441,"cv","O",8,"v","v",TRUE,1,-0.811007482596549
"CVOE updated",5,1,1,29,"A 89","","",FALSE,"CV","p",921,"cv","A",9,"v","v",TRUE,1,-0.291917986732321
"CVOE updated",5,1,1,30,"U 11","","",FALSE,"CV","p",826,"cv","U",1,"v","v",TRUE,1,-0.39465444945545
"CVOE updated",5,1,1,31,"I 76","","",TRUE,"CV","q",1015,"cv","I",6,"v","c",FALSE,0,-0.19026296045891
"CVOE updated",5,1,1,32,"U 89","","",FALSE,"CV","p",827,"cv","U",9,"v","v",TRUE,1,-0.393573013005733
"CVOE updated",5,1,1,33,"D 63","","",TRUE,"CV","q",960,"cv","D",3,"c","c",TRUE,1,-0.249741965193353
"CVOE updated",5,1,1,34,"H 70","","",FALSE,"CV","q",689,"cv","H",0,"c","c",TRUE,1,-0.542811243066698
"CVOE updated",5,1,1,35,"D 48","","",FALSE,"CV","q",732,"cv","D",8,"c","c",TRUE,1,-0.496309475728861
"CVOE updated",5,1,1,36,"P 56","","",FALSE,"CV","q",895,"cv","P",6,"c","c",TRUE,1,-0.320035334424967
"CVOE updated",5,1,1,37,"O 77","","",FALSE,"CV","p",658,"cv","O",7,"v","v",TRUE,1,-0.57633577300793
"CVOE updated",5,1,1,38,"P 42","","",FALSE,"CV","q",766,"cv","P",2,"c","c",TRUE,1,-0.459540636438478
"CVOE updated",5,1,1,39,"H 22","","",FALSE,"CV","q",870,"cv","H",2,"c","c",TRUE,1,-0.347071245667896
"CVOE updated",5,1,1,40,"E 42","","",TRUE,"CV","p",716,"cv","E",2,"v","v",TRUE,1,-0.513612458924335
"CVOE updated",5,1,1,41,"J 28","","",FALSE,"CV","q",588,"cv","J",8,"c","c",TRUE,1,-0.65203632448813
"CVOE updated",5,1,1,42,"E 95","","",FALSE,"CV","p",506,"cv","E",5,"v","v",TRUE,1,-0.740714113364935
"CVOE updated",5,1,1,43,"S 63","","",TRUE,"CV","q",640,"cv","S",3,"c","c",TRUE,1,-0.595801629102838
"CVOE updated",5,1,1,44,"H 50","","",FALSE,"CV","q",1032,"cv","H",0,"c","c",TRUE,1,-0.171878540813719
"CVOE updated",5,1,1,45,"S 33","","",TRUE,"CV","q",470,"cv","S",3,"c","c",TRUE,1,-0.779645825554752
"CVOE updated",5,1,1,46,"P 57","","",TRUE,"CV","q",836,"cv","P",7,"c","c",TRUE,1,-0.383840084958278
"CVOE updated",5,1,1,47,"E 23","","",FALSE,"CV","p",828,"cv","E",3,"v","v",TRUE,1,-0.392491576556016
"CVOE updated",5,1,1,48,"S 61","","",TRUE,"CV","q",1066,"cv","S",1,"c","c",TRUE,1,-0.135109701523336
"CVOE updated",5,1,1,49,"U 67","","",FALSE,"CV","p",528,"cv","U",7,"v","v",TRUE,1,-0.716922511471158
"CVOE updated",5,1,1,50,"H 32","","",FALSE,"CV","q",547,"cv","H",2,"c","c",TRUE,1,-0.696375218926532
"CVOE updated",5,1,1,51,"U 50","","",TRUE,"CV","p",609,"cv","U",0,"v","v",TRUE,1,-0.62932615904407
"CVOE updated",5,1,1,52,"O 49","","",FALSE,"CV","p",452,"cv","O",9,"v","v",TRUE,1,-0.799111681649661
"CVOE updated",5,1,1,53,"U 32","","",TRUE,"CV","p",479,"cv","U",2,"v","v",TRUE,1,-0.769912897507298
"CVOE updated",5,1,1,54,"J 78","","",FALSE,"CV","q",560,"cv","J",8,"c","c",TRUE,1,-0.68231654508021
"CVOE updated",5,1,1,55,"S 54","","",FALSE,"CV","q",504,"cv","S",4,"c","c",TRUE,1,-0.742876986264369
"CVOE updated",5,1,1,56,"J 27","","",TRUE,"CV","q",638,"cv","J",7,"c","c",TRUE,1,-0.597964502002273
"CVOE updated",5,1,1,57,"S 06","","",FALSE,"CV","q",470,"cv","S",6,"c","c",TRUE,1,-0.779645825554752
"CVOE updated",5,1,1,58,"D 67","","",TRUE,"CV","q",644,"cv","D",7,"c","c",TRUE,1,-0.59147588330397
"CVOE updated",5,1,1,59,"A 79","","",FALSE,"CV","p",580,"cv","A",9,"v","v",TRUE,1,-0.660687816085867
"CVOE updated",5,1,1,60,"S 52","","",FALSE,"CV","q",466,"cv","S",2,"c","c",TRUE,1,-0.783971571353621
"CVOE updated",5,1,1,61,"U 16","","",TRUE,"CV","p",912,"cv","U",6,"v","v",TRUE,1,-0.301650914779776
"CVOE updated",5,1,1,62,"O 82","","",TRUE,"CV","p",670,"cv","O",2,"v","v",TRUE,1,-0.563358535611324
"CVOE updated",5,1,1,63,"H 87","","",TRUE,"CV","q",547,"cv","H",7,"c","c",TRUE,1,-0.696375218926532
"CVOE updated",5,1,1,64,"I 32","","",TRUE,"CV","p",881,"cv","I",2,"v","v",TRUE,1,-0.335175444721007
"CVOE updated",5,1,1,65,"U 37","","",FALSE,"CV","p",562,"cv","U",7,"v","v",TRUE,1,-0.680153672180775
"CVOE updated",5,1,1,66,"I 42","","",TRUE,"CV","p",946,"cv","I",2,"v","v",TRUE,1,-0.264882075489393
"CVOE updated",5,1,1,67,"D 65","","",TRUE,"CV","q",416,"cv","D",5,"c","c",TRUE,1,-0.838043393839478
"CVOE updated",5,1,1,68,"U 77","","",FALSE,"CV","p",491,"cv","U",7,"v","v",TRUE,1,-0.756935660110692
"CVOE updated",5,1,1,69,"E 12","","",TRUE,"CV","q",590,"cv","E",2,"v","c",FALSE,0,-0.649873451588695
"CVOE updated",5,1,1,70,"I 60","","",TRUE,"CV","p",964,"cv","I",0,"v","v",TRUE,1,-0.245416219394484
"CVOE updated",5,1,1,71,"J 36","","",FALSE,"CV","q",1332,"cv","J",6,"c","c",TRUE,1,0.152552394101424
"CVOE updated",5,1,1,72,"H 75","","",TRUE,"CV","q",1288,"cv","H",5,"c","c",TRUE,1,0.104969190313869
"CVOE updated",5,1,1,73,"I 50","","",TRUE,"CV","q",555,"cv","I",0,"v","c",FALSE,0,-0.687723727328795
"CVOE updated",5,1,1,74,"E 99","","",FALSE,"CV","p",956,"cv","E",9,"v","v",TRUE,1,-0.254067710992222
"CVOE updated",5,1,1,75,"A 86","","",TRUE,"CV","q",716,"cv","A",6,"v","c",FALSE,0,-0.513612458924335
"CVOE updated",5,1,1,76,"U 48","","",TRUE,"CV","p",533,"cv","U",8,"v","v",TRUE,1,-0.711515329222572
"CVOE updated",5,1,1,77,"E 01","","",FALSE,"CV","p",656,"cv","E",1,"v","v",TRUE,1,-0.578498645907364
"CVOE updated",5,1,1,78,"A 78","","",TRUE,"CV","q",731,"cv","A",8,"v","c",FALSE,0,-0.497390912178578
"CVOE updated",5,1,1,79,"P 60","","",FALSE,"CV","q",598,"cv","P",0,"c","c",TRUE,1,-0.641221959990958
"CVOE updated",5,1,1,80,"E 43","","",FALSE,"CV","p",958,"cv","E",3,"v","v",TRUE,1,-0.251904838092787
"CVOE updated",5,1,1,81,"D 69","","",TRUE,"CV","q",559,"cv","D",9,"c","c",TRUE,1,-0.683397981529927
"CVOE updated",5,1,1,82,"H 11","","",TRUE,"CV","q",895,"cv","H",1,"c","c",TRUE,1,-0.320035334424967
"CVOE updated",5,1,1,83,"P 43","","",TRUE,"CV","q",619,"cv","P",3,"c","c",TRUE,1,-0.618511794546898
"CVOE updated",5,1,1,84,"O 67","","",FALSE,"CV","p",1134,"cv","O",7,"v","v",TRUE,1,-0.0615720229425703
"CVOE updated",5,1,1,85,"S 91","","",FALSE,"CV","q",505,"cv","S",1,"c","c",TRUE,1,-0.741795549814652
"CVOE updated",5,1,1,86,"J 68","","",TRUE,"CV","q",647,"cv","J",8,"c","c",TRUE,1,-0.588231573954818
"CVOE updated",5,1,1,87,"S 47","","",FALSE,"CV","q",762,"cv","S",7,"c","c",TRUE,1,-0.463866382237347
"CVOE updated",5,1,1,88,"I 81","","",TRUE,"CV","p",690,"cv","I",1,"v","v",TRUE,1,-0.541729806616981
"CVOE updated",5,1,1,89,"J 39","","",FALSE,"CV","q",621,"cv","J",9,"c","c",TRUE,1,-0.616348921647464
"CVOE updated",5,1,1,90,"A 11","","",TRUE,"CV","p",811,"cv","A",1,"v","v",TRUE,1,-0.410875996201207
"CVOE updated",5,1,1,91,"O 76","","",FALSE,"CV","p",510,"cv","O",6,"v","v",TRUE,1,-0.736388367566067
"CVOE updated",5,1,1,92,"A 62","","",FALSE,"CV","p",1260,"cv","A",2,"v","v",TRUE,1,0.0746889697217895
"CVOE updated",5,1,1,93,"O 27","","",TRUE,"CV","p",466,"cv","O",7,"v","v",TRUE,1,-0.783971571353621
"CVOE updated",5,1,1,94,"E 66","","",FALSE,"CV","q",552,"cv","E",6,"v","c",FALSE,0,-0.690968036677947
"CVOE updated",5,1,1,95,"J 62","","",TRUE,"CV","q",774,"cv","J",2,"c","c",TRUE,1,-0.450889144840741
"CVOE updated",5,1,1,96,"H 72","","",TRUE,"CV","q",609,"cv","H",2,"c","c",TRUE,1,-0.62932615904407
"CVOE updated",5,1,1,97,"E 49","","",TRUE,"CV","p",948,"cv","E",9,"v","v",TRUE,1,-0.262719202589959
"CVOE updated",5,1,1,98,"D 52","","",TRUE,"CV","q",466,"cv","D",2,"c","c",TRUE,1,-0.783971571353621
"CVOE updated",5,1,1,99,"H 62","","",TRUE,"CV","q",551,"cv","H",2,"c","c",TRUE,1,-0.692049473127664
"CVOE updated",5,1,1,100,"I 11","","",TRUE,"CV","p",637,"cv","I",1,"v","v",TRUE,1,-0.59904593845199
"CVOE updated",5,1,1,101,"A 98","","",FALSE,"CV","p",1494,"cv","A",8,"v","v",TRUE,1,0.327745098955601
"CVOE updated",5,1,1,102,"H 29","","",FALSE,"CV","q",1457,"cv","H",9,"c","c",TRUE,1,0.287731950316066
"CVOE updated",5,1,1,103,"E 83","","",TRUE,"CV","p",596,"cv","E",3,"v","v",TRUE,1,-0.643384832890392
"CVOE updated",5,1,1,104,"D 43","","",FALSE,"CV","q",501,"cv","D",3,"c","c",TRUE,1,-0.746121295613521
"CVOE updated",5,1,1,105,"P 45","","",TRUE,"CV","q",491,"cv","P",5,"c","c",TRUE,1,-0.756935660110692
"CVOE updated",5,1,1,106,"J 17","","",TRUE,"CV","q",462,"cv","J",7,"c","c",TRUE,1,-0.788297317152489
"CVOE updated",1,1,1,11,"A 71","","",FALSE,"CV","p",2421,"cv","A",1,"v","v",TRUE,1,1.33023668784339
"CVOE updated",1,1,1,12,"I 66","","",TRUE,"CV","p",717,"cv","I",6,"v","v",TRUE,1,-0.512531022474618
"CVOE updated",1,1,1,13,"S 30","","",FALSE,"CV","q",566,"cv","S",0,"c","c",TRUE,1,-0.675827926381907
"CVOE updated",1,1,1,14,"D 20","","",FALSE,"CV","q",868,"cv","D",0,"c","c",TRUE,1,-0.34923411856733
"CVOE updated",1,1,1,15,"I 31","","",FALSE,"CV","p",550,"cv","I",1,"v","v",TRUE,1,-0.693130909577381
"CVOE updated",1,1,1,16,"P 16","","",FALSE,"CV","q",731,"cv","P",6,"c","c",TRUE,1,-0.497390912178578
"CVOE updated",1,1,1,17,"A 49","","",FALSE,"CV","p",784,"cv","A",9,"v","v",TRUE,1,-0.44007478034357
"CVOE updated",1,1,1,18,"O 64","","",TRUE,"CV","p",1165,"cv","O",4,"v","v",TRUE,1,-0.0280474930013389
"CVOE updated",1,1,1,19,"D 02","","",FALSE,"CV","q",1267,"cv","D",2,"c","c",TRUE,1,0.0822590248698095
"CVOE updated",1,1,1,20,"P 81","","",TRUE,"CV","q",1141,"cv","P",1,"c","c",TRUE,1,-0.0540019677945503
"CVOE updated",1,1,1,21,"J 58","","",FALSE,"CV","q",3512,"cv","J",8,"c","c",TRUE,1,2.51008385448479
"CVOE updated",1,1,1,22,"A 22","","",TRUE,"CV","p",492,"cv","A",2,"v","v",TRUE,1,-0.755854223660975
"CVOE updated",1,1,1,23,"J 72","","",FALSE,"CV","q",599,"cv","J",2,"c","c",TRUE,1,-0.640140523541241
"CVOE updated",1,1,1,24,"P 91","","",TRUE,"CV","q",590,"cv","P",1,"c","c",TRUE,1,-0.649873451588695
"CVOE updated",1,1,1,25,"E 19","","",FALSE,"CV","p",666,"cv","E",9,"v","v",TRUE,1,-0.567684281410193
"CVOE updated",1,1,1,26,"I 30","","",TRUE,"CV","p",710,"cv","I",0,"v","v",TRUE,1,-0.520101077622638
"CVOE updated",1,1,1,27,"D 91","","",TRUE,"CV","q",515,"cv","D",1,"c","c",TRUE,1,-0.730981185317481
"CVOE updated",1,1,1,28,"O 48","","",TRUE,"CV","p",823,"cv","O",8,"v","v",TRUE,1,-0.397898758804601
"CVOE updated",1,1,1,29,"A 89","","",FALSE,"CV","p",545,"cv","A",9,"v","v",TRUE,1,-0.698538091825967
"CVOE updated",1,1,1,30,"U 11","","",FALSE,"CV","p",736,"cv","U",1,"v","v",TRUE,1,-0.491983729929993
"CVOE updated",1,1,1,31,"I 76","","",TRUE,"CV","p",608,"cv","I",6,"v","v",TRUE,1,-0.630407595493787
"CVOE updated",1,1,1,32,"U 89","","",FALSE,"CV","p",978,"cv","U",9,"v","v",TRUE,1,-0.230276109098444
"CVOE updated",1,1,1,33,"D 63","","",TRUE,"CV","q",482,"cv","D",3,"c","c",TRUE,1,-0.766668588158147
"CVOE updated",1,1,1,34,"H 70","","",FALSE,"CV","q",795,"cv","H",0,"c","c",TRUE,1,-0.428178979396681
"CVOE updated",1,1,1,35,"D 48","","",FALSE,"CV","q",585,"cv","D",8,"c","c",TRUE,1,-0.655280633837281
"CVOE updated",1,1,1,36,"P 56","","",FALSE,"CV","p",520,"cv","P",6,"c","v",FALSE,0,-0.725574003068895
"CVOE updated",1,1,1,37,"O 77","","",FALSE,"CV","p",1241,"cv","O",7,"v","v",TRUE,1,0.0541416771771638
"CVOE updated",1,1,1,38,"P 42","","",FALSE,"CV","q",601,"cv","P",2,"c","c",TRUE,1,-0.637977650641807
"CVOE updated",1,1,1,39,"H 22","","",FALSE,"CV","q",808,"cv","H",2,"c","c",TRUE,1,-0.414120305550358
"CVOE updated",1,1,1,40,"E 42","","",TRUE,"CV","p",579,"cv","E",2,"v","v",TRUE,1,-0.661769252535584
"CVOE updated",1,1,1,41,"J 28","","",FALSE,"CV","q",537,"cv","J",8,"c","c",TRUE,1,-0.707189583423704
"CVOE updated",1,1,1,42,"E 95","","",FALSE,"CV","p",698,"cv","E",5,"v","v",TRUE,1,-0.533078315019244
"CVOE updated",1,1,1,43,"S 63","","",TRUE,"CV","q",1279,"cv","S",3,"c","c",TRUE,1,0.0952362622664152
"CVOE updated",1,1,1,44,"H 50","","",FALSE,"CV","q",1077,"cv","H",0,"c","c",TRUE,1,-0.123213900576447
"CVOE updated",1,1,1,45,"S 33","","",TRUE,"CV","q",619,"cv","S",3,"c","c",TRUE,1,-0.618511794546898
"CVOE updated",1,1,1,46,"P 57","","",TRUE,"CV","q",705,"cv","P",7,"c","c",TRUE,1,-0.525508259871224
"CVOE updated",1,1,1,47,"E 23","","",FALSE,"CV","p",568,"cv","E",3,"v","v",TRUE,1,-0.673665053482472
"CVOE updated",1,1,1,48,"S 61","","",TRUE,"CV","q",465,"cv","S",1,"c","c",TRUE,1,-0.785053007803338
"CVOE updated",1,1,1,49,"U 67","","",FALSE,"CV","p",564,"cv","U",7,"v","v",TRUE,1,-0.677990799281341
"CVOE updated",1,1,1,50,"H 32","","",FALSE,"CV","q",507,"cv","H",2,"c","c",TRUE,1,-0.739632676915218
"CVOE updated",1,1,1,51,"U 50","","",TRUE,"CV","p",635,"cv","U",0,"v","v",TRUE,1,-0.601208811351424
"CVOE updated",1,1,1,52,"O 49","","",FALSE,"CV","p",2704,"cv","O",9,"v","v",TRUE,1,1.63628320311334
"CVOE updated",1,1,1,53,"U 32","","",TRUE,"CV","p",865,"cv","U",2,"v","v",TRUE,1,-0.352478427916481
"CVOE updated",1,1,1,54,"J 78","","",FALSE,"CV","q",523,"cv","J",8,"c","c",TRUE,1,-0.722329693719744
"CVOE updated",1,1,1,55,"S 54","","",FALSE,"CV","q",577,"cv","S",4,"c","c",TRUE,1,-0.663932125435018
"CVOE updated",1,1,1,56,"J 27","","",TRUE,"CV","q",680,"cv","J",7,"c","c",TRUE,1,-0.552544171114153
"CVOE updated",1,1,1,57,"S 06","","",FALSE,"CV","q",387,"cv","S",6,"c","c",TRUE,1,-0.869405050881275
"CVOE updated",1,1,1,58,"D 67","","",TRUE,"CV","q",411,"cv","D",7,"c","c",TRUE,1,-0.843450576088064
"CVOE updated",1,1,1,59,"A 79","","",FALSE,"CV","p",500,"cv","A",9,"v","v",TRUE,1,-0.747202732063238
"CVOE updated",1,1,1,60,"S 52","","",FALSE,"CV","q",490,"cv","S",2,"c","c",TRUE,1,-0.758017096560409
"CVOE updated",1,1,1,61,"U 16","","",TRUE,"CV","p",1018,"cv","U",6,"v","v",TRUE,1,-0.187018651109759
"CVOE updated",1,1,1,62,"O 82","","",TRUE,"CV","p",609,"cv","O",2,"v","v",TRUE,1,-0.62932615904407
"CVOE updated",1,1,1,63,"H 87","","",TRUE,"CV","q",586,"cv","H",7,"c","c",TRUE,1,-0.654199197387564
"CVOE updated",1,1,1,64,"I 32","","",TRUE,"CV","p",397,"cv","I",2,"v","v",TRUE,1,-0.858590686384104
"CVOE updated",1,1,1,65,"U 37","","",FALSE,"CV","p",543,"cv","U",7,"v","v",TRUE,1,-0.700700964725401
"CVOE updated",1,1,1,66,"I 42","","",TRUE,"CV","p",455,"cv","I",2,"v","v",TRUE,1,-0.795867372300509
"CVOE updated",1,1,1,67,"D 65","","",TRUE,"CV","q",432,"cv","D",5,"c","c",TRUE,1,-0.820740410644004
"CVOE updated",1,1,1,68,"U 77","","",FALSE,"CV","p",619,"cv","U",7,"v","v",TRUE,1,-0.618511794546898
"CVOE updated",1,1,1,69,"E 12","","",TRUE,"CV","p",464,"cv","E",2,"v","v",TRUE,1,-0.786134444253055
"CVOE updated",1,1,1,70,"I 60","","",TRUE,"CV","p",490,"cv","I",0,"v","v",TRUE,1,-0.758017096560409
"CVOE updated",1,1,1,71,"J 36","","",FALSE,"CV","q",545,"cv","J",6,"c","c",TRUE,1,-0.698538091825967
"CVOE updated",1,1,1,72,"H 75","","",TRUE,"CV","q",2057,"cv","H",5,"c","c",TRUE,1,0.936593820146351
"CVOE updated",1,1,1,73,"I 50","","",TRUE,"CV","p",504,"cv","I",0,"v","v",TRUE,1,-0.742876986264369
"CVOE updated",1,1,1,74,"E 99","","",FALSE,"CV","p",771,"cv","E",9,"v","v",TRUE,1,-0.454133454189893
"CVOE updated",1,1,1,75,"A 86","","",TRUE,"CV","p",596,"cv","A",6,"v","v",TRUE,1,-0.643384832890392
"CVOE updated",1,1,1,76,"U 48","","",TRUE,"CV","p",514,"cv","U",8,"v","v",TRUE,1,-0.732062621767198
"CVOE updated",1,1,1,77,"E 01","","",FALSE,"CV","p",468,"cv","E",1,"v","v",TRUE,1,-0.781808698454187
"CVOE updated",1,1,1,78,"A 78","","",TRUE,"CV","p",356,"cv","A",8,"v","v",TRUE,1,-0.902929580822506
"CVOE updated",1,1,1,79,"P 60","","",FALSE,"CV","q",500,"cv","P",0,"c","c",TRUE,1,-0.747202732063238
"CVOE updated",1,1,1,80,"E 43","","",FALSE,"CV","p",662,"cv","E",3,"v","v",TRUE,1,-0.572010027209061
"CVOE updated",1,1,1,81,"D 69","","",TRUE,"CV","q",627,"cv","D",9,"c","c",TRUE,1,-0.609860302949161
"CVOE updated",1,1,1,82,"H 11","","",TRUE,"CV","q",634,"cv","H",1,"c","c",TRUE,1,-0.602290247801141
"CVOE updated",1,1,1,83,"P 43","","",TRUE,"CV","q",568,"cv","P",3,"c","c",TRUE,1,-0.673665053482472
"CVOE updated",1,1,1,84,"O 67","","",FALSE,"CV","p",433,"cv","O",7,"v","v",TRUE,1,-0.819658974194287
"CVOE updated",1,1,1,85,"S 91","","",FALSE,"CV","q",533,"cv","S",1,"c","c",TRUE,1,-0.711515329222572
"CVOE updated",1,1,1,86,"J 68","","",TRUE,"CV","q",674,"cv","J",8,"c","c",TRUE,1,-0.559032789812455
"CVOE updated",1,1,1,87,"S 47","","",FALSE,"CV","q",443,"cv","S",7,"c","c",TRUE,1,-0.808844609697115
"CVOE updated",1,1,1,88,"I 81","","",TRUE,"CV","p",478,"cv","I",1,"v","v",TRUE,1,-0.770994333957015
"CVOE updated",1,1,1,89,"J 39","","",FALSE,"CV","q",483,"cv","J",9,"c","c",TRUE,1,-0.76558715170843
"CVOE updated",1,1,1,90,"A 11","","",TRUE,"CV","p",454,"cv","A",1,"v","v",TRUE,1,-0.796948808750227
"CVOE updated",1,1,1,91,"O 76","","",FALSE,"CV","p",726,"cv","O",6,"v","v",TRUE,1,-0.502798094427164
"CVOE updated",1,1,1,92,"A 62","","",FALSE,"CV","p",563,"cv","A",2,"v","v",TRUE,1,-0.679072235731058
"CVOE updated",1,1,1,93,"O 27","","",TRUE,"CV","p",554,"cv","O",7,"v","v",TRUE,1,-0.688805163778512
"CVOE updated",1,1,1,94,"E 66","","",FALSE,"CV","p",653,"cv","E",6,"v","v",TRUE,1,-0.581742955256515
"CVOE updated",1,1,1,95,"J 62","","",TRUE,"CV","q",924,"cv","J",2,"c","c",TRUE,1,-0.28867367738317
"CVOE updated",1,1,1,96,"H 72","","",TRUE,"CV","q",541,"cv","H",2,"c","c",TRUE,1,-0.702863837624835
"CVOE updated",1,1,1,97,"E 49","","",TRUE,"CV","p",575,"cv","E",9,"v","v",TRUE,1,-0.666094998334452
"CVOE updated",1,1,1,98,"D 52","","",TRUE,"CV","q",754,"cv","D",2,"c","c",TRUE,1,-0.472517873835084
"CVOE updated",1,1,1,99,"H 62","","",TRUE,"CV","q",633,"cv","H",2,"c","c",TRUE,1,-0.603371684250858
"CVOE updated",1,1,1,100,"I 11","","",TRUE,"CV","p",544,"cv","I",1,"v","v",TRUE,1,-0.699619528275684
"CVOE updated",1,1,1,101,"A 98","","",FALSE,"CV","p",588,"cv","A",8,"v","v",TRUE,1,-0.65203632448813
"CVOE updated",1,1,1,102,"H 29","","",FALSE,"CV","q",516,"cv","H",9,"c","c",TRUE,1,-0.729899748867764
"CVOE updated",1,1,1,103,"E 83","","",TRUE,"CV","p",544,"cv","E",3,"v","v",TRUE,1,-0.699619528275684
"CVOE updated",1,1,1,104,"D 43","","",FALSE,"CV","q",919,"cv","D",3,"c","c",TRUE,1,-0.294080859631756
"CVOE updated",1,1,1,105,"P 45","","",TRUE,"CV","q",658,"cv","P",5,"c","c",TRUE,1,-0.57633577300793
"CVOE updated",1,1,1,106,"J 17","","",TRUE,"CV","q",504,"cv","J",7,"c","c",TRUE,1,-0.742876986264369
"CVOE updated",9,1,1,11,"A 71","","",FALSE,"CV","p",1803,"cv","A",1,"v","v",TRUE,1,0.661908961918197
"CVOE updated",9,1,1,12,"I 66","","",TRUE,"CV","p",612,"cv","I",6,"v","v",TRUE,1,-0.626081849694918
"CVOE updated",9,1,1,13,"S 30","","",FALSE,"CV","q",487,"cv","S",0,"c","c",TRUE,1,-0.761261405909561
"CVOE updated",9,1,1,14,"D 20","","",FALSE,"CV","q",571,"cv","D",0,"c","c",TRUE,1,-0.670420744133321
"CVOE updated",9,1,1,15,"I 31","","",FALSE,"CV","p",526,"cv","I",1,"v","v",TRUE,1,-0.719085384370592
"CVOE updated",9,1,1,16,"P 16","","",FALSE,"CV","q",590,"cv","P",6,"c","c",TRUE,1,-0.649873451588695
"CVOE updated",9,1,1,17,"A 49","","",FALSE,"CV","p",524,"cv","A",9,"v","v",TRUE,1,-0.721248257270027
"CVOE updated",9,1,1,18,"O 64","","",TRUE,"CV","p",612,"cv","O",4,"v","v",TRUE,1,-0.626081849694918
"CVOE updated",9,1,1,19,"D 02","","",FALSE,"CV","q",471,"cv","D",2,"c","c",TRUE,1,-0.778564389105035
"CVOE updated",9,1,1,20,"P 81","","",TRUE,"CV","q",765,"cv","P",1,"c","c",TRUE,1,-0.460622072888196
"CVOE updated",9,1,1,21,"J 58","","",FALSE,"CV","q",749,"cv","J",8,"c","c",TRUE,1,-0.47792505608367
"CVOE updated",9,1,1,22,"A 22","","",TRUE,"CV","p",475,"cv","A",2,"v","v",TRUE,1,-0.774238643306167
"CVOE updated",9,1,1,23,"J 72","","",FALSE,"CV","q",532,"cv","J",2,"c","c",TRUE,1,-0.71259676567229
"CVOE updated",9,1,1,24,"P 91","","",TRUE,"CV","q",535,"cv","P",1,"c","c",TRUE,1,-0.709352456323138
"CVOE updated",9,1,1,25,"E 19","","",FALSE,"CV","p",450,"cv","E",9,"v","v",TRUE,1,-0.801274554549095
"CVOE updated",9,1,1,26,"I 30","","",TRUE,"CV","p",453,"cv","I",0,"v","v",TRUE,1,-0.798030245199944
"CVOE updated",9,1,1,27,"D 91","","",TRUE,"CV","q",488,"cv","D",1,"c","c",TRUE,1,-0.760179969459844
"CVOE updated",9,1,1,28,"O 48","","",TRUE,"CV","p",531,"cv","O",8,"v","v",TRUE,1,-0.713678202122007
"CVOE updated",9,1,1,29,"A 89","","",FALSE,"CV","p",566,"cv","A",9,"v","v",TRUE,1,-0.675827926381907
"CVOE updated",9,1,1,30,"U 11","","",FALSE,"CV","p",542,"cv","U",1,"v","v",TRUE,1,-0.701782401175118
"CVOE updated",9,1,1,31,"I 76","","",TRUE,"CV","p",420,"cv","I",6,"v","v",TRUE,1,-0.833717648040609
"CVOE updated",9,1,1,32,"U 89","","",FALSE,"CV","p",450,"cv","U",9,"v","v",TRUE,1,-0.801274554549095
"CVOE updated",9,1,1,33,"D 63","","",TRUE,"CV","q",461,"cv","D",3,"c","c",TRUE,1,-0.789378753602207
"CVOE updated",9,1,1,34,"H 70","","",FALSE,"CV","q",475,"cv","H",0,"c","c",TRUE,1,-0.774238643306167
"CVOE updated",9,1,1,35,"D 48","","",FALSE,"CV","q",451,"cv","D",8,"c","c",TRUE,1,-0.800193118099378
"CVOE updated",9,1,1,36,"P 56","","",FALSE,"CV","q",502,"cv","P",6,"c","c",TRUE,1,-0.745039859163804
"CVOE updated",9,1,1,37,"O 77","","",FALSE,"CV","p",444,"cv","O",7,"v","v",TRUE,1,-0.807763173247398
"CVOE updated",9,1,1,38,"P 42","","",FALSE,"CV","q",756,"cv","P",2,"c","c",TRUE,1,-0.47035500093565
"CVOE updated",9,1,1,39,"H 22","","",FALSE,"CV","q",693,"cv","H",2,"c","c",TRUE,1,-0.53848549726783
"CVOE updated",9,1,1,40,"E 42","","",TRUE,"CV","p",344,"cv","E",2,"v","v",TRUE,1,-0.915906818219112
"CVOE updated",9,1,1,41,"J 28","","",FALSE,"CV","q",1029,"cv","J",8,"c","c",TRUE,1,-0.17512285016287
"CVOE updated",9,1,1,42,"E 95","","",FALSE,"CV","p",595,"cv","E",5,"v","v",TRUE,1,-0.64446626934011
"CVOE updated",9,1,1,43,"S 63","","",TRUE,"CV","q",508,"cv","S",3,"c","c",TRUE,1,-0.738551240465501
"CVOE updated",9,1,1,44,"H 50","","",FALSE,"CV","q",449,"cv","H",0,"c","c",TRUE,1,-0.802355990998812
"CVOE updated",9,1,1,45,"S 33","","",TRUE,"CV","q",476,"cv","S",3,"c","c",TRUE,1,-0.77315720685645
"CVOE updated",9,1,1,46,"P 57","","",TRUE,"CV","q",541,"cv","P",7,"c","c",TRUE,1,-0.702863837624835
"CVOE updated",9,1,1,47,"E 23","","",FALSE,"CV","p",459,"cv","E",3,"v","v",TRUE,1,-0.791541626501641
"CVOE updated",9,1,1,48,"S 61","","",TRUE,"CV","q",422,"cv","S",1,"c","c",TRUE,1,-0.831554775141175
"CVOE updated",9,1,1,49,"U 67","","",FALSE,"CV","p",515,"cv","U",7,"v","v",TRUE,1,-0.730981185317481
"CVOE updated",9,1,1,50,"H 32","","",FALSE,"CV","q",540,"cv","H",2,"c","c",TRUE,1,-0.703945274074552
"CVOE updated",9,1,1,51,"U 50","","",TRUE,"CV","p",575,"cv","U",0,"v","v",TRUE,1,-0.666094998334452
"CVOE updated",9,1,1,52,"O 49","","",FALSE,"CV","p",554,"cv","O",9,"v","v",TRUE,1,-0.688805163778512
"CVOE updated",9,1,1,53,"U 32","","",TRUE,"CV","p",530,"cv","U",2,"v","v",TRUE,1,-0.714759638571724
"CVOE updated",9,1,1,54,"J 78","","",FALSE,"CV","q",509,"cv","J",8,"c","c",TRUE,1,-0.737469804015784
"CVOE updated",9,1,1,55,"S 54","","",FALSE,"CV","q",571,"cv","S",4,"c","c",TRUE,1,-0.670420744133321
"CVOE updated",9,1,1,56,"J 27","","",TRUE,"CV","q",550,"cv","J",7,"c","c",TRUE,1,-0.693130909577381
"CVOE updated",9,1,1,57,"S 06","","",FALSE,"CV","q",612,"cv","S",6,"c","c",TRUE,1,-0.626081849694918
"CVOE updated",9,1,1,58,"D 67","","",TRUE,"CV","q",487,"cv","D",7,"c","c",TRUE,1,-0.761261405909561
"CVOE updated",9,1,1,59,"A 79","","",FALSE,"CV","p",482,"cv","A",9,"v","v",TRUE,1,-0.766668588158147
"CVOE updated",9,1,1,60,"S 52","","",FALSE,"CV","q",498,"cv","S",2,"c","c",TRUE,1,-0.749365604962672
"CVOE updated",9,1,1,61,"U 16","","",TRUE,"CV","p",526,"cv","U",6,"v","v",TRUE,1,-0.719085384370592
"CVOE updated",9,1,1,62,"O 82","","",TRUE,"CV","p",430,"cv","O",2,"v","v",TRUE,1,-0.822903283543438
"CVOE updated",9,1,1,63,"H 87","","",TRUE,"CV","q",516,"cv","H",7,"c","c",TRUE,1,-0.729899748867764
"CVOE updated",9,1,1,64,"I 32","","",TRUE,"CV","p",372,"cv","I",2,"v","v",TRUE,1,-0.885626597627032
"CVOE updated",9,1,1,65,"U 37","","",FALSE,"CV","p",455,"cv","U",7,"v","v",TRUE,1,-0.795867372300509
"CVOE updated",9,1,1,66,"I 42","","",TRUE,"CV","p",466,"cv","I",2,"v","v",TRUE,1,-0.783971571353621
"CVOE updated",9,1,1,67,"D 65","","",TRUE,"CV","q",400,"cv","D",5,"c","c",TRUE,1,-0.855346377034952
"CVOE updated",9,1,1,68,"U 77","","",FALSE,"CV","p",472,"cv","U",7,"v","v",TRUE,1,-0.777482952655318
"CVOE updated",9,1,1,69,"E 12","","",TRUE,"CV","p",462,"cv","E",2,"v","v",TRUE,1,-0.788297317152489
"CVOE updated",9,1,1,70,"I 60","","",TRUE,"CV","p",452,"cv","I",0,"v","v",TRUE,1,-0.799111681649661
"CVOE updated",9,1,1,71,"J 36","","",FALSE,"CV","q",423,"cv","J",6,"c","c",TRUE,1,-0.830473338691458
"CVOE updated",9,1,1,72,"H 75","","",TRUE,"CV","q",492,"cv","H",5,"c","c",TRUE,1,-0.755854223660975
"CVOE updated",9,1,1,73,"I 50","","",TRUE,"CV","p",535,"cv","I",0,"v","v",TRUE,1,-0.709352456323138
"CVOE updated",9,1,1,74,"E 99","","",FALSE,"CV","p",450,"cv","E",9,"v","v",TRUE,1,-0.801274554549095
"CVOE updated",9,1,1,75,"A 86","","",TRUE,"CV","p",437,"cv","A",6,"v","v",TRUE,1,-0.815333228395418
"CVOE updated",9,1,1,76,"U 48","","",TRUE,"CV","p",510,"cv","U",8,"v","v",TRUE,1,-0.736388367566067
"CVOE updated",9,1,1,77,"E 01","","",FALSE,"CV","p",484,"cv","E",1,"v","v",TRUE,1,-0.764505715258712
"CVOE updated",9,1,1,78,"A 78","","",TRUE,"CV","p",444,"cv","A",8,"v","v",TRUE,1,-0.807763173247398
"CVOE updated",9,1,1,79,"P 60","","",FALSE,"CV","q",468,"cv","P",0,"c","c",TRUE,1,-0.781808698454187
"CVOE updated",9,1,1,80,"E 43","","",FALSE,"CV","p",458,"cv","E",3,"v","v",TRUE,1,-0.792623062951358
"CVOE updated",9,1,1,81,"D 69","","",TRUE,"CV","q",413,"cv","D",9,"c","c",TRUE,1,-0.841287703188629
"CVOE updated",9,1,1,82,"H 11","","",TRUE,"CV","q",520,"cv","H",1,"c","c",TRUE,1,-0.725574003068895
"CVOE updated",9,1,1,83,"P 43","","",TRUE,"CV","q",1016,"cv","P",3,"c","c",TRUE,1,-0.189181524009193
"CVOE updated",9,1,1,84,"O 67","","",FALSE,"CV","p",484,"cv","O",7,"v","v",TRUE,1,-0.764505715258712
"CVOE updated",9,1,1,85,"S 91","","",FALSE,"CV","q",476,"cv","S",1,"c","c",TRUE,1,-0.77315720685645
"CVOE updated",9,1,1,86,"J 68","","",TRUE,"CV","q",444,"cv","J",8,"c","c",TRUE,1,-0.807763173247398
"CVOE updated",9,1,1,87,"S 47","","",FALSE,"CV","q",501,"cv","S",7,"c","c",TRUE,1,-0.746121295613521
"CVOE updated",9,1,1,88,"I 81","","",TRUE,"CV","p",499,"cv","I",1,"v","v",TRUE,1,-0.748284168512955
"CVOE updated",9,1,1,89,"J 39","","",FALSE,"CV","q",438,"cv","J",9,"c","c",TRUE,1,-0.814251791945701
"CVOE updated",9,1,1,90,"A 11","","",TRUE,"CV","p",526,"cv","A",1,"v","v",TRUE,1,-0.719085384370592
"CVOE updated",9,1,1,91,"O 76","","",FALSE,"CV","p",398,"cv","O",6,"v","v",TRUE,1,-0.857509249934386
"CVOE updated",9,1,1,92,"A 62","","",FALSE,"CV","p",415,"cv","A",2,"v","v",TRUE,1,-0.839124830289195
"CVOE updated",9,1,1,93,"O 27","","",TRUE,"CV","p",394,"cv","O",7,"v","v",TRUE,1,-0.861834995733255
"CVOE updated",9,1,1,94,"E 66","","",FALSE,"CV","p",466,"cv","E",6,"v","v",TRUE,1,-0.783971571353621
"CVOE updated",9,1,1,95,"J 62","","",TRUE,"CV","q",448,"cv","J",2,"c","c",TRUE,1,-0.803437427448529
"CVOE updated",9,1,1,96,"H 72","","",TRUE,"CV","q",507,"cv","H",2,"c","c",TRUE,1,-0.739632676915218
"CVOE updated",9,1,1,97,"E 49","","",TRUE,"CV","p",417,"cv","E",9,"v","v",TRUE,1,-0.836961957389761
"CVOE updated",9,1,1,98,"D 52","","",TRUE,"CV","q",460,"cv","D",2,"c","c",TRUE,1,-0.790460190051924
"CVOE updated",9,1,1,99,"H 62","","",TRUE,"CV","q",383,"cv","H",2,"c","c",TRUE,1,-0.873730796680144
"CVOE updated",9,1,1,100,"I 11","","",TRUE,"CV","p",372,"cv","I",1,"v","v",TRUE,1,-0.885626597627032
"CVOE updated",9,1,1,101,"A 98","","",FALSE,"CV","p",367,"cv","A",8,"v","v",TRUE,1,-0.891033779875618
"CVOE updated",9,1,1,102,"H 29","","",FALSE,"CV","q",426,"cv","H",9,"c","c",TRUE,1,-0.827229029342307
"CVOE updated",9,1,1,103,"E 83","","",TRUE,"CV","p",488,"cv","E",3,"v","v",TRUE,1,-0.760179969459844
"CVOE updated",9,1,1,104,"D 43","","",FALSE,"CV","q",459,"cv","D",3,"c","c",TRUE,1,-0.791541626501641
"CVOE updated",9,1,1,105,"P 45","","",TRUE,"CV","q",502,"cv","P",5,"c","c",TRUE,1,-0.745039859163804
"CVOE updated",9,1,1,106,"J 17","","",TRUE,"CV","q",420,"cv","J",7,"c","c",TRUE,1,-0.833717648040609
"CVOE_B",2,1,2,11,"A 71","","",FALSE,"CV","p",1063,"cv","A",1,"v","v",TRUE,1,-0.138354010872487
"CVOE_B",2,1,2,12,"I 66","","",TRUE,"CV","p",574,"cv","I",6,"v","v",TRUE,1,-0.66717643478417
"CVOE_B",2,1,2,13,"S 30","","",FALSE,"CV","q",481,"cv","S",0,"c","c",TRUE,1,-0.767750024607864
"CVOE_B",2,1,2,14,"D 20","","",FALSE,"CV","q",577,"cv","D",0,"c","c",TRUE,1,-0.663932125435018
"CVOE_B",2,1,2,15,"I 31","","",FALSE,"CV","p",621,"cv","I",1,"v","v",TRUE,1,-0.616348921647464
"CVOE_B",2,1,2,16,"P 16","","",FALSE,"CV","q",706,"cv","P",6,"c","c",TRUE,1,-0.524426823421507
"CVOE_B",2,1,2,17,"A 49","","",FALSE,"CV","p",583,"cv","A",9,"v","v",TRUE,1,-0.657443506736715
"CVOE_B",2,1,2,18,"O 64","","",TRUE,"CV","p",1661,"cv","O",4,"v","v",TRUE,1,0.508344986058363
"CVOE_B",2,1,2,19,"D 02","","",FALSE,"CV","q",580,"cv","D",2,"c","c",TRUE,1,-0.660687816085867
"CVOE_B",2,1,2,20,"P 81","","",TRUE,"CV","q",1006,"cv","P",1,"c","c",TRUE,1,-0.199995888506364
"CVOE_B",2,1,2,21,"J 58","","",FALSE,"CV","q",537,"cv","J",8,"c","c",TRUE,1,-0.707189583423704
"CVOE_B",2,1,2,22,"A 22","","",TRUE,"CV","p",572,"cv","A",2,"v","v",TRUE,1,-0.669339307683604
"CVOE_B",2,1,2,23,"J 72","","",FALSE,"CV","q",505,"cv","J",2,"c","c",TRUE,1,-0.741795549814652
"CVOE_B",2,1,2,24,"P 91","","",TRUE,"CV","q",485,"cv","P",1,"c","c",TRUE,1,-0.763424278808995
"CVOE_B",2,1,2,25,"E 19","","",FALSE,"CV","p",414,"cv","E",9,"v","v",TRUE,1,-0.840206266738912
"CVOE_B",2,1,2,26,"I 30","","",TRUE,"CV","p",585,"cv","I",0,"v","v",TRUE,1,-0.655280633837281
"CVOE_B",2,1,2,27,"D 91","","",TRUE,"CV","q",414,"cv","D",1,"c","c",TRUE,1,-0.840206266738912
"CVOE_B",2,1,2,28,"O 48","","",TRUE,"CV","p",401,"cv","O",8,"v","v",TRUE,1,-0.854264940585235
"CVOE_B",2,1,2,29,"A 89","","",FALSE,"CV","p",578,"cv","A",9,"v","v",TRUE,1,-0.662850688985301
"CVOE_B",2,1,2,30,"U 11","","",FALSE,"CV","p",606,"cv","U",1,"v","v",TRUE,1,-0.632570468393221
"CVOE_B",2,1,2,31,"I 76","","",TRUE,"CV","p",485,"cv","I",6,"v","v",TRUE,1,-0.763424278808995
"CVOE_B",2,1,2,32,"U 89","","",FALSE,"CV","p",431,"cv","U",9,"v","v",TRUE,1,-0.821821847093721
"CVOE_B",2,1,2,33,"D 63","","",TRUE,"CV","q",443,"cv","D",3,"c","c",TRUE,1,-0.808844609697115
"CVOE_B",2,1,2,34,"H 70","","",FALSE,"CV","q",564,"cv","H",0,"c","c",TRUE,1,-0.677990799281341
"CVOE_B",2,1,2,35,"D 48","","",FALSE,"CV","q",508,"cv","D",8,"c","c",TRUE,1,-0.738551240465501
"CVOE_B",2,1,2,36,"P 56","","",FALSE,"CV","q",498,"cv","P",6,"c","c",TRUE,1,-0.749365604962672
"CVOE_B",2,1,2,37,"O 77","","",FALSE,"CV","p",445,"cv","O",7,"v","v",TRUE,1,-0.806681736797681
"CVOE_B",2,1,2,38,"P 42","","",FALSE,"CV","q",461,"cv","P",2,"c","c",TRUE,1,-0.789378753602207
"CVOE_B",2,1,2,39,"H 22","","",FALSE,"CV","q",443,"cv","H",2,"c","c",TRUE,1,-0.808844609697115
"CVOE_B",2,1,2,40,"E 42","","",TRUE,"CV","p",491,"cv","E",2,"v","v",TRUE,1,-0.756935660110692
"CVOE_B",2,1,2,41,"J 28","","",FALSE,"CV","q",663,"cv","J",8,"c","c",TRUE,1,-0.570928590759344
"CVOE_B",2,1,2,42,"E 95","","",FALSE,"CV","p",692,"cv","E",5,"v","v",TRUE,1,-0.539566933717547
"CVOE_B",2,1,2,43,"S 63","","",TRUE,"CV","q",559,"cv","S",3,"c","c",TRUE,1,-0.683397981529927
"CVOE_B",2,1,2,44,"H 50","","",FALSE,"CV","q",480,"cv","H",0,"c","c",TRUE,1,-0.768831461057581
"CVOE_B",2,1,2,45,"S 33","","",TRUE,"CV","q",408,"cv","S",3,"c","c",TRUE,1,-0.846694885437215
"CVOE_B",2,1,2,46,"P 57","","",TRUE,"CV","q",459,"cv","P",7,"c","c",TRUE,1,-0.791541626501641
"CVOE_B",2,1,2,47,"E 23","","",FALSE,"CV","p",543,"cv","E",3,"v","v",TRUE,1,-0.700700964725401
"CVOE_B",2,1,2,48,"S 61","","",TRUE,"CV","q",549,"cv","S",1,"c","c",TRUE,1,-0.694212346027098
"CVOE_B",2,1,2,49,"U 67","","",FALSE,"CV","p",602,"cv","U",7,"v","v",TRUE,1,-0.63689621419209
"CVOE_B",2,1,2,50,"H 32","","",FALSE,"CV","q",467,"cv","H",2,"c","c",TRUE,1,-0.782890134903904
"CVOE_B",2,1,2,51,"U 50","","",TRUE,"CV","p",593,"cv","U",0,"v","v",TRUE,1,-0.646629142239544
"CVOE_B",2,1,2,52,"O 49","","",FALSE,"CV","p",542,"cv","O",9,"v","v",TRUE,1,-0.701782401175118
"CVOE_B",2,1,2,53,"U 32","","",TRUE,"CV","p",516,"cv","U",2,"v","v",TRUE,1,-0.729899748867764
"CVOE_B",2,1,2,54,"J 78","","",FALSE,"CV","q",477,"cv","J",8,"c","c",TRUE,1,-0.772075770406732
"CVOE_B",2,1,2,55,"S 54","","",FALSE,"CV","q",500,"cv","S",4,"c","c",TRUE,1,-0.747202732063238
"CVOE_B",2,1,2,56,"J 27","","",TRUE,"CV","q",491,"cv","J",7,"c","c",TRUE,1,-0.756935660110692
"CVOE_B",2,1,2,57,"S 06","","",FALSE,"CV","q",437,"cv","S",6,"c","c",TRUE,1,-0.815333228395418
"CVOE_B",2,1,2,58,"D 67","","",TRUE,"CV","q",421,"cv","D",7,"c","c",TRUE,1,-0.832636211590892
"CVOE_B",2,1,2,59,"A 79","","",FALSE,"CV","p",563,"cv","A",9,"v","v",TRUE,1,-0.679072235731058
"CVOE_B",2,1,2,60,"S 52","","",FALSE,"CV","q",556,"cv","S",2,"c","c",TRUE,1,-0.686642290879078
"CVOE_B",2,1,2,61,"U 16","","",TRUE,"CV","p",581,"cv","U",6,"v","v",TRUE,1,-0.65960637963615
"CVOE_B",2,1,2,62,"O 82","","",TRUE,"CV","p",577,"cv","O",2,"v","v",TRUE,1,-0.663932125435018
"CVOE_B",2,1,2,63,"H 87","","",TRUE,"CV","q",582,"cv","H",7,"c","c",TRUE,1,-0.658524943186432
"CVOE_B",2,1,2,64,"I 32","","",TRUE,"CV","p",610,"cv","I",2,"v","v",TRUE,1,-0.628244722594352
"CVOE_B",2,1,2,65,"U 37","","",FALSE,"CV","q",598,"cv","U",7,"v","c",FALSE,0,-0.641221959990958
"CVOE_B",2,1,2,66,"I 42","","",TRUE,"CV","p",743,"cv","I",2,"v","v",TRUE,1,-0.484413674781973
"CVOE_B",2,1,2,67,"D 65","","",TRUE,"CV","q",517,"cv","D",5,"c","c",TRUE,1,-0.728818312418047
"CVOE_B",2,1,2,68,"U 77","","",FALSE,"CV","q",549,"cv","U",7,"v","c",FALSE,0,-0.694212346027098
"CVOE_B",2,1,2,69,"E 12","","",TRUE,"CV","p",530,"cv","E",2,"v","v",TRUE,1,-0.714759638571724
"CVOE_B",2,1,2,70,"I 60","","",TRUE,"CV","p",605,"cv","I",0,"v","v",TRUE,1,-0.633651904842938
"CVOE_B",2,1,2,71,"J 36","","",FALSE,"CV","q",542,"cv","J",6,"c","c",TRUE,1,-0.701782401175118
"CVOE_B",2,1,2,72,"H 75","","",TRUE,"CV","q",724,"cv","H",5,"c","c",TRUE,1,-0.504960967326598
"CVOE_B",2,1,2,73,"I 50","","",TRUE,"CV","p",588,"cv","I",0,"v","v",TRUE,1,-0.65203632448813
"CVOE_B",2,1,2,74,"E 99","","",FALSE,"CV","p",706,"cv","E",9,"v","v",TRUE,1,-0.524426823421507
"CVOE_B",2,1,2,75,"A 86","","",TRUE,"CV","p",527,"cv","A",6,"v","v",TRUE,1,-0.718003947920875
"CVOE_B",2,1,2,76,"U 48","","",TRUE,"CV","p",522,"cv","U",8,"v","v",TRUE,1,-0.723411130169461
"CVOE_B",2,1,2,77,"E 01","","",FALSE,"CV","p",468,"cv","E",1,"v","v",TRUE,1,-0.781808698454187
"CVOE_B",2,1,2,78,"A 78","","",TRUE,"CV","p",449,"cv","A",8,"v","v",TRUE,1,-0.802355990998812
"CVOE_B",2,1,2,79,"P 60","","",FALSE,"CV","q",476,"cv","P",0,"c","c",TRUE,1,-0.77315720685645
"CVOE_B",2,1,2,80,"E 43","","",FALSE,"CV","p",780,"cv","E",3,"v","v",TRUE,1,-0.444400526142438
"CVOE_B",2,1,2,81,"D 69","","",TRUE,"CV","q",538,"cv","D",9,"c","c",TRUE,1,-0.706108146973987
"CVOE_B",2,1,2,82,"H 11","","",TRUE,"CV","q",605,"cv","H",1,"c","c",TRUE,1,-0.633651904842938
"CVOE_B",2,1,2,83,"P 43","","",TRUE,"CV","q",830,"cv","P",3,"c","c",TRUE,1,-0.390328703656581
"CVOE_B",2,1,2,84,"O 67","","",FALSE,"CV","p",508,"cv","O",7,"v","v",TRUE,1,-0.738551240465501
"CVOE_B",2,1,2,85,"S 91","","",FALSE,"CV","q",497,"cv","S",1,"c","c",TRUE,1,-0.750447041412389
"CVOE_B",2,1,2,86,"J 68","","",TRUE,"CV","q",588,"cv","J",8,"c","c",TRUE,1,-0.65203632448813
"CVOE_B",2,1,2,87,"S 47","","",FALSE,"CV","q",497,"cv","S",7,"c","c",TRUE,1,-0.750447041412389
"CVOE_B",2,1,2,88,"I 81","","",TRUE,"CV","p",548,"cv","I",1,"v","v",TRUE,1,-0.695293782476815
"CVOE_B",2,1,2,89,"J 39","","",FALSE,"CV","q",443,"cv","J",9,"c","c",TRUE,1,-0.808844609697115
"CVOE_B",2,1,2,90,"A 11","","",TRUE,"CV","p",564,"cv","A",1,"v","v",TRUE,1,-0.677990799281341
"CVOE_B",2,1,2,91,"O 76","","",FALSE,"CV","p",540,"cv","O",6,"v","v",TRUE,1,-0.703945274074552
"CVOE_B",2,1,2,92,"A 62","","",FALSE,"CV","p",543,"cv","A",2,"v","v",TRUE,1,-0.700700964725401
"CVOE_B",2,1,2,93,"O 27","","",TRUE,"CV","p",541,"cv","O",7,"v","v",TRUE,1,-0.702863837624835
"CVOE_B",2,1,2,94,"E 66","","",FALSE,"CV","p",481,"cv","E",6,"v","v",TRUE,1,-0.767750024607864
"CVOE_B",2,1,2,95,"J 62","","",TRUE,"CV","q",459,"cv","J",2,"c","c",TRUE,1,-0.791541626501641
"CVOE_B",2,1,2,96,"H 72","","",TRUE,"CV","q",565,"cv","H",2,"c","c",TRUE,1,-0.676909362831624
"CVOE_B",2,1,2,97,"E 49","","",TRUE,"CV","p",750,"cv","E",9,"v","v",TRUE,1,-0.476843619633953
"CVOE_B",2,1,2,98,"D 52","","",TRUE,"CV","q",1780,"cv","D",2,"c","c",TRUE,1,0.637035923574703
"CVOE_B",2,1,2,99,"H 62","","",TRUE,"CV","q",482,"cv","H",2,"c","c",TRUE,1,-0.766668588158147
"CVOE_B",2,1,2,100,"I 11","","",TRUE,"CV","p",507,"cv","I",1,"v","v",TRUE,1,-0.739632676915218
"CVOE_B",2,1,2,101,"A 98","","",FALSE,"CV","p",472,"cv","A",8,"v","v",TRUE,1,-0.777482952655318
"CVOE_B",2,1,2,102,"H 29","","",FALSE,"CV","q",557,"cv","H",9,"c","c",TRUE,1,-0.685560854429361
"CVOE_B",2,1,2,103,"E 83","","",TRUE,"CV","p",502,"cv","E",3,"v","v",TRUE,1,-0.745039859163804
"CVOE_B",2,1,2,104,"D 43","","",FALSE,"CV","q",548,"cv","D",3,"c","c",TRUE,1,-0.695293782476815
"CVOE_B",2,1,2,105,"P 45","","",TRUE,"CV","q",634,"cv","P",5,"c","c",TRUE,1,-0.602290247801141
"CVOE_B",2,1,2,106,"J 17","","",TRUE,"CV","q",481,"cv","J",7,"c","c",TRUE,1,-0.767750024607864
"CVOE_B",10,1,2,11,"A 71","","",FALSE,"CV","p",1228,"cv","A",1,"v","v",TRUE,1,0.040083003330841
"CVOE_B",10,1,2,12,"I 66","","",TRUE,"CV","p",930,"cv","I",6,"v","v",TRUE,1,-0.282185058684867
"CVOE_B",10,1,2,13,"S 30","","",FALSE,"CV","q",950,"cv","S",0,"c","c",TRUE,1,-0.260556329690524
"CVOE_B",10,1,2,14,"D 20","","",FALSE,"CV","q",643,"cv","D",0,"c","c",TRUE,1,-0.592557319753687
"CVOE_B",10,1,2,15,"I 31","","",FALSE,"CV","p",732,"cv","I",1,"v","v",TRUE,1,-0.496309475728861
"CVOE_B",10,1,2,16,"P 16","","",FALSE,"CV","q",1455,"cv","P",6,"c","c",TRUE,1,0.285569077416632
"CVOE_B",10,1,2,17,"A 49","","",FALSE,"CV","p",658,"cv","A",9,"v","v",TRUE,1,-0.57633577300793
"CVOE_B",10,1,2,18,"O 64","","",TRUE,"CV","p",758,"cv","O",4,"v","v",TRUE,1,-0.468192128036216
"CVOE_B",10,1,2,19,"D 02","","",FALSE,"CV","q",694,"cv","D",2,"c","c",TRUE,1,-0.537404060818113
"CVOE_B",10,1,2,20,"P 81","","",TRUE,"CV","p",577,"cv","P",1,"c","v",FALSE,0,-0.663932125435018
"CVOE_B",10,1,2,21,"J 58","","",FALSE,"CV","q",1428,"cv","J",8,"c","c",TRUE,1,0.256370293274269
"CVOE_B",10,1,2,22,"A 22","","",TRUE,"CV","p",610,"cv","A",2,"v","v",TRUE,1,-0.628244722594352
"CVOE_B",10,1,2,23,"J 72","","",FALSE,"CV","q",533,"cv","J",2,"c","c",TRUE,1,-0.711515329222572
"CVOE_B",10,1,2,24,"P 91","","",TRUE,"CV","q",696,"cv","P",1,"c","c",TRUE,1,-0.535241187918678
"CVOE_B",10,1,2,25,"E 19","","",FALSE,"CV","p",780,"cv","E",9,"v","v",TRUE,1,-0.444400526142438
"CVOE_B",10,1,2,26,"I 30","","",TRUE,"CV","p",1223,"cv","I",0,"v","v",TRUE,1,0.0346758210822553
"CVOE_B",10,1,2,27,"D 91","","",TRUE,"CV","q",557,"cv","D",1,"c","c",TRUE,1,-0.685560854429361
"CVOE_B",10,1,2,28,"O 48","","",TRUE,"CV","p",1861,"cv","O",8,"v","v",TRUE,1,0.724632276001792
"CVOE_B",10,1,2,29,"A 89","","",FALSE,"CV","p",651,"cv","A",9,"v","v",TRUE,1,-0.58390582815595
"CVOE_B",10,1,2,30,"U 11","","",FALSE,"CV","p",822,"cv","U",1,"v","v",TRUE,1,-0.398980195254318
"CVOE_B",10,1,2,31,"I 76","","",TRUE,"CV","p",652,"cv","I",6,"v","v",TRUE,1,-0.582824391706233
"CVOE_B",10,1,2,32,"U 89","","",FALSE,"CV","p",815,"cv","U",9,"v","v",TRUE,1,-0.406550250402338
"CVOE_B",10,1,2,33,"D 63","","",TRUE,"CV","q",603,"cv","D",3,"c","c",TRUE,1,-0.635814777742372
"CVOE_B",10,1,2,34,"H 70","","",FALSE,"CV","q",731,"cv","H",0,"c","c",TRUE,1,-0.497390912178578
"CVOE_B",10,1,2,35,"D 48","","",FALSE,"CV","q",630,"cv","D",8,"c","c",TRUE,1,-0.60661599360001
"CVOE_B",10,1,2,36,"P 56","","",FALSE,"CV","q",404,"cv","P",6,"c","c",TRUE,1,-0.851020631236084
"CVOE_B",10,1,2,37,"O 77","","",FALSE,"CV","p",948,"cv","O",7,"v","v",TRUE,1,-0.262719202589959
"CVOE_B",10,1,2,38,"P 42","","",FALSE,"CV","q",674,"cv","P",2,"c","c",TRUE,1,-0.559032789812455
"CVOE_B",10,1,2,39,"H 22","","",FALSE,"CV","q",1475,"cv","H",2,"c","c",TRUE,1,0.307197806410975
"CVOE_B",10,1,2,40,"E 42","","",TRUE,"CV","p",555,"cv","E",2,"v","v",TRUE,1,-0.687723727328795
"CVOE_B",10,1,2,41,"J 28","","",FALSE,"CV","q",460,"cv","J",8,"c","c",TRUE,1,-0.790460190051924
"CVOE_B",10,1,2,42,"E 95","","",FALSE,"CV","p",679,"cv","E",5,"v","v",TRUE,1,-0.55362560756387
"CVOE_B",10,1,2,43,"S 63","","",TRUE,"CV","q",335,"cv","S",3,"c","c",TRUE,1,-0.925639746266566
"CVOE_B",10,1,2,44,"H 50","","",FALSE,"CV","q",554,"cv","H",0,"c","c",TRUE,1,-0.688805163778512
"CVOE_B",10,1,2,45,"S 33","","",TRUE,"CV","q",579,"cv","S",3,"c","c",TRUE,1,-0.661769252535584
"CVOE_B",10,1,2,46,"P 57","","",TRUE,"CV","q",574,"cv","P",7,"c","c",TRUE,1,-0.66717643478417
"CVOE_B",10,1,2,47,"E 23","","",FALSE,"CV","p",601,"cv","E",3,"v","v",TRUE,1,-0.637977650641807
"CVOE_B",10,1,2,48,"S 61","","",TRUE,"CV","q",697,"cv","S",1,"c","c",TRUE,1,-0.534159751468961
"CVOE_B",10,1,2,49,"U 67","","",FALSE,"CV","p",700,"cv","U",7,"v","v",TRUE,1,-0.53091544211981
"CVOE_B",10,1,2,50,"H 32","","",FALSE,"CV","q",600,"cv","H",2,"c","c",TRUE,1,-0.639059087091524
"CVOE_B",10,1,2,51,"U 50","","",TRUE,"CV","p",336,"cv","U",0,"v","v",TRUE,1,-0.924558309816849
"CVOE_B",10,1,2,52,"O 49","","",FALSE,"CV","p",1555,"cv","O",9,"v","v",TRUE,1,0.393712722388346
"CVOE_B",10,1,2,53,"U 32","","",TRUE,"CV","p",580,"cv","U",2,"v","v",TRUE,1,-0.660687816085867
"CVOE_B",10,1,2,54,"J 78","","",FALSE,"CV","q",623,"cv","J",8,"c","c",TRUE,1,-0.61418604874803
"CVOE_B",10,1,2,55,"S 54","","",FALSE,"CV","q",613,"cv","S",4,"c","c",TRUE,1,-0.625000413245201
"CVOE_B",10,1,2,56,"J 27","","",TRUE,"CV","q",608,"cv","J",7,"c","c",TRUE,1,-0.630407595493787
"CVOE_B",10,1,2,57,"S 06","","",FALSE,"CV","q",1251,"cv","S",6,"c","c",TRUE,1,0.0649560416743352
"CVOE_B",10,1,2,58,"D 67","","",TRUE,"CV","q",1094,"cv","D",7,"c","c",TRUE,1,-0.104829480931256
"CVOE_B",10,1,2,59,"A 79","","",FALSE,"CV","p",513,"cv","A",9,"v","v",TRUE,1,-0.733144058216915
"CVOE_B",10,1,2,60,"S 52","","",FALSE,"CV","q",535,"cv","S",2,"c","c",TRUE,1,-0.709352456323138
"CVOE_B",10,1,2,61,"U 16","","",TRUE,"CV","p",1610,"cv","U",6,"v","v",TRUE,1,0.453191727122789
"CVOE_B",10,1,2,62,"O 82","","",TRUE,"CV","p",1174,"cv","O",2,"v","v",TRUE,1,-0.0183145649538847
"CVOE_B",10,1,2,63,"H 87","","",TRUE,"CV","q",801,"cv","H",7,"c","c",TRUE,1,-0.421690360698378
"CVOE_B",10,1,2,64,"I 32","","",TRUE,"CV","p",489,"cv","I",2,"v","v",TRUE,1,-0.759098533010127
"CVOE_B",10,1,2,65,"U 37","","",FALSE,"CV","p",541,"cv","U",7,"v","v",TRUE,1,-0.702863837624835
"CVOE_B",10,1,2,66,"I 42","","",TRUE,"CV","p",522,"cv","I",2,"v","v",TRUE,1,-0.723411130169461
"CVOE_B",10,1,2,67,"D 65","","",TRUE,"CV","q",939,"cv","D",5,"c","c",TRUE,1,-0.272452130637413
"CVOE_B",10,1,2,68,"U 77","","",FALSE,"CV","p",2078,"cv","U",7,"v","v",TRUE,1,0.959303985590411
"CVOE_B",10,1,2,69,"E 12","","",TRUE,"CV","p",439,"cv","E",2,"v","v",TRUE,1,-0.813170355495984
"CVOE_B",10,1,2,70,"I 60","","",TRUE,"CV","p",375,"cv","I",0,"v","v",TRUE,1,-0.882382288277881
"CVOE_B",10,1,2,71,"J 36","","",FALSE,"CV","q",586,"cv","J",6,"c","c",TRUE,1,-0.654199197387564
"CVOE_B",10,1,2,72,"H 75","","",TRUE,"CV","q",640,"cv","H",5,"c","c",TRUE,1,-0.595801629102838
"CVOE_B",10,1,2,73,"I 50","","",TRUE,"CV","p",664,"cv","I",0,"v","v",TRUE,1,-0.569847154309627
"CVOE_B",10,1,2,74,"E 99","","",FALSE,"CV","p",2926,"cv","E",9,"v","v",TRUE,1,1.87636209495055
"CVOE_B",10,1,2,75,"A 86","","",TRUE,"CV","p",720,"cv","A",6,"v","v",TRUE,1,-0.509286713125467
"CVOE_B",10,1,2,76,"U 48","","",TRUE,"CV","p",752,"cv","U",8,"v","v",TRUE,1,-0.474680746734518
"CVOE_B",10,1,2,77,"E 01","","",FALSE,"CV","p",574,"cv","E",1,"v","v",TRUE,1,-0.66717643478417
"CVOE_B",10,1,2,78,"A 78","","",TRUE,"CV","p",409,"cv","A",8,"v","v",TRUE,1,-0.845613448987498
"CVOE_B",10,1,2,79,"P 60","","",FALSE,"CV","q",588,"cv","P",0,"c","c",TRUE,1,-0.65203632448813
"CVOE_B",10,1,2,80,"E 43","","",FALSE,"CV","p",538,"cv","E",3,"v","v",TRUE,1,-0.706108146973987
"CVOE_B",10,1,2,81,"D 69","","",TRUE,"CV","q",1317,"cv","D",9,"c","c",TRUE,1,0.136330847355667
"CVOE_B",10,1,2,82,"H 11","","",TRUE,"CV","q",637,"cv","H",1,"c","c",TRUE,1,-0.59904593845199
"CVOE_B",10,1,2,83,"P 43","","",TRUE,"CV","q",534,"cv","P",3,"c","c",TRUE,1,-0.710433892772855
"CVOE_B",10,1,2,84,"O 67","","",FALSE,"CV","p",433,"cv","O",7,"v","v",TRUE,1,-0.819658974194287
"CVOE_B",10,1,2,85,"S 91","","",FALSE,"CV","q",599,"cv","S",1,"c","c",TRUE,1,-0.640140523541241
"CVOE_B",10,1,2,86,"J 68","","",TRUE,"CV","q",647,"cv","J",8,"c","c",TRUE,1,-0.588231573954818
"CVOE_B",10,1,2,87,"S 47","","",FALSE,"CV","q",903,"cv","S",7,"c","c",TRUE,1,-0.31138384282723
"CVOE_B",10,1,2,88,"I 81","","",TRUE,"CV","p",629,"cv","I",1,"v","v",TRUE,1,-0.607697430049727
"CVOE_B",10,1,2,89,"J 39","","",FALSE,"CV","q",2691,"cv","J",9,"c","c",TRUE,1,1.62222452926702
"CVOE_B",10,1,2,90,"A 11","","",TRUE,"CV","p",359,"cv","A",1,"v","v",TRUE,1,-0.899685271473355
"CVOE_B",10,1,2,91,"O 76","","",FALSE,"CV","p",343,"cv","O",6,"v","v",TRUE,1,-0.916988254668829
"CVOE_B",10,1,2,92,"A 62","","",FALSE,"CV","p",629,"cv","A",2,"v","v",TRUE,1,-0.607697430049727
"CVOE_B",10,1,2,93,"O 27","","",TRUE,"CV","p",1347,"cv","O",7,"v","v",TRUE,1,0.168773940847181
"CVOE_B",10,1,2,94,"E 66","","",FALSE,"CV","p",1249,"cv","E",6,"v","v",TRUE,1,0.0627931687749009
"CVOE_B",10,1,2,95,"J 62","","",TRUE,"CV","q",476,"cv","J",2,"c","c",TRUE,1,-0.77315720685645
"CVOE_B",10,1,2,96,"H 72","","",TRUE,"CV","q",549,"cv","H",2,"c","c",TRUE,1,-0.694212346027098
"CVOE_B",10,1,2,97,"E 49","","",TRUE,"CV","p",762,"cv","E",9,"v","v",TRUE,1,-0.463866382237347
"CVOE_B",10,1,2,98,"D 52","","",TRUE,"CV","q",747,"cv","D",2,"c","c",TRUE,1,-0.480087928983104
"CVOE_B",10,1,2,99,"H 62","","",TRUE,"CV","q",673,"cv","H",2,"c","c",TRUE,1,-0.560114226262173
"CVOE_B",10,1,2,100,"I 11","","",TRUE,"CV","p",1182,"cv","I",1,"v","v",TRUE,1,-0.00966307335614754
"CVOE_B",10,1,2,101,"A 98","","",FALSE,"CV","p",580,"cv","A",8,"v","v",TRUE,1,-0.660687816085867
"CVOE_B",10,1,2,102,"H 29","","",FALSE,"CV","q",631,"cv","H",9,"c","c",TRUE,1,-0.605534557150292
"CVOE_B",10,1,2,103,"E 83","","",TRUE,"CV","p",437,"cv","E",3,"v","v",TRUE,1,-0.815333228395418
"CVOE_B",10,1,2,104,"D 43","","",FALSE,"CV","q",694,"cv","D",3,"c","c",TRUE,1,-0.537404060818113
"CVOE_B",10,1,2,105,"P 45","","",TRUE,"CV","q",2057,"cv","P",5,"c","c",TRUE,1,0.936593820146351
"CVOE_B",10,1,2,106,"J 17","","",TRUE,"CV","q",524,"cv","J",7,"c","c",TRUE,1,-0.721248257270027
"CVOE_B",6,1,2,12,"I 66","","",TRUE,"CV","p",1477,"cv","I",6,"v","v",TRUE,1,0.309360679310409
"CVOE_B",6,1,2,13,"S 30","","",FALSE,"CV","q",894,"cv","S",0,"c","c",TRUE,1,-0.321116770874684
"CVOE_B",6,1,2,14,"D 20","","",FALSE,"CV","q",1961,"cv","D",0,"c","c",TRUE,1,0.832775920973506
"CVOE_B",6,1,2,15,"I 31","","",FALSE,"CV","p",978,"cv","I",1,"v","v",TRUE,1,-0.230276109098444
"CVOE_B",6,1,2,16,"P 16","","",FALSE,"CV","q",885,"cv","P",6,"c","c",TRUE,1,-0.330849698922139
"CVOE_B",6,1,2,17,"A 49","","",FALSE,"CV","p",934,"cv","A",9,"v","v",TRUE,1,-0.277859312885999
"CVOE_B",6,1,2,18,"O 64","","",TRUE,"CV","p",721,"cv","O",4,"v","v",TRUE,1,-0.50820527667575
"CVOE_B",6,1,2,19,"D 02","","",FALSE,"CV","q",770,"cv","D",2,"c","c",TRUE,1,-0.45521489063961
"CVOE_B",6,1,2,20,"P 81","","",TRUE,"CV","q",805,"cv","P",1,"c","c",TRUE,1,-0.41736461489951
"CVOE_B",6,1,2,21,"J 58","","",FALSE,"CV","q",749,"cv","J",8,"c","c",TRUE,1,-0.47792505608367
"CVOE_B",6,1,2,22,"A 22","","",TRUE,"CV","p",763,"cv","A",2,"v","v",TRUE,1,-0.46278494578763
"CVOE_B",6,1,2,23,"J 72","","",FALSE,"CV","q",972,"cv","J",2,"c","c",TRUE,1,-0.236764727796747
"CVOE_B",6,1,2,24,"P 91","","",TRUE,"CV","q",1671,"cv","P",1,"c","c",TRUE,1,0.519159350555535
"CVOE_B",6,1,2,25,"E 19","","",FALSE,"CV","p",773,"cv","E",9,"v","v",TRUE,1,-0.451970581290458
"CVOE_B",6,1,2,26,"I 30","","",TRUE,"CV","p",936,"cv","I",0,"v","v",TRUE,1,-0.275696439986564
"CVOE_B",6,1,2,27,"D 91","","",TRUE,"CV","q",675,"cv","D",1,"c","c",TRUE,1,-0.557951353362738
"CVOE_B",6,1,2,28,"O 48","","",TRUE,"CV","p",892,"cv","O",8,"v","v",TRUE,1,-0.323279643774119
"CVOE_B",6,1,2,29,"A 89","","",FALSE,"CV","p",807,"cv","A",9,"v","v",TRUE,1,-0.415201742000076
"CVOE_B",6,1,2,30,"U 11","","",FALSE,"CV","p",882,"cv","U",1,"v","v",TRUE,1,-0.33409400827129
"CVOE_B",6,1,2,31,"I 76","","",TRUE,"CV","p",715,"cv","I",6,"v","v",TRUE,1,-0.514693895374053
"CVOE_B",6,1,2,32,"U 89","","",FALSE,"CV","p",859,"cv","U",9,"v","v",TRUE,1,-0.358967046614784
"CVOE_B",6,1,2,33,"D 63","","",TRUE,"CV","q",654,"cv","D",3,"c","c",TRUE,1,-0.580661518806798
"CVOE_B",6,1,2,34,"H 70","","",FALSE,"CV","q",1257,"cv","H",0,"c","c",TRUE,1,0.0714446603726381
"CVOE_B",6,1,2,35,"D 48","","",FALSE,"CV","q",1205,"cv","D",8,"c","c",TRUE,1,0.0152099649873467
"CVOE_B",6,1,2,36,"P 56","","",FALSE,"CV","q",1117,"cv","P",6,"c","c",TRUE,1,-0.0799564425877617
"CVOE_B",6,1,2,37,"O 77","","",FALSE,"CV","p",606,"cv","O",7,"v","v",TRUE,1,-0.632570468393221
"CVOE_B",6,1,2,38,"P 42","","",FALSE,"CV","q",1230,"cv","P",2,"c","c",TRUE,1,0.0422458762302753
"CVOE_B",6,1,2,39,"H 22","","",FALSE,"CV","q",2244,"cv","H",2,"c","c",TRUE,1,1.13882243624346
"CVOE_B",6,1,2,40,"E 42","","",TRUE,"CV","p",654,"cv","E",2,"v","v",TRUE,1,-0.580661518806798
"CVOE_B",6,1,2,41,"J 28","","",FALSE,"CV","q",657,"cv","J",8,"c","c",TRUE,1,-0.577417209457647
"CVOE_B",6,1,2,42,"E 95","","",FALSE,"CV","p",604,"cv","E",5,"v","v",TRUE,1,-0.634733341292655
"CVOE_B",6,1,2,43,"S 63","","",TRUE,"CV","q",668,"cv","S",3,"c","c",TRUE,1,-0.565521408510758
"CVOE_B",6,1,2,44,"H 50","","",FALSE,"CV","q",746,"cv","H",0,"c","c",TRUE,1,-0.481169365432821
"CVOE_B",6,1,2,45,"S 33","","",TRUE,"CV","p",696,"cv","S",3,"c","v",FALSE,0,-0.535241187918678
"CVOE_B",6,1,2,46,"P 57","","",TRUE,"CV","q",3707,"cv","P",7,"c","c",TRUE,1,2.72096396217963
"CVOE_B",6,1,2,47,"E 23","","",FALSE,"CV","p",850,"cv","E",3,"v","v",TRUE,1,-0.368699974662239
"CVOE_B",6,1,2,48,"S 61","","",TRUE,"CV","q",2413,"cv","S",1,"c","c",TRUE,1,1.32158519624565
"CVOE_B",6,1,2,49,"U 67","","",FALSE,"CV","p",761,"cv","U",7,"v","v",TRUE,1,-0.464947818687064
"CVOE_B",6,1,2,50,"H 32","","",FALSE,"CV","q",913,"cv","H",2,"c","c",TRUE,1,-0.300569478330059
"CVOE_B",6,1,2,51,"U 50","","",TRUE,"CV","p",679,"cv","U",0,"v","v",TRUE,1,-0.55362560756387
"CVOE_B",6,1,2,52,"O 49","","",FALSE,"CV","p",920,"cv","O",9,"v","v",TRUE,1,-0.292999423182039
"CVOE_B",6,1,2,53,"U 32","","",TRUE,"CV","p",688,"cv","U",2,"v","v",TRUE,1,-0.543892679516415
"CVOE_B",6,1,2,54,"J 78","","",FALSE,"CV","q",747,"cv","J",8,"c","c",TRUE,1,-0.480087928983104
"CVOE_B",6,1,2,55,"S 54","","",FALSE,"CV","q",881,"cv","S",4,"c","c",TRUE,1,-0.335175444721007
"CVOE_B",6,1,2,56,"J 27","","",TRUE,"CV","q",762,"cv","J",7,"c","c",TRUE,1,-0.463866382237347
"CVOE_B",6,1,2,57,"S 06","","",FALSE,"CV","q",906,"cv","S",6,"c","c",TRUE,1,-0.308139533478079
"CVOE_B",6,1,2,58,"D 67","","",TRUE,"CV","q",744,"cv","D",7,"c","c",TRUE,1,-0.483332238332256
"CVOE_B",6,1,2,59,"A 79","","",FALSE,"CV","p",766,"cv","A",9,"v","v",TRUE,1,-0.459540636438478
"CVOE_B",6,1,2,60,"S 52","","",FALSE,"CV","q",894,"cv","S",2,"c","c",TRUE,1,-0.321116770874684
"CVOE_B",6,1,2,61,"U 16","","",TRUE,"CV","p",874,"cv","U",6,"v","v",TRUE,1,-0.342745499869027
"CVOE_B",6,1,2,62,"O 82","","",TRUE,"CV","p",1402,"cv","O",2,"v","v",TRUE,1,0.228252945581624
"CVOE_B",6,1,2,63,"H 87","","",TRUE,"CV","q",779,"cv","H",7,"c","c",TRUE,1,-0.445481962592156
"CVOE_B",6,1,2,64,"I 32","","",TRUE,"CV","p",894,"cv","I",2,"v","v",TRUE,1,-0.321116770874684
"CVOE_B",6,1,2,65,"U 37","","",FALSE,"CV","p",752,"cv","U",7,"v","v",TRUE,1,-0.474680746734518
"CVOE_B",6,1,2,66,"I 42","","",TRUE,"CV","p",2095,"cv","I",2,"v","v",TRUE,1,0.977688405235603
"CVOE_B",6,1,2,67,"D 65","","",TRUE,"CV","q",875,"cv","D",5,"c","c",TRUE,1,-0.34166406341931
"CVOE_B",6,1,2,68,"U 77","","",FALSE,"CV","p",691,"cv","U",7,"v","v",TRUE,1,-0.540648370167264
"CVOE_B",6,1,2,69,"E 12","","",TRUE,"CV","p",758,"cv","E",2,"v","v",TRUE,1,-0.468192128036216
"CVOE_B",6,1,2,70,"I 60","","",TRUE,"CV","p",783,"cv","I",0,"v","v",TRUE,1,-0.441156216793287
"CVOE_B",6,1,2,71,"J 36","","",FALSE,"CV","q",741,"cv","J",6,"c","c",TRUE,1,-0.486576547681407
"CVOE_B",6,1,2,72,"H 75","","",TRUE,"CV","q",802,"cv","H",5,"c","c",TRUE,1,-0.420608924248661
"CVOE_B",6,1,2,73,"I 50","","",TRUE,"CV","p",675,"cv","I",0,"v","v",TRUE,1,-0.557951353362738
"CVOE_B",6,1,2,74,"E 99","","",FALSE,"CV","p",907,"cv","E",9,"v","v",TRUE,1,-0.307058097028361
"CVOE_B",6,1,2,75,"A 86","","",TRUE,"CV","p",873,"cv","A",6,"v","v",TRUE,1,-0.343826936318744
"CVOE_B",6,1,2,76,"U 48","","",TRUE,"CV","p",791,"cv","U",8,"v","v",TRUE,1,-0.43250472519555
"CVOE_B",6,1,2,77,"E 01","","",FALSE,"CV","p",693,"cv","E",1,"v","v",TRUE,1,-0.53848549726783
"CVOE_B",6,1,2,78,"A 78","","",TRUE,"CV","p",752,"cv","A",8,"v","v",TRUE,1,-0.474680746734518
"CVOE_B",6,1,2,79,"P 60","","",FALSE,"CV","q",814,"cv","P",0,"c","c",TRUE,1,-0.407631686852056
"CVOE_B",6,1,2,80,"E 43","","",FALSE,"CV","p",673,"cv","E",3,"v","v",TRUE,1,-0.560114226262173
"CVOE_B",6,1,2,81,"D 69","","",TRUE,"CV","q",1798,"cv","D",9,"c","c",TRUE,1,0.656501779669612
"CVOE_B",6,1,2,82,"H 11","","",TRUE,"CV","q",935,"cv","H",1,"c","c",TRUE,1,-0.276777876436281
"CVOE_B",6,1,2,83,"P 43","","",TRUE,"CV","q",955,"cv","P",3,"c","c",TRUE,1,-0.255149147441939
"CVOE_B",6,1,2,84,"O 67","","",FALSE,"CV","p",660,"cv","O",7,"v","v",TRUE,1,-0.574172900108495
"CVOE_B",6,1,2,85,"S 91","","",FALSE,"CV","q",678,"cv","S",1,"c","c",TRUE,1,-0.554707044013587
"CVOE_B",6,1,2,86,"J 68","","",TRUE,"CV","q",1574,"cv","J",8,"c","c",TRUE,1,0.414260014932972
"CVOE_B",6,1,2,87,"S 47","","",FALSE,"CV","q",499,"cv","S",7,"c","c",TRUE,1,-0.748284168512955
"CVOE_B",6,1,2,88,"I 81","","",TRUE,"CV","p",678,"cv","I",1,"v","v",TRUE,1,-0.554707044013587
"CVOE_B",6,1,2,89,"J 39","","",FALSE,"CV","q",806,"cv","J",9,"c","c",TRUE,1,-0.416283178449793
"CVOE_B",6,1,2,90,"A 11","","",TRUE,"CV","p",663,"cv","A",1,"v","v",TRUE,1,-0.570928590759344
"CVOE_B",6,1,2,91,"O 76","","",FALSE,"CV","p",1491,"cv","O",6,"v","v",TRUE,1,0.324500789606449
"CVOE_B",6,1,2,92,"A 62","","",FALSE,"CV","p",720,"cv","A",2,"v","v",TRUE,1,-0.509286713125467
"CVOE_B",6,1,2,93,"O 27","","",TRUE,"CV","p",920,"cv","O",7,"v","v",TRUE,1,-0.292999423182039
"CVOE_B",6,1,2,94,"E 66","","",FALSE,"CV","p",641,"cv","E",6,"v","v",TRUE,1,-0.594720192653121
"CVOE_B",6,1,2,95,"J 62","","",TRUE,"CV","q",769,"cv","J",2,"c","c",TRUE,1,-0.456296327089327
"CVOE_B",6,1,2,96,"H 72","","",TRUE,"CV","q",620,"cv","H",2,"c","c",TRUE,1,-0.617430358097181
"CVOE_B",6,1,2,97,"E 49","","",TRUE,"CV","p",530,"cv","E",9,"v","v",TRUE,1,-0.714759638571724
"CVOE_B",6,1,2,98,"D 52","","",TRUE,"CV","q",653,"cv","D",2,"c","c",TRUE,1,-0.581742955256515
"CVOE_B",6,1,2,99,"H 62","","",TRUE,"CV","q",568,"cv","H",2,"c","c",TRUE,1,-0.673665053482472
"CVOE_B",6,1,2,100,"I 11","","",TRUE,"CV","p",660,"cv","I",1,"v","v",TRUE,1,-0.574172900108495
"CVOE_B",6,1,2,101,"A 98","","",FALSE,"CV","p",1054,"cv","A",8,"v","v",TRUE,1,-0.148086938919942
"CVOE_B",6,1,2,102,"H 29","","",FALSE,"CV","q",890,"cv","H",9,"c","c",TRUE,1,-0.325442516673553
"CVOE_B",6,1,2,103,"E 83","","",TRUE,"CV","p",789,"cv","E",3,"v","v",TRUE,1,-0.434667598094984
"CVOE_B",6,1,2,104,"D 43","","",FALSE,"CV","q",1587,"cv","D",3,"c","c",TRUE,1,0.428318688779295
"CVOE_B",6,1,2,105,"P 45","","",TRUE,"CV","q",681,"cv","P",5,"c","c",TRUE,1,-0.551462734664435
"CVOE_B",6,1,2,106,"J 17","","",TRUE,"CV","q",546,"cv","J",7,"c","c",TRUE,1,-0.69745665537625
"CVOE_C",3,1,2,12,"I 66","","",TRUE,"CV","p",678,"cv","I",6,"v","v",TRUE,1,-0.554707044013587
"CVOE_C",3,1,2,13,"S 30","","",FALSE,"CV","q",743,"cv","S",0,"c","c",TRUE,1,-0.484413674781973
"CVOE_C",3,1,2,14,"D 20","","",FALSE,"CV","q",765,"cv","D",0,"c","c",TRUE,1,-0.460622072888196
"CVOE_C",3,1,2,15,"I 31","","",FALSE,"CV","p",533,"cv","I",1,"v","v",TRUE,1,-0.711515329222572
"CVOE_C",3,1,2,16,"P 16","","",FALSE,"CV","q",568,"cv","P",6,"c","c",TRUE,1,-0.673665053482472
"CVOE_C",3,1,2,17,"A 49","","",FALSE,"CV","p",643,"cv","A",9,"v","v",TRUE,1,-0.592557319753687
"CVOE_C",3,1,2,18,"O 64","","",TRUE,"CV","p",524,"cv","O",4,"v","v",TRUE,1,-0.721248257270027
"CVOE_C",3,1,2,19,"D 02","","",FALSE,"CV","q",532,"cv","D",2,"c","c",TRUE,1,-0.71259676567229
"CVOE_C",3,1,2,20,"P 81","","",TRUE,"CV","q",871,"cv","P",1,"c","c",TRUE,1,-0.345989809218179
"CVOE_C",3,1,2,21,"J 58","","",FALSE,"CV","q",797,"cv","J",8,"c","c",TRUE,1,-0.426016106497247
"CVOE_C",3,1,2,22,"A 22","","",TRUE,"CV","p",557,"cv","A",2,"v","v",TRUE,1,-0.685560854429361
"CVOE_C",3,1,2,23,"J 72","","",FALSE,"CV","q",678,"cv","J",2,"c","c",TRUE,1,-0.554707044013587
"CVOE_C",3,1,2,24,"P 91","","",TRUE,"CV","q",454,"cv","P",1,"c","c",TRUE,1,-0.796948808750227
"CVOE_C",3,1,2,25,"E 19","","",FALSE,"CV","p",513,"cv","E",9,"v","v",TRUE,1,-0.733144058216915
"CVOE_C",3,1,2,26,"I 30","","",TRUE,"CV","p",482,"cv","I",0,"v","v",TRUE,1,-0.766668588158147
"CVOE_C",3,1,2,27,"D 91","","",TRUE,"CV","q",378,"cv","D",1,"c","c",TRUE,1,-0.879137978928729
"CVOE_C",3,1,2,28,"O 48","","",TRUE,"CV","p",589,"cv","O",8,"v","v",TRUE,1,-0.650954888038413
"CVOE_C",3,1,2,29,"A 89","","",FALSE,"CV","p",531,"cv","A",9,"v","v",TRUE,1,-0.713678202122007
"CVOE_C",3,1,2,30,"U 11","","",FALSE,"CV","q",382,"cv","U",1,"v","c",FALSE,0,-0.874812233129861
"CVOE_C",3,1,2,31,"I 76","","",TRUE,"CV","p",684,"cv","I",6,"v","v",TRUE,1,-0.548218425315284
"CVOE_C",3,1,2,32,"U 89","","",FALSE,"CV","p",380,"cv","U",9,"v","v",TRUE,1,-0.876975106029295
"CVOE_C",3,1,2,33,"D 63","","",TRUE,"CV","q",562,"cv","D",3,"c","c",TRUE,1,-0.680153672180775
"CVOE_C",3,1,2,34,"H 70","","",FALSE,"CV","q",874,"cv","H",0,"c","c",TRUE,1,-0.342745499869027
"CVOE_C",3,1,2,35,"D 48","","",FALSE,"CV","q",475,"cv","D",8,"c","c",TRUE,1,-0.774238643306167
"CVOE_C",3,1,2,36,"P 56","","",FALSE,"CV","q",475,"cv","P",6,"c","c",TRUE,1,-0.774238643306167
"CVOE_C",3,1,2,37,"O 77","","",FALSE,"CV","p",643,"cv","O",7,"v","v",TRUE,1,-0.592557319753687
"CVOE_C",3,1,2,38,"P 42","","",FALSE,"CV","q",804,"cv","P",2,"c","c",TRUE,1,-0.418446051349227
"CVOE_C",3,1,2,39,"H 22","","",FALSE,"CV","q",484,"cv","H",2,"c","c",TRUE,1,-0.764505715258712
"CVOE_C",3,1,2,40,"E 42","","",TRUE,"CV","p",485,"cv","E",2,"v","v",TRUE,1,-0.763424278808995
"CVOE_C",3,1,2,41,"J 28","","",FALSE,"CV","q",389,"cv","J",8,"c","c",TRUE,1,-0.867242177981841
"CVOE_C",3,1,2,42,"E 95","","",FALSE,"CV","q",491,"cv","E",5,"v","c",FALSE,0,-0.756935660110692
"CVOE_C",3,1,2,43,"S 63","","",TRUE,"CV","q",814,"cv","S",3,"c","c",TRUE,1,-0.407631686852056
"CVOE_C",3,1,2,44,"H 50","","",FALSE,"CV","q",521,"cv","H",0,"c","c",TRUE,1,-0.724492566619178
"CVOE_C",3,1,2,45,"S 33","","",TRUE,"CV","q",985,"cv","S",3,"c","c",TRUE,1,-0.222706053950424
"CVOE_C",3,1,2,46,"P 57","","",TRUE,"CV","q",543,"cv","P",7,"c","c",TRUE,1,-0.700700964725401
"CVOE_C",3,1,2,47,"E 23","","",FALSE,"CV","p",901,"cv","E",3,"v","v",TRUE,1,-0.313546715726664
"CVOE_C",3,1,2,48,"S 61","","",TRUE,"CV","q",763,"cv","S",1,"c","c",TRUE,1,-0.46278494578763
"CVOE_C",3,1,2,49,"U 67","","",FALSE,"CV","p",771,"cv","U",7,"v","v",TRUE,1,-0.454133454189893
"CVOE_C",3,1,2,50,"H 32","","",FALSE,"CV","q",607,"cv","H",2,"c","c",TRUE,1,-0.631489031943504
"CVOE_C",3,1,2,51,"U 50","","",TRUE,"CV","p",498,"cv","U",0,"v","v",TRUE,1,-0.749365604962672
"CVOE_C",3,1,2,52,"O 49","","",FALSE,"CV","p",469,"cv","O",9,"v","v",TRUE,1,-0.780727262004469
"CVOE_C",3,1,2,53,"U 32","","",TRUE,"CV","p",434,"cv","U",2,"v","v",TRUE,1,-0.818577537744569
"CVOE_C",3,1,2,54,"J 78","","",FALSE,"CV","q",667,"cv","J",8,"c","c",TRUE,1,-0.566602844960475
"CVOE_C",3,1,2,55,"S 54","","",FALSE,"CV","q",849,"cv","S",4,"c","c",TRUE,1,-0.369781411111956
"CVOE_C",3,1,2,56,"J 27","","",TRUE,"CV","q",612,"cv","J",7,"c","c",TRUE,1,-0.626081849694918
"CVOE_C",3,1,2,57,"S 06","","",FALSE,"CV","q",759,"cv","S",6,"c","c",TRUE,1,-0.467110691586498
"CVOE_C",3,1,2,58,"D 67","","",TRUE,"CV","q",1023,"cv","D",7,"c","c",TRUE,1,-0.181611468861173
"CVOE_C",3,1,2,59,"A 79","","",FALSE,"CV","p",701,"cv","A",9,"v","v",TRUE,1,-0.529834005670093
"CVOE_C",3,1,2,60,"S 52","","",FALSE,"CV","q",1147,"cv","S",2,"c","c",TRUE,1,-0.0475133490962475
"CVOE_C",3,1,2,61,"U 16","","",TRUE,"CV","p",593,"cv","U",6,"v","v",TRUE,1,-0.646629142239544
"CVOE_C",3,1,2,62,"O 82","","",TRUE,"CV","p",434,"cv","O",2,"v","v",TRUE,1,-0.818577537744569
"CVOE_C",3,1,2,63,"H 87","","",TRUE,"CV","q",474,"cv","H",7,"c","c",TRUE,1,-0.775320079755884
"CVOE_C",3,1,2,64,"I 32","","",TRUE,"CV","p",586,"cv","I",2,"v","v",TRUE,1,-0.654199197387564
"CVOE_C",3,1,2,65,"U 37","","",FALSE,"CV","p",496,"cv","U",7,"v","v",TRUE,1,-0.751528477862107
"CVOE_C",3,1,2,66,"I 42","","",TRUE,"CV","p",483,"cv","I",2,"v","v",TRUE,1,-0.76558715170843
"CVOE_C",3,1,2,67,"D 65","","",TRUE,"CV","q",603,"cv","D",5,"c","c",TRUE,1,-0.635814777742372
"CVOE_C",3,1,2,68,"U 77","","",FALSE,"CV","p",604,"cv","U",7,"v","v",TRUE,1,-0.634733341292655
"CVOE_C",3,1,2,69,"E 12","","",TRUE,"CV","p",492,"cv","E",2,"v","v",TRUE,1,-0.755854223660975
"CVOE_C",3,1,2,70,"I 60","","",TRUE,"CV","p",383,"cv","I",0,"v","v",TRUE,1,-0.873730796680144
"CVOE_C",3,1,2,71,"J 36","","",FALSE,"CV","q",541,"cv","J",6,"c","c",TRUE,1,-0.702863837624835
"CVOE_C",3,1,2,72,"H 75","","",TRUE,"CV","q",555,"cv","H",5,"c","c",TRUE,1,-0.687723727328795
"CVOE_C",3,1,2,73,"I 50","","",TRUE,"CV","p",459,"cv","I",0,"v","v",TRUE,1,-0.791541626501641
"CVOE_C",3,1,2,74,"E 99","","",FALSE,"CV","q",446,"cv","E",9,"v","c",FALSE,0,-0.805600300347964
"CVOE_C",3,1,2,75,"A 86","","",TRUE,"CV","p",519,"cv","A",6,"v","v",TRUE,1,-0.726655439518612
"CVOE_C",3,1,2,76,"U 48","","",TRUE,"CV","p",367,"cv","U",8,"v","v",TRUE,1,-0.891033779875618
"CVOE_C",3,1,2,77,"E 01","","",FALSE,"CV","p",370,"cv","E",1,"v","v",TRUE,1,-0.887789470526467
"CVOE_C",3,1,2,78,"A 78","","",TRUE,"CV","p",1013,"cv","A",8,"v","v",TRUE,1,-0.192425833358344
"CVOE_C",3,1,2,79,"P 60","","",FALSE,"CV","q",728,"cv","P",0,"c","c",TRUE,1,-0.50063522152773
"CVOE_C",3,1,2,80,"E 43","","",FALSE,"CV","p",619,"cv","E",3,"v","v",TRUE,1,-0.618511794546898
"CVOE_C",3,1,2,81,"D 69","","",TRUE,"CV","q",646,"cv","D",9,"c","c",TRUE,1,-0.589313010404535
"CVOE_C",3,1,2,82,"H 11","","",TRUE,"CV","q",634,"cv","H",1,"c","c",TRUE,1,-0.602290247801141
"CVOE_C",3,1,2,83,"P 43","","",TRUE,"CV","q",586,"cv","P",3,"c","c",TRUE,1,-0.654199197387564
"CVOE_C",3,1,2,84,"O 67","","",FALSE,"CV","p",536,"cv","O",7,"v","v",TRUE,1,-0.708271019873421
"CVOE_C",3,1,2,85,"S 91","","",FALSE,"CV","q",467,"cv","S",1,"c","c",TRUE,1,-0.782890134903904
"CVOE_C",3,1,2,86,"J 68","","",TRUE,"CV","q",441,"cv","J",8,"c","c",TRUE,1,-0.811007482596549
"CVOE_C",3,1,2,87,"S 47","","",FALSE,"CV","q",353,"cv","S",7,"c","c",TRUE,1,-0.906173890171658
"CVOE_C",3,1,2,88,"I 81","","",TRUE,"CV","p",511,"cv","I",1,"v","v",TRUE,1,-0.735306931116349
"CVOE_C",3,1,2,89,"J 39","","",FALSE,"CV","q",484,"cv","J",9,"c","c",TRUE,1,-0.764505715258712
"CVOE_C",3,1,2,90,"A 11","","",TRUE,"CV","p",509,"cv","A",1,"v","v",TRUE,1,-0.737469804015784
"CVOE_C",3,1,2,91,"O 76","","",FALSE,"CV","p",490,"cv","O",6,"v","v",TRUE,1,-0.758017096560409
"CVOE_C",3,1,2,92,"A 62","","",FALSE,"CV","p",406,"cv","A",2,"v","v",TRUE,1,-0.848857758336649
"CVOE_C",3,1,2,93,"O 27","","",TRUE,"CV","p",342,"cv","O",7,"v","v",TRUE,1,-0.918069691118546
"CVOE_C",3,1,2,94,"E 66","","",FALSE,"CV","p",420,"cv","E",6,"v","v",TRUE,1,-0.833717648040609
"CVOE_C",3,1,2,95,"J 62","","",TRUE,"CV","q",647,"cv","J",2,"c","c",TRUE,1,-0.588231573954818
"CVOE_C",3,1,2,96,"H 72","","",TRUE,"CV","p",530,"cv","H",2,"c","v",FALSE,0,-0.714759638571724
"CVOE_C",3,1,2,97,"E 49","","",TRUE,"CV","p",973,"cv","E",9,"v","v",TRUE,1,-0.23568329134703
"CVOE_C",3,1,2,98,"D 52","","",TRUE,"CV","q",648,"cv","D",2,"c","c",TRUE,1,-0.587150137505101
"CVOE_C",3,1,2,99,"H 62","","",TRUE,"CV","q",451,"cv","H",2,"c","c",TRUE,1,-0.800193118099378
"CVOE_C",3,1,2,100,"I 11","","",TRUE,"CV","p",694,"cv","I",1,"v","v",TRUE,1,-0.537404060818113
"CVOE_C",3,1,2,101,"A 98","","",FALSE,"CV","p",425,"cv","A",8,"v","v",TRUE,1,-0.828310465792024
"CVOE_C",3,1,2,102,"H 29","","",FALSE,"CV","q",559,"cv","H",9,"c","c",TRUE,1,-0.683397981529927
"CVOE_C",3,1,2,103,"E 83","","",TRUE,"CV","q",479,"cv","E",3,"v","c",FALSE,0,-0.769912897507298
"CVOE_C",3,1,2,104,"D 43","","",FALSE,"CV","q",1089,"cv","D",3,"c","c",TRUE,1,-0.110236663179842
"CVOE_C",3,1,2,105,"P 45","","",TRUE,"CV","q",555,"cv","P",5,"c","c",TRUE,1,-0.687723727328795
"CVOE_C",3,1,2,106,"J 17","","",TRUE,"CV","q",459,"cv","J",7,"c","c",TRUE,1,-0.791541626501641
"CVOE_C",11,1,2,11,"A 71","","",FALSE,"CV","p",2185,"cv","A",1,"v","v",TRUE,1,1.07501768571015
"CVOE_C",11,1,2,12,"I 66","","",TRUE,"CV","p",727,"cv","I",6,"v","v",TRUE,1,-0.501716657977447
"CVOE_C",11,1,2,13,"S 30","","",FALSE,"CV","q",575,"cv","S",0,"c","c",TRUE,1,-0.666094998334452
"CVOE_C",11,1,2,14,"D 20","","",FALSE,"CV","q",1930,"cv","D",0,"c","c",TRUE,1,0.799251391032274
"CVOE_C",11,1,2,15,"I 31","","",FALSE,"CV","p",574,"cv","I",1,"v","v",TRUE,1,-0.66717643478417
"CVOE_C",11,1,2,16,"P 16","","",FALSE,"CV","q",705,"cv","P",6,"c","c",TRUE,1,-0.525508259871224
"CVOE_C",11,1,2,17,"A 49","","",FALSE,"CV","p",775,"cv","A",9,"v","v",TRUE,1,-0.449807708391024
"CVOE_C",11,1,2,18,"O 64","","",TRUE,"CV","p",466,"cv","O",4,"v","v",TRUE,1,-0.783971571353621
"CVOE_C",11,1,2,19,"D 02","","",FALSE,"CV","q",544,"cv","D",2,"c","c",TRUE,1,-0.699619528275684
"CVOE_C",11,1,2,20,"P 81","","",TRUE,"CV","q",870,"cv","P",1,"c","c",TRUE,1,-0.347071245667896
"CVOE_C",11,1,2,21,"J 58","","",FALSE,"CV","q",499,"cv","J",8,"c","c",TRUE,1,-0.748284168512955
"CVOE_C",11,1,2,22,"A 22","","",TRUE,"CV","p",598,"cv","A",2,"v","v",TRUE,1,-0.641221959990958
"CVOE_C",11,1,2,23,"J 72","","",FALSE,"CV","q",559,"cv","J",2,"c","c",TRUE,1,-0.683397981529927
"CVOE_C",11,1,2,24,"P 91","","",TRUE,"CV","q",903,"cv","P",1,"c","c",TRUE,1,-0.31138384282723
"CVOE_C",11,1,2,25,"E 19","","",FALSE,"CV","p",765,"cv","E",9,"v","v",TRUE,1,-0.460622072888196
"CVOE_C",11,1,2,26,"I 30","","",TRUE,"CV","p",398,"cv","I",0,"v","v",TRUE,1,-0.857509249934386
"CVOE_C",11,1,2,27,"D 91","","",TRUE,"CV","q",486,"cv","D",1,"c","c",TRUE,1,-0.762342842359278
"CVOE_C",11,1,2,28,"O 48","","",TRUE,"CV","p",550,"cv","O",8,"v","v",TRUE,1,-0.693130909577381
"CVOE_C",11,1,2,29,"A 89","","",FALSE,"CV","q",556,"cv","A",9,"v","c",FALSE,0,-0.686642290879078
"CVOE_C",11,1,2,30,"U 11","","",FALSE,"CV","p",1045,"cv","U",1,"v","v",TRUE,1,-0.157819866967396
"CVOE_C",11,1,2,31,"I 76","","",TRUE,"CV","p",1189,"cv","I",6,"v","v",TRUE,1,-0.00209301820812755
"CVOE_C",11,1,2,32,"U 89","","",FALSE,"CV","p",483,"cv","U",9,"v","v",TRUE,1,-0.76558715170843
"CVOE_C",11,1,2,33,"D 63","","",TRUE,"CV","q",892,"cv","D",3,"c","c",TRUE,1,-0.323279643774119
"CVOE_C",11,1,2,34,"H 70","","",FALSE,"CV","q",495,"cv","H",0,"c","c",TRUE,1,-0.752609914311824
"CVOE_C",11,1,2,35,"D 48","","",FALSE,"CV","q",858,"cv","D",8,"c","c",TRUE,1,-0.360048483064501
"CVOE_C",11,1,2,36,"P 56","","",FALSE,"CV","q",429,"cv","P",6,"c","c",TRUE,1,-0.823984719993155
"CVOE_C",11,1,2,37,"O 77","","",FALSE,"CV","p",859,"cv","O",7,"v","v",TRUE,1,-0.358967046614784
"CVOE_C",11,1,2,38,"P 42","","",FALSE,"CV","q",654,"cv","P",2,"c","c",TRUE,1,-0.580661518806798
"CVOE_C",11,1,2,39,"H 22","","",FALSE,"CV","q",897,"cv","H",2,"c","c",TRUE,1,-0.317872461525533
"CVOE_C",11,1,2,40,"E 42","","",TRUE,"CV","p",564,"cv","E",2,"v","v",TRUE,1,-0.677990799281341
"CVOE_C",11,1,2,41,"J 28","","",FALSE,"CV","q",485,"cv","J",8,"c","c",TRUE,1,-0.763424278808995
"CVOE_C",11,1,2,42,"E 95","","",FALSE,"CV","p",509,"cv","E",5,"v","v",TRUE,1,-0.737469804015784
"CVOE_C",11,1,2,43,"S 63","","",TRUE,"CV","q",387,"cv","S",3,"c","c",TRUE,1,-0.869405050881275
"CVOE_C",11,1,2,44,"H 50","","",FALSE,"CV","q",496,"cv","H",0,"c","c",TRUE,1,-0.751528477862107
"CVOE_C",11,1,2,45,"S 33","","",TRUE,"CV","q",595,"cv","S",3,"c","c",TRUE,1,-0.64446626934011
"CVOE_C",11,1,2,46,"P 57","","",TRUE,"CV","q",460,"cv","P",7,"c","c",TRUE,1,-0.790460190051924
"CVOE_C",11,1,2,47,"E 23","","",FALSE,"CV","p",567,"cv","E",3,"v","v",TRUE,1,-0.67474648993219
"CVOE_C",11,1,2,48,"S 61","","",TRUE,"CV","q",695,"cv","S",1,"c","c",TRUE,1,-0.536322624368396
"CVOE_C",11,1,2,49,"U 67","","",FALSE,"CV","p",490,"cv","U",7,"v","v",TRUE,1,-0.758017096560409
"CVOE_C",11,1,2,50,"H 32","","",FALSE,"CV","q",397,"cv","H",2,"c","c",TRUE,1,-0.858590686384104
"CVOE_C",11,1,2,51,"U 50","","",TRUE,"CV","p",502,"cv","U",0,"v","v",TRUE,1,-0.745039859163804
"CVOE_C",11,1,2,52,"O 49","","",FALSE,"CV","p",619,"cv","O",9,"v","v",TRUE,1,-0.618511794546898
"CVOE_C",11,1,2,53,"U 32","","",TRUE,"CV","p",799,"cv","U",2,"v","v",TRUE,1,-0.423853233597813
"CVOE_C",11,1,2,54,"J 78","","",FALSE,"CV","q",527,"cv","J",8,"c","c",TRUE,1,-0.718003947920875
"CVOE_C",11,1,2,55,"S 54","","",FALSE,"CV","q",831,"cv","S",4,"c","c",TRUE,1,-0.389247267206864
"CVOE_C",11,1,2,56,"J 27","","",TRUE,"CV","q",421,"cv","J",7,"c","c",TRUE,1,-0.832636211590892
"CVOE_C",11,1,2,57,"S 06","","",FALSE,"CV","q",491,"cv","S",6,"c","c",TRUE,1,-0.756935660110692
"CVOE_C",11,1,2,58,"D 67","","",TRUE,"CV","q",446,"cv","D",7,"c","c",TRUE,1,-0.805600300347964
"CVOE_C",11,1,2,59,"A 79","","",FALSE,"CV","p",398,"cv","A",9,"v","v",TRUE,1,-0.857509249934386
"CVOE_C",11,1,2,60,"S 52","","",FALSE,"CV","q",479,"cv","S",2,"c","c",TRUE,1,-0.769912897507298
"CVOE_C",11,1,2,61,"U 16","","",TRUE,"CV","p",503,"cv","U",6,"v","v",TRUE,1,-0.743958422714087
"CVOE_C",11,1,2,62,"O 82","","",TRUE,"CV","p",837,"cv","O",2,"v","v",TRUE,1,-0.382758648508561
"CVOE_C",11,1,2,63,"H 87","","",TRUE,"CV","q",509,"cv","H",7,"c","c",TRUE,1,-0.737469804015784
"CVOE_C",11,1,2,64,"I 32","","",TRUE,"CV","p",451,"cv","I",2,"v","v",TRUE,1,-0.800193118099378
"CVOE_C",11,1,2,65,"U 37","","",FALSE,"CV","p",574,"cv","U",7,"v","v",TRUE,1,-0.66717643478417
"CVOE_C",11,1,2,66,"I 42","","",TRUE,"CV","p",409,"cv","I",2,"v","v",TRUE,1,-0.845613448987498
"CVOE_C",11,1,2,67,"D 65","","",TRUE,"CV","q",420,"cv","D",5,"c","c",TRUE,1,-0.833717648040609
"CVOE_C",11,1,2,68,"U 77","","",FALSE,"CV","p",447,"cv","U",7,"v","v",TRUE,1,-0.804518863898247
"CVOE_C",11,1,2,69,"E 12","","",TRUE,"CV","q",368,"cv","E",2,"v","c",FALSE,0,-0.889952343425901
"CVOE_C",11,1,2,70,"I 60","","",TRUE,"CV","p",544,"cv","I",0,"v","v",TRUE,1,-0.699619528275684
"CVOE_C",11,1,2,71,"J 36","","",FALSE,"CV","q",646,"cv","J",6,"c","c",TRUE,1,-0.589313010404535
"CVOE_C",11,1,2,72,"H 75","","",TRUE,"CV","q",646,"cv","H",5,"c","c",TRUE,1,-0.589313010404535
"CVOE_C",11,1,2,73,"I 50","","",TRUE,"CV","p",1543,"cv","I",0,"v","v",TRUE,1,0.380735484991741
"CVOE_C",11,1,2,74,"E 99","","",FALSE,"CV","p",381,"cv","E",9,"v","v",TRUE,1,-0.875893669579578
"CVOE_C",11,1,2,75,"A 86","","",TRUE,"CV","p",520,"cv","A",6,"v","v",TRUE,1,-0.725574003068895
"CVOE_C",11,1,2,76,"U 48","","",TRUE,"CV","p",408,"cv","U",8,"v","v",TRUE,1,-0.846694885437215
"CVOE_C",11,1,2,77,"E 01","","",FALSE,"CV","p",763,"cv","E",1,"v","v",TRUE,1,-0.46278494578763
"CVOE_C",11,1,2,78,"A 78","","",TRUE,"CV","p",460,"cv","A",8,"v","v",TRUE,1,-0.790460190051924
"CVOE_C",11,1,2,79,"P 60","","",FALSE,"CV","q",471,"cv","P",0,"c","c",TRUE,1,-0.778564389105035
"CVOE_C",11,1,2,80,"E 43","","",FALSE,"CV","p",428,"cv","E",3,"v","v",TRUE,1,-0.825066156442872
"CVOE_C",11,1,2,81,"D 69","","",TRUE,"CV","q",578,"cv","D",9,"c","c",TRUE,1,-0.662850688985301
"CVOE_C",11,1,2,82,"H 11","","",TRUE,"CV","q",1333,"cv","H",1,"c","c",TRUE,1,0.153633830551141
"CVOE_C",11,1,2,83,"P 43","","",TRUE,"CV","q",696,"cv","P",3,"c","c",TRUE,1,-0.535241187918678
"CVOE_C",11,1,2,84,"O 67","","",FALSE,"CV","p",460,"cv","O",7,"v","v",TRUE,1,-0.790460190051924
"CVOE_C",11,1,2,85,"S 91","","",FALSE,"CV","q",559,"cv","S",1,"c","c",TRUE,1,-0.683397981529927
"CVOE_C",11,1,2,86,"J 68","","",TRUE,"CV","q",407,"cv","J",8,"c","c",TRUE,1,-0.847776321886932
"CVOE_C",11,1,2,87,"S 47","","",FALSE,"CV","q",367,"cv","S",7,"c","c",TRUE,1,-0.891033779875618
"CVOE_C",11,1,2,88,"I 81","","",TRUE,"CV","p",568,"cv","I",1,"v","v",TRUE,1,-0.673665053482472
"CVOE_C",11,1,2,89,"J 39","","",FALSE,"CV","q",459,"cv","J",9,"c","c",TRUE,1,-0.791541626501641
"CVOE_C",11,1,2,90,"A 11","","",TRUE,"CV","p",502,"cv","A",1,"v","v",TRUE,1,-0.745039859163804
"CVOE_C",11,1,2,91,"O 76","","",FALSE,"CV","p",436,"cv","O",6,"v","v",TRUE,1,-0.816414664845135
"CVOE_C",11,1,2,92,"A 62","","",FALSE,"CV","p",372,"cv","A",2,"v","v",TRUE,1,-0.885626597627032
"CVOE_C",11,1,2,93,"O 27","","",TRUE,"CV","p",407,"cv","O",7,"v","v",TRUE,1,-0.847776321886932
"CVOE_C",11,1,2,94,"E 66","","",FALSE,"CV","p",439,"cv","E",6,"v","v",TRUE,1,-0.813170355495984
"CVOE_C",11,1,2,95,"J 62","","",TRUE,"CV","q",536,"cv","J",2,"c","c",TRUE,1,-0.708271019873421
"CVOE_C",11,1,2,96,"H 72","","",TRUE,"CV","q",483,"cv","H",2,"c","c",TRUE,1,-0.76558715170843
"CVOE_C",11,1,2,97,"E 49","","",TRUE,"CV","p",403,"cv","E",9,"v","v",TRUE,1,-0.852102067685801
"CVOE_C",11,1,2,98,"D 52","","",TRUE,"CV","q",467,"cv","D",2,"c","c",TRUE,1,-0.782890134903904
"CVOE_C",11,1,2,99,"H 62","","",TRUE,"CV","q",809,"cv","H",2,"c","c",TRUE,1,-0.413038869100641
"CVOE_C",11,1,2,100,"I 11","","",TRUE,"CV","p",516,"cv","I",1,"v","v",TRUE,1,-0.729899748867764
"CVOE_C",11,1,2,101,"A 98","","",FALSE,"CV","p",789,"cv","A",8,"v","v",TRUE,1,-0.434667598094984
"CVOE_C",11,1,2,102,"H 29","","",FALSE,"CV","q",507,"cv","H",9,"c","c",TRUE,1,-0.739632676915218
"CVOE_C",11,1,2,103,"E 83","","",TRUE,"CV","p",400,"cv","E",3,"v","v",TRUE,1,-0.855346377034952
"CVOE_C",11,1,2,104,"D 43","","",FALSE,"CV","q",537,"cv","D",3,"c","c",TRUE,1,-0.707189583423704
"CVOE_C",11,1,2,105,"P 45","","",TRUE,"CV","q",572,"cv","P",5,"c","c",TRUE,1,-0.669339307683604
"CVOE_C",11,1,2,106,"J 17","","",TRUE,"CV","q",375,"cv","J",7,"c","c",TRUE,1,-0.882382288277881
"CVOE_C",15,1,2,11,"A 71","","",FALSE,"CV","p",1555,"cv","A",1,"v","v",TRUE,1,0.393712722388346
"CVOE_C",15,1,2,12,"I 66","","",TRUE,"CV","p",1180,"cv","I",6,"v","v",TRUE,1,-0.0118259462555818
"CVOE_C",15,1,2,13,"S 30","","",FALSE,"CV","q",442,"cv","S",0,"c","c",TRUE,1,-0.809926046146832
"CVOE_C",15,1,2,14,"D 20","","",FALSE,"CV","q",450,"cv","D",0,"c","c",TRUE,1,-0.801274554549095
"CVOE_C",15,1,2,15,"I 31","","",FALSE,"CV","p",430,"cv","I",1,"v","v",TRUE,1,-0.822903283543438
"CVOE_C",15,1,2,16,"P 16","","",FALSE,"CV","q",603,"cv","P",6,"c","c",TRUE,1,-0.635814777742372
"CVOE_C",15,1,2,17,"A 49","","",FALSE,"CV","p",500,"cv","A",9,"v","v",TRUE,1,-0.747202732063238
"CVOE_C",15,1,2,18,"O 64","","",TRUE,"CV","p",415,"cv","O",4,"v","v",TRUE,1,-0.839124830289195
"CVOE_C",15,1,2,19,"D 02","","",FALSE,"CV","q",1338,"cv","D",2,"c","c",TRUE,1,0.159041012799727
"CVOE_C",15,1,2,20,"P 81","","",TRUE,"CV","q",437,"cv","P",1,"c","c",TRUE,1,-0.815333228395418
"CVOE_C",15,1,2,21,"J 58","","",FALSE,"CV","q",429,"cv","J",8,"c","c",TRUE,1,-0.823984719993155
"CVOE_C",15,1,2,22,"A 22","","",TRUE,"CV","p",419,"cv","A",2,"v","v",TRUE,1,-0.834799084490326
"CVOE_C",15,1,2,23,"J 72","","",FALSE,"CV","q",414,"cv","J",2,"c","c",TRUE,1,-0.840206266738912
"CVOE_C",15,1,2,24,"P 91","","",TRUE,"CV","q",377,"cv","P",1,"c","c",TRUE,1,-0.880219415378447
"CVOE_C",15,1,2,25,"E 19","","",FALSE,"CV","p",404,"cv","E",9,"v","v",TRUE,1,-0.851020631236084
"CVOE_C",15,1,2,26,"I 30","","",TRUE,"CV","p",413,"cv","I",0,"v","v",TRUE,1,-0.841287703188629
"CVOE_C",15,1,2,27,"D 91","","",TRUE,"CV","q",512,"cv","D",1,"c","c",TRUE,1,-0.734225494666632
"CVOE_C",15,1,2,28,"O 48","","",TRUE,"CV","p",381,"cv","O",8,"v","v",TRUE,1,-0.875893669579578
"CVOE_C",15,1,2,29,"A 89","","",FALSE,"CV","q",339,"cv","A",9,"v","c",FALSE,0,-0.921314000467698
"CVOE_C",15,1,2,30,"U 11","","",FALSE,"CV","q",614,"cv","U",1,"v","c",FALSE,0,-0.623918976795484
"CVOE_C",15,1,2,31,"I 76","","",TRUE,"CV","p",481,"cv","I",6,"v","v",TRUE,1,-0.767750024607864
"CVOE_C",15,1,2,32,"U 89","","",FALSE,"CV","p",497,"cv","U",9,"v","v",TRUE,1,-0.750447041412389
"CVOE_C",15,1,2,33,"D 63","","",TRUE,"CV","q",628,"cv","D",3,"c","c",TRUE,1,-0.608778866499444
"CVOE_C",15,1,2,34,"H 70","","",FALSE,"CV","q",674,"cv","H",0,"c","c",TRUE,1,-0.559032789812455
"CVOE_C",15,1,2,35,"D 48","","",FALSE,"CV","q",467,"cv","D",8,"c","c",TRUE,1,-0.782890134903904
"CVOE_C",15,1,2,36,"P 56","","",FALSE,"CV","q",368,"cv","P",6,"c","c",TRUE,1,-0.889952343425901
"CVOE_C",15,1,2,37,"O 77","","",FALSE,"CV","p",379,"cv","O",7,"v","v",TRUE,1,-0.878056542479012
"CVOE_C",15,1,2,38,"P 42","","",FALSE,"CV","q",350,"cv","P",2,"c","c",TRUE,1,-0.909418199520809
"CVOE_C",15,1,2,39,"H 22","","",FALSE,"CV","q",404,"cv","H",2,"c","c",TRUE,1,-0.851020631236084
"CVOE_C",15,1,2,40,"E 42","","",TRUE,"CV","p",436,"cv","E",2,"v","v",TRUE,1,-0.816414664845135
"CVOE_C",15,1,2,41,"J 28","","",FALSE,"CV","q",405,"cv","J",8,"c","c",TRUE,1,-0.849939194786366
"CVOE_C",15,1,2,42,"E 95","","",FALSE,"CV","q",301,"cv","E",5,"v","c",FALSE,0,-0.962408585556949
"CVOE_C",15,1,2,43,"S 63","","",TRUE,"CV","q",523,"cv","S",3,"c","c",TRUE,1,-0.722329693719744
"CVOE_C",15,1,2,44,"H 50","","",FALSE,"CV","q",363,"cv","H",0,"c","c",TRUE,1,-0.895359525674486
"CVOE_C",15,1,2,45,"S 33","","",TRUE,"CV","q",467,"cv","S",3,"c","c",TRUE,1,-0.782890134903904
"CVOE_C",15,1,2,46,"P 57","","",TRUE,"CV","q",329,"cv","P",7,"c","c",TRUE,1,-0.932128364964869
"CVOE_C",15,1,2,47,"E 23","","",FALSE,"CV","p",348,"cv","E",3,"v","v",TRUE,1,-0.911581072420244
"CVOE_C",15,1,2,48,"S 61","","",TRUE,"CV","q",578,"cv","S",1,"c","c",TRUE,1,-0.662850688985301
"CVOE_C",15,1,2,49,"U 67","","",FALSE,"CV","p",669,"cv","U",7,"v","v",TRUE,1,-0.564439972061041
"CVOE_C",15,1,2,50,"H 32","","",FALSE,"CV","q",547,"cv","H",2,"c","c",TRUE,1,-0.696375218926532
"CVOE_C",15,1,2,51,"U 50","","",TRUE,"CV","p",312,"cv","U",0,"v","v",TRUE,1,-0.950512784610061
"CVOE_C",15,1,2,52,"O 49","","",FALSE,"CV","p",462,"cv","O",9,"v","v",TRUE,1,-0.788297317152489
"CVOE_C",15,1,2,53,"U 32","","",TRUE,"CV","p",388,"cv","U",2,"v","v",TRUE,1,-0.868323614431558
"CVOE_C",15,1,2,54,"J 78","","",FALSE,"CV","q",345,"cv","J",8,"c","c",TRUE,1,-0.914825381769395
"CVOE_C",15,1,2,55,"S 54","","",FALSE,"CV","q",367,"cv","S",4,"c","c",TRUE,1,-0.891033779875618
"CVOE_C",15,1,2,56,"J 27","","",TRUE,"CV","q",354,"cv","J",7,"c","c",TRUE,1,-0.905092453721941
"CVOE_C",15,1,2,57,"S 06","","",FALSE,"CV","q",1354,"cv","S",6,"c","c",TRUE,1,0.176343995995201
"CVOE_C",15,1,2,58,"D 67","","",TRUE,"CV","q",379,"cv","D",7,"c","c",TRUE,1,-0.878056542479012
"CVOE_C",15,1,2,59,"A 79","","",FALSE,"CV","p",462,"cv","A",9,"v","v",TRUE,1,-0.788297317152489
"CVOE_C",15,1,2,60,"S 52","","",FALSE,"CV","q",460,"cv","S",2,"c","c",TRUE,1,-0.790460190051924
"CVOE_C",15,1,2,61,"U 16","","",TRUE,"CV","p",431,"cv","U",6,"v","v",TRUE,1,-0.821821847093721
"CVOE_C",15,1,2,62,"O 82","","",TRUE,"CV","p",357,"cv","O",2,"v","v",TRUE,1,-0.901848144372789
"CVOE_C",15,1,2,63,"H 87","","",TRUE,"CV","q",349,"cv","H",7,"c","c",TRUE,1,-0.910499635970526
"CVOE_C",15,1,2,64,"I 32","","",TRUE,"CV","p",403,"cv","I",2,"v","v",TRUE,1,-0.852102067685801
"CVOE_C",15,1,2,65,"U 37","","",FALSE,"CV","p",803,"cv","U",7,"v","v",TRUE,1,-0.419527487798944
"CVOE_C",15,1,2,66,"I 42","","",TRUE,"CV","p",355,"cv","I",2,"v","v",TRUE,1,-0.904011017272224
"CVOE_C",15,1,2,67,"D 65","","",TRUE,"CV","q",300,"cv","D",5,"c","c",TRUE,1,-0.963490022006666
"CVOE_C",15,1,2,68,"U 77","","",FALSE,"CV","p",343,"cv","U",7,"v","v",TRUE,1,-0.916988254668829
"CVOE_C",15,1,2,69,"E 12","","",TRUE,"CV","p",396,"cv","E",2,"v","v",TRUE,1,-0.859672122833821
"CVOE_C",15,1,2,70,"I 60","","",TRUE,"CV","p",365,"cv","I",0,"v","v",TRUE,1,-0.893196652775052
"CVOE_C",15,1,2,71,"J 36","","",FALSE,"CV","p",333,"cv","J",6,"c","v",FALSE,0,-0.927802619166001
"CVOE_C",15,1,2,72,"H 75","","",TRUE,"CV","q",392,"cv","H",5,"c","c",TRUE,1,-0.863997868632689
"CVOE_C",15,1,2,73,"I 50","","",TRUE,"CV","p",366,"cv","I",0,"v","v",TRUE,1,-0.892115216325335
"CVOE_C",15,1,2,74,"E 99","","",FALSE,"CV","q",350,"cv","E",9,"v","c",FALSE,0,-0.909418199520809
"CVOE_C",15,1,2,75,"A 86","","",TRUE,"CV","q",340,"cv","A",6,"v","c",FALSE,0,-0.920232564017981
"CVOE_C",15,1,2,76,"U 48","","",TRUE,"CV","p",591,"cv","U",8,"v","v",TRUE,1,-0.648792015138978
"CVOE_C",15,1,2,77,"E 01","","",FALSE,"CV","p",405,"cv","E",1,"v","v",TRUE,1,-0.849939194786366
"CVOE_C",15,1,2,78,"A 78","","",TRUE,"CV","p",429,"cv","A",8,"v","v",TRUE,1,-0.823984719993155
"CVOE_C",15,1,2,79,"P 60","","",FALSE,"CV","q",307,"cv","P",0,"c","c",TRUE,1,-0.955919966858646
"CVOE_C",15,1,2,80,"E 43","","",FALSE,"CV","p",344,"cv","E",3,"v","v",TRUE,1,-0.915906818219112
"CVOE_C",15,1,2,81,"D 69","","",TRUE,"CV","q",278,"cv","D",9,"c","c",TRUE,1,-0.987281623900443
"CVOE_C",15,1,2,82,"H 11","","",TRUE,"CV","q",382,"cv","H",1,"c","c",TRUE,1,-0.874812233129861
"CVOE_C",15,1,2,83,"P 43","","",TRUE,"CV","q",380,"cv","P",3,"c","c",TRUE,1,-0.876975106029295
"CVOE_C",15,1,2,84,"O 67","","",FALSE,"CV","p",431,"cv","O",7,"v","v",TRUE,1,-0.821821847093721
"CVOE_C",15,1,2,85,"S 91","","",FALSE,"CV","p",357,"cv","S",1,"c","v",FALSE,0,-0.901848144372789
"CVOE_C",15,1,2,86,"J 68","","",TRUE,"CV","q",469,"cv","J",8,"c","c",TRUE,1,-0.780727262004469
"CVOE_C",15,1,2,87,"S 47","","",FALSE,"CV","q",371,"cv","S",7,"c","c",TRUE,1,-0.886708034076749
"CVOE_C",15,1,2,88,"I 81","","",TRUE,"CV","p",478,"cv","I",1,"v","v",TRUE,1,-0.770994333957015
"CVOE_C",15,1,2,89,"J 39","","",FALSE,"CV","q",462,"cv","J",9,"c","c",TRUE,1,-0.788297317152489
"CVOE_C",15,1,2,90,"A 11","","",TRUE,"CV","q",380,"cv","A",1,"v","c",FALSE,0,-0.876975106029295
"CVOE_C",15,1,2,91,"O 76","","",FALSE,"CV","p",457,"cv","O",6,"v","v",TRUE,1,-0.793704499401075
"CVOE_C",15,1,2,92,"A 62","","",FALSE,"CV","p",620,"cv","A",2,"v","v",TRUE,1,-0.617430358097181
"CVOE_C",15,1,2,93,"O 27","","",TRUE,"CV","p",354,"cv","O",7,"v","v",TRUE,1,-0.905092453721941
"CVOE_C",15,1,2,94,"E 66","","",FALSE,"CV","p",411,"cv","E",6,"v","v",TRUE,1,-0.843450576088064
"CVOE_C",15,1,2,95,"J 62","","",TRUE,"CV","q",494,"cv","J",2,"c","c",TRUE,1,-0.753691350761541
"CVOE_C",15,1,2,96,"H 72","","",TRUE,"CV","q",521,"cv","H",2,"c","c",TRUE,1,-0.724492566619178
"CVOE_C",15,1,2,97,"E 49","","",TRUE,"CV","p",361,"cv","E",9,"v","v",TRUE,1,-0.897522398573921
"CVOE_C",15,1,2,98,"D 52","","",TRUE,"CV","q",329,"cv","D",2,"c","c",TRUE,1,-0.932128364964869
"CVOE_C",15,1,2,99,"H 62","","",TRUE,"CV","q",396,"cv","H",2,"c","c",TRUE,1,-0.859672122833821
"CVOE_C",15,1,2,100,"I 11","","",TRUE,"CV","p",397,"cv","I",1,"v","v",TRUE,1,-0.858590686384104
"CVOE_C",15,1,2,101,"A 98","","",FALSE,"CV","p",501,"cv","A",8,"v","v",TRUE,1,-0.746121295613521
"CVOE_C",15,1,2,102,"H 29","","",FALSE,"CV","p",363,"cv","H",9,"c","v",FALSE,0,-0.895359525674486
"CVOE_C",15,1,2,103,"E 83","","",TRUE,"CV","q",299,"cv","E",3,"v","c",FALSE,0,-0.964571458456383
"CVOE_C",15,1,2,104,"D 43","","",FALSE,"CV","q",518,"cv","D",3,"c","c",TRUE,1,-0.727736875968329
"CVOE_C",15,1,2,105,"P 45","","",TRUE,"CV","q",430,"cv","P",5,"c","c",TRUE,1,-0.822903283543438
"CVOE_C",15,1,2,106,"J 17","","",TRUE,"CV","q",316,"cv","J",7,"c","c",TRUE,1,-0.946187038811192
"CVOE_C",7,1,2,11,"A 71","","",FALSE,"CV","p",3005,"cv","A",1,"v","v",TRUE,1,1.9617955744782
"CVOE_C",7,1,2,12,"I 66","","",TRUE,"CV","p",830,"cv","I",6,"v","v",TRUE,1,-0.390328703656581
"CVOE_C",7,1,2,13,"S 30","","",FALSE,"CV","q",668,"cv","S",0,"c","c",TRUE,1,-0.565521408510758
"CVOE_C",7,1,2,14,"D 20","","",FALSE,"CV","q",754,"cv","D",0,"c","c",TRUE,1,-0.472517873835084
"CVOE_C",7,1,2,15,"I 31","","",FALSE,"CV","p",874,"cv","I",1,"v","v",TRUE,1,-0.342745499869027
"CVOE_C",7,1,2,16,"P 16","","",FALSE,"CV","q",859,"cv","P",6,"c","c",TRUE,1,-0.358967046614784
"CVOE_C",7,1,2,17,"A 49","","",FALSE,"CV","p",902,"cv","A",9,"v","v",TRUE,1,-0.312465279276947
"CVOE_C",7,1,2,18,"O 64","","",TRUE,"CV","p",1076,"cv","O",4,"v","v",TRUE,1,-0.124295337026165
"CVOE_C",7,1,2,19,"D 02","","",FALSE,"CV","q",581,"cv","D",2,"c","c",TRUE,1,-0.65960637963615
"CVOE_C",7,1,2,20,"P 81","","",TRUE,"CV","q",1338,"cv","P",1,"c","c",TRUE,1,0.159041012799727
"CVOE_C",7,1,2,21,"J 58","","",FALSE,"CV","q",646,"cv","J",8,"c","c",TRUE,1,-0.589313010404535
"CVOE_C",7,1,2,22,"A 22","","",TRUE,"CV","p",606,"cv","A",2,"v","v",TRUE,1,-0.632570468393221
"CVOE_C",7,1,2,23,"J 72","","",FALSE,"CV","q",601,"cv","J",2,"c","c",TRUE,1,-0.637977650641807
"CVOE_C",7,1,2,24,"P 91","","",TRUE,"CV","q",986,"cv","P",1,"c","c",TRUE,1,-0.221624617500707
"CVOE_C",7,1,2,25,"E 19","","",FALSE,"CV","p",1024,"cv","E",9,"v","v",TRUE,1,-0.180530032411456
"CVOE_C",7,1,2,26,"I 30","","",TRUE,"CV","p",694,"cv","I",0,"v","v",TRUE,1,-0.537404060818113
"CVOE_C",7,1,2,27,"D 91","","",TRUE,"CV","q",697,"cv","D",1,"c","c",TRUE,1,-0.534159751468961
"CVOE_C",7,1,2,28,"O 48","","",TRUE,"CV","p",636,"cv","O",8,"v","v",TRUE,1,-0.600127374901707
"CVOE_C",7,1,2,29,"A 89","","",FALSE,"CV","p",764,"cv","A",9,"v","v",TRUE,1,-0.461703509337913
"CVOE_C",7,1,2,30,"U 11","","",FALSE,"CV","p",789,"cv","U",1,"v","v",TRUE,1,-0.434667598094984
"CVOE_C",7,1,2,31,"I 76","","",TRUE,"CV","p",787,"cv","I",6,"v","v",TRUE,1,-0.436830470994418
"CVOE_C",7,1,2,32,"U 89","","",FALSE,"CV","p",672,"cv","U",9,"v","v",TRUE,1,-0.56119566271189
"CVOE_C",7,1,2,33,"D 63","","",TRUE,"CV","q",614,"cv","D",3,"c","c",TRUE,1,-0.623918976795484
"CVOE_C",7,1,2,34,"H 70","","",FALSE,"CV","q",857,"cv","H",0,"c","c",TRUE,1,-0.361129919514219
"CVOE_C",7,1,2,35,"D 48","","",FALSE,"CV","q",597,"cv","D",8,"c","c",TRUE,1,-0.642303396440675
"CVOE_C",7,1,2,36,"P 56","","",FALSE,"CV","q",861,"cv","P",6,"c","c",TRUE,1,-0.35680417371535
"CVOE_C",7,1,2,37,"O 77","","",FALSE,"CV","p",699,"cv","O",7,"v","v",TRUE,1,-0.531996878569527
"CVOE_C",7,1,2,38,"P 42","","",FALSE,"CV","q",598,"cv","P",2,"c","c",TRUE,1,-0.641221959990958
"CVOE_C",7,1,2,39,"H 22","","",FALSE,"CV","q",1014,"cv","H",2,"c","c",TRUE,1,-0.191344396908627
"CVOE_C",7,1,2,40,"E 42","","",TRUE,"CV","p",954,"cv","E",2,"v","v",TRUE,1,-0.256230583891656
"CVOE_C",7,1,2,41,"J 28","","",FALSE,"CV","q",1394,"cv","J",8,"c","c",TRUE,1,0.219601453983886
"CVOE_C",7,1,2,42,"E 95","","",FALSE,"CV","p",595,"cv","E",5,"v","v",TRUE,1,-0.64446626934011
"CVOE_C",7,1,2,43,"S 63","","",TRUE,"CV","q",587,"cv","S",3,"c","c",TRUE,1,-0.653117760937847
"CVOE_C",7,1,2,44,"H 50","","",FALSE,"CV","q",1201,"cv","H",0,"c","c",TRUE,1,0.0108842191884781
"CVOE_C",7,1,2,45,"S 33","","",TRUE,"CV","q",642,"cv","S",3,"c","c",TRUE,1,-0.593638756203404
"CVOE_C",7,1,2,46,"P 57","","",TRUE,"CV","q",1034,"cv","P",7,"c","c",TRUE,1,-0.169715667914284
"CVOE_C",7,1,2,47,"E 23","","",FALSE,"CV","p",923,"cv","E",3,"v","v",TRUE,1,-0.289755113832887
"CVOE_C",7,1,2,48,"S 61","","",TRUE,"CV","q",587,"cv","S",1,"c","c",TRUE,1,-0.653117760937847
"CVOE_C",7,1,2,49,"U 67","","",FALSE,"CV","p",697,"cv","U",7,"v","v",TRUE,1,-0.534159751468961
"CVOE_C",7,1,2,50,"H 32","","",FALSE,"CV","q",516,"cv","H",2,"c","c",TRUE,1,-0.729899748867764
"CVOE_C",7,1,2,51,"U 50","","",TRUE,"CV","p",653,"cv","U",0,"v","v",TRUE,1,-0.581742955256515
"CVOE_C",7,1,2,52,"O 49","","",FALSE,"CV","p",776,"cv","O",9,"v","v",TRUE,1,-0.448726271941307
"CVOE_C",7,1,2,53,"U 32","","",TRUE,"CV","p",675,"cv","U",2,"v","v",TRUE,1,-0.557951353362738
"CVOE_C",7,1,2,54,"J 78","","",FALSE,"CV","q",539,"cv","J",8,"c","c",TRUE,1,-0.70502671052427
"CVOE_C",7,1,2,55,"S 54","","",FALSE,"CV","q",942,"cv","S",4,"c","c",TRUE,1,-0.269207821288261
"CVOE_C",7,1,2,56,"J 27","","",TRUE,"CV","q",572,"cv","J",7,"c","c",TRUE,1,-0.669339307683604
"CVOE_C",7,1,2,57,"S 06","","",FALSE,"CV","q",647,"cv","S",6,"c","c",TRUE,1,-0.588231573954818
"CVOE_C",7,1,2,58,"D 67","","",TRUE,"CV","q",691,"cv","D",7,"c","c",TRUE,1,-0.540648370167264
"CVOE_C",7,1,2,59,"A 79","","",FALSE,"CV","p",598,"cv","A",9,"v","v",TRUE,1,-0.641221959990958
"CVOE_C",7,1,2,60,"S 52","","",FALSE,"CV","q",494,"cv","S",2,"c","c",TRUE,1,-0.753691350761541
"CVOE_C",7,1,2,61,"U 16","","",TRUE,"CV","p",465,"cv","U",6,"v","v",TRUE,1,-0.785053007803338
"CVOE_C",7,1,2,62,"O 82","","",TRUE,"CV","p",511,"cv","O",2,"v","v",TRUE,1,-0.735306931116349
"CVOE_C",7,1,2,63,"H 87","","",TRUE,"CV","q",573,"cv","H",7,"c","c",TRUE,1,-0.668257871233887
"CVOE_C",7,1,2,64,"I 32","","",TRUE,"CV","p",592,"cv","I",2,"v","v",TRUE,1,-0.647710578689261
"CVOE_C",7,1,2,65,"U 37","","",FALSE,"CV","p",549,"cv","U",7,"v","v",TRUE,1,-0.694212346027098
"CVOE_C",7,1,2,66,"I 42","","",TRUE,"CV","p",515,"cv","I",2,"v","v",TRUE,1,-0.730981185317481
"CVOE_C",7,1,2,67,"D 65","","",TRUE,"CV","q",652,"cv","D",5,"c","c",TRUE,1,-0.582824391706233
"CVOE_C",7,1,2,68,"U 77","","",FALSE,"CV","p",599,"cv","U",7,"v","v",TRUE,1,-0.640140523541241
"CVOE_C",7,1,2,69,"E 12","","",TRUE,"CV","p",999,"cv","E",2,"v","v",TRUE,1,-0.207565943654384
"CVOE_C",7,1,2,70,"I 60","","",TRUE,"CV","p",784,"cv","I",0,"v","v",TRUE,1,-0.44007478034357
"CVOE_C",7,1,2,71,"J 36","","",FALSE,"CV","q",582,"cv","J",6,"c","c",TRUE,1,-0.658524943186432
"CVOE_C",7,1,2,72,"H 75","","",TRUE,"CV","q",579,"cv","H",5,"c","c",TRUE,1,-0.661769252535584
"CVOE_C",7,1,2,73,"I 50","","",TRUE,"CV","p",1022,"cv","I",0,"v","v",TRUE,1,-0.18269290531089
"CVOE_C",7,1,2,74,"E 99","","",FALSE,"CV","p",956,"cv","E",9,"v","v",TRUE,1,-0.254067710992222
"CVOE_C",7,1,2,75,"A 86","","",TRUE,"CV","p",805,"cv","A",6,"v","v",TRUE,1,-0.41736461489951
"CVOE_C",7,1,2,76,"U 48","","",TRUE,"CV","p",1085,"cv","U",8,"v","v",TRUE,1,-0.11456240897871
"CVOE_C",7,1,2,77,"E 01","","",FALSE,"CV","p",574,"cv","E",1,"v","v",TRUE,1,-0.66717643478417
"CVOE_C",7,1,2,78,"A 78","","",TRUE,"CV","p",497,"cv","A",8,"v","v",TRUE,1,-0.750447041412389
"CVOE_C",7,1,2,79,"P 60","","",FALSE,"CV","q",548,"cv","P",0,"c","c",TRUE,1,-0.695293782476815
"CVOE_C",7,1,2,80,"E 43","","",FALSE,"CV","p",562,"cv","E",3,"v","v",TRUE,1,-0.680153672180775
"CVOE_C",7,1,2,81,"D 69","","",TRUE,"CV","q",570,"cv","D",9,"c","c",TRUE,1,-0.671502180583038
"CVOE_C",7,1,2,82,"H 11","","",TRUE,"CV","q",981,"cv","H",1,"c","c",TRUE,1,-0.227031799749293
"CVOE_C",7,1,2,83,"P 43","","",TRUE,"CV","q",1235,"cv","P",3,"c","c",TRUE,1,0.047653058478861
"CVOE_C",7,1,2,84,"O 67","","",FALSE,"CV","p",628,"cv","O",7,"v","v",TRUE,1,-0.608778866499444
"CVOE_C",7,1,2,85,"S 91","","",FALSE,"CV","q",922,"cv","S",1,"c","c",TRUE,1,-0.290836550282604
"CVOE_C",7,1,2,86,"J 68","","",TRUE,"CV","q",1162,"cv","J",8,"c","c",TRUE,1,-0.0312918023504904
"CVOE_C",7,1,2,87,"S 47","","",FALSE,"CV","q",467,"cv","S",7,"c","c",TRUE,1,-0.782890134903904
"CVOE_C",7,1,2,88,"I 81","","",TRUE,"CV","p",721,"cv","I",1,"v","v",TRUE,1,-0.50820527667575
"CVOE_C",7,1,2,89,"J 39","","",FALSE,"CV","q",537,"cv","J",9,"c","c",TRUE,1,-0.707189583423704
"CVOE_C",7,1,2,90,"A 11","","",TRUE,"CV","p",556,"cv","A",1,"v","v",TRUE,1,-0.686642290879078
"CVOE_C",7,1,2,91,"O 76","","",FALSE,"CV","p",445,"cv","O",6,"v","v",TRUE,1,-0.806681736797681
"CVOE_C",7,1,2,92,"A 62","","",FALSE,"CV","p",573,"cv","A",2,"v","v",TRUE,1,-0.668257871233887
"CVOE_C",7,1,2,93,"O 27","","",TRUE,"CV","p",800,"cv","O",7,"v","v",TRUE,1,-0.422771797148096
"CVOE_C",7,1,2,94,"E 66","","",FALSE,"CV","p",832,"cv","E",6,"v","v",TRUE,1,-0.388165830757147
"CVOE_C",7,1,2,95,"J 62","","",TRUE,"CV","q",494,"cv","J",2,"c","c",TRUE,1,-0.753691350761541
"CVOE_C",7,1,2,96,"H 72","","",TRUE,"CV","q",441,"cv","H",2,"c","c",TRUE,1,-0.811007482596549
"CVOE_C",7,1,2,97,"E 49","","",TRUE,"CV","p",602,"cv","E",9,"v","v",TRUE,1,-0.63689621419209
"CVOE_C",7,1,2,98,"D 52","","",TRUE,"CV","q",682,"cv","D",2,"c","c",TRUE,1,-0.550381298214718
"CVOE_C",7,1,2,99,"H 62","","",TRUE,"CV","q",579,"cv","H",2,"c","c",TRUE,1,-0.661769252535584
"CVOE_C",7,1,2,100,"I 11","","",TRUE,"CV","p",494,"cv","I",1,"v","v",TRUE,1,-0.753691350761541
"CVOE_C",7,1,2,101,"A 98","","",FALSE,"CV","p",825,"cv","A",8,"v","v",TRUE,1,-0.395735885905167
"CVOE_C",7,1,2,102,"H 29","","",FALSE,"CV","q",687,"cv","H",9,"c","c",TRUE,1,-0.544974115966133
"CVOE_C",7,1,2,103,"E 83","","",TRUE,"CV","p",554,"cv","E",3,"v","v",TRUE,1,-0.688805163778512
"CVOE_C",7,1,2,104,"D 43","","",FALSE,"CV","q",562,"cv","D",3,"c","c",TRUE,1,-0.680153672180775
"CVOE_C",7,1,2,105,"P 45","","",TRUE,"CV","q",491,"cv","P",5,"c","c",TRUE,1,-0.756935660110692
"CVOE_C",7,1,2,106,"J 17","","",TRUE,"CV","q",518,"cv","J",7,"c","c",TRUE,1,-0.727736875968329
"CVOE_D",4,1,1,11,"A 71","","",FALSE,"CV","p",1212,"cv","A",1,"v","v",TRUE,1,0.0227800201353667
"CVOE_D",4,1,1,12,"I 66","","",TRUE,"CV","p",840,"cv","I",6,"v","v",TRUE,1,-0.37951433915941
"CVOE_D",4,1,1,13,"S 30","","",FALSE,"CV","q",728,"cv","S",0,"c","c",TRUE,1,-0.50063522152773
"CVOE_D",4,1,1,14,"D 20","","",FALSE,"CV","q",1075,"cv","D",0,"c","c",TRUE,1,-0.125376773475882
"CVOE_D",4,1,1,15,"I 31","","",FALSE,"CV","p",708,"cv","I",1,"v","v",TRUE,1,-0.522263950522073
"CVOE_D",4,1,1,16,"P 16","","",FALSE,"CV","q",802,"cv","P",6,"c","c",TRUE,1,-0.420608924248661
"CVOE_D",4,1,1,17,"A 49","","",FALSE,"CV","p",706,"cv","A",9,"v","v",TRUE,1,-0.524426823421507
"CVOE_D",4,1,1,18,"O 64","","",TRUE,"CV","p",776,"cv","O",4,"v","v",TRUE,1,-0.448726271941307
"CVOE_D",4,1,1,19,"D 02","","",FALSE,"CV","q",851,"cv","D",2,"c","c",TRUE,1,-0.367618538212521
"CVOE_D",4,1,1,20,"P 81","","",TRUE,"CV","q",1006,"cv","P",1,"c","c",TRUE,1,-0.199995888506364
"CVOE_D",4,1,1,21,"J 58","","",FALSE,"CV","q",687,"cv","J",8,"c","c",TRUE,1,-0.544974115966133
"CVOE_D",4,1,1,22,"A 22","","",TRUE,"CV","p",959,"cv","A",2,"v","v",TRUE,1,-0.25082340164307
"CVOE_D",4,1,1,23,"J 72","","",FALSE,"CV","q",1439,"cv","J",2,"c","c",TRUE,1,0.268266094221158
"CVOE_D",4,1,1,24,"P 91","","",TRUE,"CV","q",889,"cv","P",1,"c","c",TRUE,1,-0.32652395312327
"CVOE_D",4,1,1,25,"E 19","","",FALSE,"CV","p",860,"cv","E",9,"v","v",TRUE,1,-0.357885610165067
"CVOE_D",4,1,1,26,"I 30","","",TRUE,"CV","p",743,"cv","I",0,"v","v",TRUE,1,-0.484413674781973
"CVOE_D",4,1,1,27,"D 91","","",TRUE,"CV","q",1597,"cv","D",1,"c","c",TRUE,1,0.439133053276466
"CVOE_D",4,1,1,28,"O 48","","",TRUE,"CV","p",3798,"cv","O",8,"v","v",TRUE,1,2.81937467910389
"CVOE_D",4,1,1,29,"A 89","","",FALSE,"CV","p",663,"cv","A",9,"v","v",TRUE,1,-0.570928590759344
"CVOE_D",4,1,1,30,"U 11","","",FALSE,"CV","p",1909,"cv","U",1,"v","v",TRUE,1,0.776541225588214
"CVOE_D",4,1,1,31,"I 76","","",TRUE,"CV","p",651,"cv","I",6,"v","v",TRUE,1,-0.58390582815595
"CVOE_D",4,1,1,32,"U 89","","",FALSE,"CV","p",950,"cv","U",9,"v","v",TRUE,1,-0.260556329690524
"CVOE_D",4,1,1,33,"D 63","","",TRUE,"CV","q",1036,"cv","D",3,"c","c",TRUE,1,-0.16755279501485
"CVOE_D",4,1,1,34,"H 70","","",FALSE,"CV","q",1157,"cv","H",0,"c","c",TRUE,1,-0.0366989845990761
"CVOE_D",4,1,1,35,"D 48","","",FALSE,"CV","q",734,"cv","D",8,"c","c",TRUE,1,-0.494146602829427
"CVOE_D",4,1,1,36,"P 56","","",FALSE,"CV","q",689,"cv","P",6,"c","c",TRUE,1,-0.542811243066698
"CVOE_D",4,1,1,37,"O 77","","",FALSE,"CV","p",924,"cv","O",7,"v","v",TRUE,1,-0.28867367738317
"CVOE_D",4,1,1,38,"P 42","","",FALSE,"CV","q",756,"cv","P",2,"c","c",TRUE,1,-0.47035500093565
"CVOE_D",4,1,1,39,"H 22","","",FALSE,"CV","q",1901,"cv","H",2,"c","c",TRUE,1,0.767889733990477
"CVOE_D",4,1,1,40,"E 42","","",TRUE,"CV","p",667,"cv","E",2,"v","v",TRUE,1,-0.566602844960475
"CVOE_D",4,1,1,41,"J 28","","",FALSE,"CV","q",897,"cv","J",8,"c","c",TRUE,1,-0.317872461525533
"CVOE_D",4,1,1,42,"E 95","","",FALSE,"CV","p",908,"cv","E",5,"v","v",TRUE,1,-0.305976660578644
"CVOE_D",4,1,1,43,"S 63","","",TRUE,"CV","q",738,"cv","S",3,"c","c",TRUE,1,-0.489820857030558
"CVOE_D",4,1,1,44,"H 50","","",FALSE,"CV","q",1133,"cv","H",0,"c","c",TRUE,1,-0.0626534593922875
"CVOE_D",4,1,1,45,"S 33","","",TRUE,"CV","q",712,"cv","S",3,"c","c",TRUE,1,-0.517938204723204
"CVOE_D",4,1,1,46,"P 57","","",TRUE,"CV","q",926,"cv","P",7,"c","c",TRUE,1,-0.286510804483736
"CVOE_D",4,1,1,47,"E 23","","",FALSE,"CV","p",1031,"cv","E",3,"v","v",TRUE,1,-0.172959977263436
"CVOE_D",4,1,1,48,"S 61","","",TRUE,"CV","q",677,"cv","S",1,"c","c",TRUE,1,-0.555788480463304
"CVOE_D",4,1,1,49,"U 67","","",FALSE,"CV","p",805,"cv","U",7,"v","v",TRUE,1,-0.41736461489951
"CVOE_D",4,1,1,50,"H 32","","",FALSE,"CV","q",1102,"cv","H",2,"c","c",TRUE,1,-0.0961779893335189
"CVOE_D",4,1,1,51,"U 50","","",TRUE,"CV","p",836,"cv","U",0,"v","v",TRUE,1,-0.383840084958278
"CVOE_D",4,1,1,52,"O 49","","",FALSE,"CV","p",820,"cv","O",9,"v","v",TRUE,1,-0.401143068153753
"CVOE_D",4,1,1,53,"U 32","","",TRUE,"CV","p",711,"cv","U",2,"v","v",TRUE,1,-0.519019641172921
"CVOE_D",4,1,1,54,"J 78","","",FALSE,"CV","q",749,"cv","J",8,"c","c",TRUE,1,-0.47792505608367
"CVOE_D",4,1,1,55,"S 54","","",FALSE,"CV","q",723,"cv","S",4,"c","c",TRUE,1,-0.506042403776315
"CVOE_D",4,1,1,56,"J 27","","",TRUE,"CV","q",707,"cv","J",7,"c","c",TRUE,1,-0.52334538697179
"CVOE_D",4,1,1,57,"S 06","","",FALSE,"CV","q",569,"cv","S",6,"c","c",TRUE,1,-0.672583617032755
"CVOE_D",4,1,1,58,"D 67","","",TRUE,"CV","q",1188,"cv","D",7,"c","c",TRUE,1,-0.00317445465784469
"CVOE_D",4,1,1,59,"A 79","","",FALSE,"CV","p",642,"cv","A",9,"v","v",TRUE,1,-0.593638756203404
"CVOE_D",4,1,1,60,"S 52","","",FALSE,"CV","q",819,"cv","S",2,"c","c",TRUE,1,-0.40222450460347
"CVOE_D",4,1,1,61,"U 16","","",TRUE,"CV","p",709,"cv","U",6,"v","v",TRUE,1,-0.521182514072355
"CVOE_D",4,1,1,62,"O 82","","",TRUE,"CV","p",756,"cv","O",2,"v","v",TRUE,1,-0.47035500093565
"CVOE_D",4,1,1,63,"H 87","","",TRUE,"CV","q",788,"cv","H",7,"c","c",TRUE,1,-0.435749034544701
"CVOE_D",4,1,1,64,"I 32","","",TRUE,"CV","p",778,"cv","I",2,"v","v",TRUE,1,-0.446563399041873
"CVOE_D",4,1,1,65,"U 37","","",FALSE,"CV","p",1237,"cv","U",7,"v","v",TRUE,1,0.0498159313782952
"CVOE_D",4,1,1,66,"I 42","","",TRUE,"CV","p",750,"cv","I",2,"v","v",TRUE,1,-0.476843619633953
"CVOE_D",4,1,1,67,"D 65","","",TRUE,"CV","q",628,"cv","D",5,"c","c",TRUE,1,-0.608778866499444
"CVOE_D",4,1,1,68,"U 77","","",FALSE,"CV","p",785,"cv","U",7,"v","v",TRUE,1,-0.438993343893853
"CVOE_D",4,1,1,69,"E 12","","",TRUE,"CV","p",1191,"cv","E",2,"v","v",TRUE,1,6.98546913067338e-05
"CVOE_D",4,1,1,70,"I 60","","",TRUE,"CV","p",781,"cv","I",0,"v","v",TRUE,1,-0.443319089692721
"CVOE_D",4,1,1,71,"J 36","","",FALSE,"CV","q",699,"cv","J",6,"c","c",TRUE,1,-0.531996878569527
"CVOE_D",4,1,1,72,"H 75","","",TRUE,"CV","q",598,"cv","H",5,"c","c",TRUE,1,-0.641221959990958
"CVOE_D",4,1,1,73,"I 50","","",TRUE,"CV","p",759,"cv","I",0,"v","v",TRUE,1,-0.467110691586498
"CVOE_D",4,1,1,74,"E 99","","",FALSE,"CV","p",1423,"cv","E",9,"v","v",TRUE,1,0.250963111025684
"CVOE_D",4,1,1,75,"A 86","","",TRUE,"CV","p",669,"cv","A",6,"v","v",TRUE,1,-0.564439972061041
"CVOE_D",4,1,1,76,"U 48","","",TRUE,"CV","p",771,"cv","U",8,"v","v",TRUE,1,-0.454133454189893
"CVOE_D",4,1,1,77,"E 01","","",FALSE,"CV","p",694,"cv","E",1,"v","v",TRUE,1,-0.537404060818113
"CVOE_D",4,1,1,78,"A 78","","",TRUE,"CV","p",721,"cv","A",8,"v","v",TRUE,1,-0.50820527667575
"CVOE_D",4,1,1,79,"P 60","","",FALSE,"CV","q",698,"cv","P",0,"c","c",TRUE,1,-0.533078315019244
"CVOE_D",4,1,1,80,"E 43","","",FALSE,"CV","p",693,"cv","E",3,"v","v",TRUE,1,-0.53848549726783
"CVOE_D",4,1,1,81,"D 69","","",TRUE,"CV","q",768,"cv","D",9,"c","c",TRUE,1,-0.457377763539044
"CVOE_D",4,1,1,82,"H 11","","",TRUE,"CV","q",603,"cv","H",1,"c","c",TRUE,1,-0.635814777742372
"CVOE_D",4,1,1,83,"P 43","","",TRUE,"CV","q",820,"cv","P",3,"c","c",TRUE,1,-0.401143068153753
"CVOE_D",4,1,1,84,"O 67","","",FALSE,"CV","p",719,"cv","O",7,"v","v",TRUE,1,-0.510368149575184
"CVOE_D",4,1,1,85,"S 91","","",FALSE,"CV","q",743,"cv","S",1,"c","c",TRUE,1,-0.484413674781973
"CVOE_D",4,1,1,86,"J 68","","",TRUE,"CV","q",693,"cv","J",8,"c","c",TRUE,1,-0.53848549726783
