"ExperimentName","Subject","Group","Block","Trial","STIM","TASK","Switch","Congruent","CVOE","Response","RT","block_type","letter","number","key2","response2","match2","score2","zRT"
"CVOE updated",5,1,1,11,"A 71","","",FALSE,"CV","p",2144,"cv","A",1,"v","v",TRUE,1,1.80319412035787
"CVOE updated",5,1,1,12,"I 66","","",TRUE,"CV","q",783,"cv","I",6,"v","c",FALSE,0,-0.416656107559973
"CVOE updated",5,1,1,13,"S 30","","",FALSE,"CV","q",636,"cv","S",0,"c","c",TRUE,1,-0.656419504697316
"CVOE updated",5,1,1,14,"D 20","","",FALSE,"CV","q",1261,"cv","D",0,"c","c",TRUE,1,0.362982694015875
"CVOE updated",5,1,1,15,"I 31","","",FALSE,"CV","p",611,"cv","I",1,"v","v",TRUE,1,-0.697195592645843
"CVOE updated",5,1,1,16,"P 16","","",FALSE,"CV","q",574,"cv","P",6,"c","c",TRUE,1,-0.757544202809664
"CVOE updated",5,1,1,17,"A 49","","",FALSE,"CV","p",777,"cv","A",9,"v","v",TRUE,1,-0.42644236866762
"CVOE updated",5,1,1,18,"O 64","","",TRUE,"CV","p",420,"cv","O",4,"v","v",TRUE,1,-1.00872490457259
"CVOE updated",5,1,1,19,"D 02","","",FALSE,"CV","q",466,"cv","D",2,"c","c",TRUE,1,-0.933696902747304
"CVOE updated",5,1,1,20,"P 81","","",TRUE,"CV","q",904,"cv","P",1,"c","c",TRUE,1,-0.2192998418891
"CVOE updated",5,1,1,21,"J 58","","",FALSE,"CV","q",693,"cv","J",8,"c","c",TRUE,1,-0.563450024174673
"CVOE updated",5,1,1,22,"A 22","","",TRUE,"CV","p",633,"cv","A",2,"v","v",TRUE,1,-0.661312635251139
"CVOE updated",5,1,1,23,"J 72","","",FALSE,"CV","q",582,"cv","J",2,"c","c",TRUE,1,-0.744495854666135
"CVOE updated",5,1,1,24,"P 91","","",TRUE,"CV","q",868,"cv","P",1,"c","c",TRUE,1,-0.27801740853498
"CVOE updated",5,1,1,25,"E 19","","",FALSE,"CV","p",642,"cv","E",9,"v","v",TRUE,1,-0.646633243589669
"CVOE updated",5,1,1,26,"I 30","","",TRUE,"CV","q",602,"cv","I",0,"v","c",FALSE,0,-0.711874984307313
"CVOE updated",5,1,1,27,"D 91","","",TRUE,"CV","q",587,"cv","D",1,"c","c",TRUE,1,-0.73634063707643
"CVOE updated",5,1,1,28,"O 48","","",TRUE,"CV","p",441,"cv","O",8,"v","v",TRUE,1,-0.974472990695831
"CVOE updated",5,1,1,29,"A 89","","",FALSE,"CV","p",921,"cv","A",9,"v","v",TRUE,1,-0.191572102084101
"CVOE updated",5,1,1,30,"U 11","","",FALSE,"CV","p",826,"cv","U",1,"v","v",TRUE,1,-0.346521236288506
"CVOE updated",5,1,1,31,"I 76","","",TRUE,"CV","q",1015,"cv","I",6,"v","c",FALSE,0,-0.0382540113976372
"CVOE updated",5,1,1,32,"U 89","","",FALSE,"CV","p",827,"cv","U",9,"v","v",TRUE,1,-0.344890192770565
"CVOE updated",5,1,1,33,"D 63","","",TRUE,"CV","q",960,"cv","D",3,"c","c",TRUE,1,-0.127961404884398
"CVOE updated",5,1,1,34,"H 70","","",FALSE,"CV","q",689,"cv","H",0,"c","c",TRUE,1,-0.569974198246437
"CVOE updated",5,1,1,35,"D 48","","",FALSE,"CV","q",732,"cv","D",8,"c","c",TRUE,1,-0.49983932697497
"CVOE updated",5,1,1,36,"P 56","","",FALSE,"CV","q",895,"cv","P",6,"c","c",TRUE,1,-0.23397923355057
"CVOE updated",5,1,1,37,"O 77","","",FALSE,"CV","p",658,"cv","O",7,"v","v",TRUE,1,-0.620536547302612
"CVOE updated",5,1,1,38,"P 42","","",FALSE,"CV","q",766,"cv","P",2,"c","c",TRUE,1,-0.444383847364972
"CVOE updated",5,1,1,39,"H 22","","",FALSE,"CV","q",870,"cv","H",2,"c","c",TRUE,1,-0.274755321499097
"CVOE updated",5,1,1,40,"E 42","","",TRUE,"CV","p",716,"cv","E",2,"v","v",TRUE,1,-0.525936023262027
"CVOE updated",5,1,1,41,"J 28","","",FALSE,"CV","q",588,"cv","J",8,"c","c",TRUE,1,-0.734709593558489
"CVOE updated",5,1,1,42,"E 95","","",FALSE,"CV","p",506,"cv","E",5,"v","v",TRUE,1,-0.868455162029659
"CVOE updated",5,1,1,43,"S 63","","",TRUE,"CV","q",640,"cv","S",3,"c","c",TRUE,1,-0.649895330625551
"CVOE updated",5,1,1,44,"H 50","","",FALSE,"CV","q",1032,"cv","H",0,"c","c",TRUE,1,-0.0105262715926384
"CVOE updated",5,1,1,45,"S 33","","",TRUE,"CV","q",470,"cv","S",3,"c","c",TRUE,1,-0.927172728675539
"CVOE updated",5,1,1,46,"P 57","","",TRUE,"CV","q",836,"cv","P",7,"c","c",TRUE,1,-0.330210801109095
"CVOE updated",5,1,1,47,"E 23","","",FALSE,"CV","p",828,"cv","E",3,"v","v",TRUE,1,-0.343259149252624
"CVOE updated",5,1,1,48,"S 61","","",TRUE,"CV","q",1066,"cv","S",1,"c","c",TRUE,1,0.0449292080173591
"CVOE updated",5,1,1,49,"U 67","","",FALSE,"CV","p",528,"cv","U",7,"v","v",TRUE,1,-0.832572204634955
"CVOE updated",5,1,1,50,"H 32","","",FALSE,"CV","q",547,"cv","H",2,"c","c",TRUE,1,-0.801582377794074
"CVOE updated",5,1,1,51,"U 50","","",TRUE,"CV","p",609,"cv","U",0,"v","v",TRUE,1,-0.700457679681726
"CVOE updated",5,1,1,52,"O 49","","",FALSE,"CV","p",452,"cv","O",9,"v","v",TRUE,1,-0.956531511998479
"CVOE updated",5,1,1,53,"U 32","","",TRUE,"CV","p",479,"cv","U",2,"v","v",TRUE,1,-0.912493337014069
"CVOE updated",5,1,1,54,"J 78","","",FALSE,"CV","q",560,"cv","J",8,"c","c",TRUE,1,-0.78037881206084
"CVOE updated",5,1,1,55,"S 54","","",FALSE,"CV","q",504,"cv","S",4,"c","c",TRUE,1,-0.871717249065542
"CVOE updated",5,1,1,56,"J 27","","",TRUE,"CV","q",638,"cv","J",7,"c","c",TRUE,1,-0.653157417661434
"CVOE updated",5,1,1,57,"S 06","","",FALSE,"CV","q",470,"cv","S",6,"c","c",TRUE,1,-0.927172728675539
"CVOE updated",5,1,1,58,"D 67","","",TRUE,"CV","q",644,"cv","D",7,"c","c",TRUE,1,-0.643371156553787
"CVOE updated",5,1,1,59,"A 79","","",FALSE,"CV","p",580,"cv","A",9,"v","v",TRUE,1,-0.747757941702018
"CVOE updated",5,1,1,60,"S 52","","",FALSE,"CV","q",466,"cv","S",2,"c","c",TRUE,1,-0.933696902747304
"CVOE updated",5,1,1,61,"U 16","","",TRUE,"CV","p",912,"cv","U",6,"v","v",TRUE,1,-0.206251493745571
"CVOE updated",5,1,1,62,"O 82","","",TRUE,"CV","p",670,"cv","O",2,"v","v",TRUE,1,-0.600964025087318
"CVOE updated",5,1,1,63,"H 87","","",TRUE,"CV","q",547,"cv","H",7,"c","c",TRUE,1,-0.801582377794074
"CVOE updated",5,1,1,64,"I 32","","",TRUE,"CV","p",881,"cv","I",2,"v","v",TRUE,1,-0.256813842801745
"CVOE updated",5,1,1,65,"U 37","","",FALSE,"CV","p",562,"cv","U",7,"v","v",TRUE,1,-0.777116725024958
"CVOE updated",5,1,1,66,"I 42","","",TRUE,"CV","p",946,"cv","I",2,"v","v",TRUE,1,-0.150796014135573
"CVOE updated",5,1,1,67,"D 65","","",TRUE,"CV","q",416,"cv","D",5,"c","c",TRUE,1,-1.01524907864436
"CVOE updated",5,1,1,68,"U 77","","",FALSE,"CV","p",491,"cv","U",7,"v","v",TRUE,1,-0.892920814798776
"CVOE updated",5,1,1,69,"E 12","","",TRUE,"CV","q",590,"cv","E",2,"v","c",FALSE,0,-0.731447506522607
"CVOE updated",5,1,1,70,"I 60","","",TRUE,"CV","p",964,"cv","I",0,"v","v",TRUE,1,-0.121437230812634
"CVOE updated",5,1,1,71,"J 36","","",FALSE,"CV","q",1332,"cv","J",6,"c","c",TRUE,1,0.478786783789693
"CVOE updated",5,1,1,72,"H 75","","",TRUE,"CV","q",1288,"cv","H",5,"c","c",TRUE,1,0.407020869000284
"CVOE updated",5,1,1,73,"I 50","","",TRUE,"CV","q",555,"cv","I",0,"v","c",FALSE,0,-0.788534029650545
"CVOE updated",5,1,1,74,"E 99","","",FALSE,"CV","p",956,"cv","E",9,"v","v",TRUE,1,-0.134485578956162
"CVOE updated",5,1,1,75,"A 86","","",TRUE,"CV","q",716,"cv","A",6,"v","c",FALSE,0,-0.525936023262027
"CVOE updated",5,1,1,76,"U 48","","",TRUE,"CV","p",533,"cv","U",8,"v","v",TRUE,1,-0.82441698704525
"CVOE updated",5,1,1,77,"E 01","","",FALSE,"CV","p",656,"cv","E",1,"v","v",TRUE,1,-0.623798634338494
"CVOE updated",5,1,1,78,"A 78","","",TRUE,"CV","q",731,"cv","A",8,"v","c",FALSE,0,-0.501470370492911
"CVOE updated",5,1,1,79,"P 60","","",FALSE,"CV","q",598,"cv","P",0,"c","c",TRUE,1,-0.718399158379078
"CVOE updated",5,1,1,80,"E 43","","",FALSE,"CV","p",958,"cv","E",3,"v","v",TRUE,1,-0.13122349192028
"CVOE updated",5,1,1,81,"D 69","","",TRUE,"CV","q",559,"cv","D",9,"c","c",TRUE,1,-0.782009855578781
"CVOE updated",5,1,1,82,"H 11","","",TRUE,"CV","q",895,"cv","H",1,"c","c",TRUE,1,-0.23397923355057
"CVOE updated",5,1,1,83,"P 43","","",TRUE,"CV","q",619,"cv","P",3,"c","c",TRUE,1,-0.684147244502315
"CVOE updated",5,1,1,84,"O 67","","",FALSE,"CV","p",1134,"cv","O",7,"v","v",TRUE,1,0.155840167237354
"CVOE updated",5,1,1,85,"S 91","","",FALSE,"CV","q",505,"cv","S",1,"c","c",TRUE,1,-0.870086205547601
"CVOE updated",5,1,1,86,"J 68","","",TRUE,"CV","q",647,"cv","J",8,"c","c",TRUE,1,-0.638478025999964
"CVOE updated",5,1,1,87,"S 47","","",FALSE,"CV","q",762,"cv","S",7,"c","c",TRUE,1,-0.450908021436737
"CVOE updated",5,1,1,88,"I 81","","",TRUE,"CV","p",690,"cv","I",1,"v","v",TRUE,1,-0.568343154728496
"CVOE updated",5,1,1,89,"J 39","","",FALSE,"CV","q",621,"cv","J",9,"c","c",TRUE,1,-0.680885157466432
"CVOE updated",5,1,1,90,"A 11","","",TRUE,"CV","p",811,"cv","A",1,"v","v",TRUE,1,-0.370986889057623
"CVOE updated",5,1,1,91,"O 76","","",FALSE,"CV","p",510,"cv","O",6,"v","v",TRUE,1,-0.861930987957895
"CVOE updated",5,1,1,92,"A 62","","",FALSE,"CV","p",1260,"cv","A",2,"v","v",TRUE,1,0.361351650497933
"CVOE updated",5,1,1,93,"O 27","","",TRUE,"CV","p",466,"cv","O",7,"v","v",TRUE,1,-0.933696902747304
"CVOE updated",5,1,1,94,"E 66","","",FALSE,"CV","q",552,"cv","E",6,"v","c",FALSE,0,-0.793427160204369
"CVOE updated",5,1,1,95,"J 62","","",TRUE,"CV","q",774,"cv","J",2,"c","c",TRUE,1,-0.431335499221443
"CVOE updated",5,1,1,96,"H 72","","",TRUE,"CV","q",609,"cv","H",2,"c","c",TRUE,1,-0.700457679681726
"CVOE updated",5,1,1,97,"E 49","","",TRUE,"CV","p",948,"cv","E",9,"v","v",TRUE,1,-0.147533927099691
"CVOE updated",5,1,1,98,"D 52","","",TRUE,"CV","q",466,"cv","D",2,"c","c",TRUE,1,-0.933696902747304
"CVOE updated",5,1,1,99,"H 62","","",TRUE,"CV","q",551,"cv","H",2,"c","c",TRUE,1,-0.79505820372231
"CVOE updated",5,1,1,100,"I 11","","",TRUE,"CV","p",637,"cv","I",1,"v","v",TRUE,1,-0.654788461179375
"CVOE updated",5,1,1,101,"A 98","","",FALSE,"CV","p",1494,"cv","A",8,"v","v",TRUE,1,0.743015833696152
"CVOE updated",5,1,1,102,"H 29","","",FALSE,"CV","q",1457,"cv","H",9,"c","c",TRUE,1,0.682667223532331
"CVOE updated",5,1,1,103,"E 83","","",TRUE,"CV","p",596,"cv","E",3,"v","v",TRUE,1,-0.72166124541496
"CVOE updated",5,1,1,104,"D 43","","",FALSE,"CV","q",501,"cv","D",3,"c","c",TRUE,1,-0.876610379619365
"CVOE updated",5,1,1,105,"P 45","","",TRUE,"CV","q",491,"cv","P",5,"c","c",TRUE,1,-0.892920814798776
"CVOE updated",5,1,1,106,"J 17","","",TRUE,"CV","q",462,"cv","J",7,"c","c",TRUE,1,-0.940221076819068
"CVOE updated",1,1,1,11,"A 71","","",FALSE,"CV","p",2421,"cv","A",1,"v","v",TRUE,1,0.839458896700582
"CVOE updated",1,1,1,12,"I 66","","",TRUE,"CV","p",717,"cv","I",6,"v","v",TRUE,1,-0.532861912347722
"CVOE updated",1,1,1,13,"S 30","","",FALSE,"CV","q",566,"cv","S",0,"c","c",TRUE,1,-0.654470153055641
"CVOE updated",1,1,1,14,"D 20","","",FALSE,"CV","q",868,"cv","D",0,"c","c",TRUE,1,-0.411253671639803
"CVOE updated",1,1,1,15,"I 31","","",FALSE,"CV","p",550,"cv","I",1,"v","v",TRUE,1,-0.667355794455155
"CVOE updated",1,1,1,16,"P 16","","",FALSE,"CV","q",731,"cv","P",6,"c","c",TRUE,1,-0.521586976123147
"CVOE updated",1,1,1,17,"A 49","","",FALSE,"CV","p",784,"cv","A",9,"v","v",TRUE,1,-0.478903288987254
"CVOE updated",1,1,1,18,"O 64","","",TRUE,"CV","p",1165,"cv","O",4,"v","v",TRUE,1,-0.172063953161313
"CVOE updated",1,1,1,19,"D 02","","",FALSE,"CV","q",1267,"cv","D",2,"c","c",TRUE,1,-0.0899179892394079
"CVOE updated",1,1,1,20,"P 81","","",TRUE,"CV","q",1141,"cv","P",1,"c","c",TRUE,1,-0.191392415260585
"CVOE updated",1,1,1,21,"J 58","","",FALSE,"CV","q",3512,"cv","J",8,"c","c",TRUE,1,1.71809856962998
"CVOE updated",1,1,1,22,"A 22","","",TRUE,"CV","p",492,"cv","A",2,"v","v",TRUE,1,-0.714066244528396
"CVOE updated",1,1,1,23,"J 72","","",FALSE,"CV","q",599,"cv","J",2,"c","c",TRUE,1,-0.627893517669142
"CVOE updated",1,1,1,24,"P 91","","",TRUE,"CV","q",590,"cv","P",1,"c","c",TRUE,1,-0.635141690956369
"CVOE updated",1,1,1,25,"E 19","","",FALSE,"CV","p",666,"cv","E",9,"v","v",TRUE,1,-0.573934894308675
"CVOE updated",1,1,1,26,"I 30","","",TRUE,"CV","p",710,"cv","I",0,"v","v",TRUE,1,-0.538499380460009
"CVOE updated",1,1,1,27,"D 91","","",TRUE,"CV","q",515,"cv","D",1,"c","c",TRUE,1,-0.695543135016593
"CVOE updated",1,1,1,28,"O 48","","",TRUE,"CV","p",823,"cv","O",8,"v","v",TRUE,1,-0.447494538075938
"CVOE updated",1,1,1,29,"A 89","","",FALSE,"CV","p",545,"cv","A",9,"v","v",TRUE,1,-0.671382557392504
"CVOE updated",1,1,1,30,"U 11","","",FALSE,"CV","p",736,"cv","U",1,"v","v",TRUE,1,-0.517560213185798
"CVOE updated",1,1,1,31,"I 76","","",TRUE,"CV","p",608,"cv","I",6,"v","v",TRUE,1,-0.620645344381915
"CVOE updated",1,1,1,32,"U 89","","",FALSE,"CV","p",978,"cv","U",9,"v","v",TRUE,1,-0.32266488701814
"CVOE updated",1,1,1,33,"D 63","","",TRUE,"CV","q",482,"cv","D",3,"c","c",TRUE,1,-0.722119770403092
"CVOE updated",1,1,1,34,"H 70","","",FALSE,"CV","q",795,"cv","H",0,"c","c",TRUE,1,-0.470044410525088
"CVOE updated",1,1,1,35,"D 48","","",FALSE,"CV","q",585,"cv","D",8,"c","c",TRUE,1,-0.639168453893717
"CVOE updated",1,1,1,36,"P 56","","",FALSE,"CV","p",520,"cv","P",6,"c","v",FALSE,0,-0.691516372079245
"CVOE updated",1,1,1,37,"O 77","","",FALSE,"CV","p",1241,"cv","O",7,"v","v",TRUE,1,-0.110857156513619
"CVOE updated",1,1,1,38,"P 42","","",FALSE,"CV","q",601,"cv","P",2,"c","c",TRUE,1,-0.626282812494203
"CVOE updated",1,1,1,39,"H 22","","",FALSE,"CV","q",808,"cv","H",2,"c","c",TRUE,1,-0.459574826887983
"CVOE updated",1,1,1,40,"E 42","","",TRUE,"CV","p",579,"cv","E",2,"v","v",TRUE,1,-0.644000569418535
"CVOE updated",1,1,1,41,"J 28","","",FALSE,"CV","q",537,"cv","J",8,"c","c",TRUE,1,-0.677825378092261
"CVOE updated",1,1,1,42,"E 95","","",FALSE,"CV","p",698,"cv","E",5,"v","v",TRUE,1,-0.548163611509645
"CVOE updated",1,1,1,43,"S 63","","",TRUE,"CV","q",1279,"cv","S",3,"c","c",TRUE,1,-0.080253758189772
"CVOE updated",1,1,1,44,"H 50","","",FALSE,"CV","q",1077,"cv","H",0,"c","c",TRUE,1,-0.242934980858644
"CVOE updated",1,1,1,45,"S 33","","",TRUE,"CV","q",619,"cv","S",3,"c","c",TRUE,1,-0.611786465919749
"CVOE updated",1,1,1,46,"P 57","","",TRUE,"CV","q",705,"cv","P",7,"c","c",TRUE,1,-0.542526143397358
"CVOE updated",1,1,1,47,"E 23","","",FALSE,"CV","p",568,"cv","E",3,"v","v",TRUE,1,-0.652859447880701
"CVOE updated",1,1,1,48,"S 61","","",TRUE,"CV","q",465,"cv","S",1,"c","c",TRUE,1,-0.735810764390077
"CVOE updated",1,1,1,49,"U 67","","",FALSE,"CV","p",564,"cv","U",7,"v","v",TRUE,1,-0.65608085823058
"CVOE updated",1,1,1,50,"H 32","","",FALSE,"CV","q",507,"cv","H",2,"c","c",TRUE,1,-0.701985955716351
"CVOE updated",1,1,1,51,"U 50","","",TRUE,"CV","p",635,"cv","U",0,"v","v",TRUE,1,-0.598900824520234
"CVOE updated",1,1,1,52,"O 49","","",FALSE,"CV","p",2704,"cv","O",9,"v","v",TRUE,1,1.0673736789545
"CVOE updated",1,1,1,53,"U 32","","",TRUE,"CV","p",865,"cv","U",2,"v","v",TRUE,1,-0.413669729402212
"CVOE updated",1,1,1,54,"J 78","","",FALSE,"CV","q",523,"cv","J",8,"c","c",TRUE,1,-0.689100314316836
"CVOE updated",1,1,1,55,"S 54","","",FALSE,"CV","q",577,"cv","S",4,"c","c",TRUE,1,-0.645611274593474
"CVOE updated",1,1,1,56,"J 27","","",TRUE,"CV","q",680,"cv","J",7,"c","c",TRUE,1,-0.562659958084099
"CVOE updated",1,1,1,57,"S 06","","",FALSE,"CV","q",387,"cv","S",6,"c","c",TRUE,1,-0.79862826621271
"CVOE updated",1,1,1,58,"D 67","","",TRUE,"CV","q",411,"cv","D",7,"c","c",TRUE,1,-0.779299804113438
"CVOE updated",1,1,1,59,"A 79","","",FALSE,"CV","p",500,"cv","A",9,"v","v",TRUE,1,-0.707623423828638
"CVOE updated",1,1,1,60,"S 52","","",FALSE,"CV","q",490,"cv","S",2,"c","c",TRUE,1,-0.715676949703335
"CVOE updated",1,1,1,61,"U 16","","",TRUE,"CV","p",1018,"cv","U",6,"v","v",TRUE,1,-0.290450783519354
"CVOE updated",1,1,1,62,"O 82","","",TRUE,"CV","p",609,"cv","O",2,"v","v",TRUE,1,-0.619839991794445
"CVOE updated",1,1,1,63,"H 87","","",TRUE,"CV","q",586,"cv","H",7,"c","c",TRUE,1,-0.638363101306248
"CVOE updated",1,1,1,64,"I 32","","",TRUE,"CV","p",397,"cv","I",2,"v","v",TRUE,1,-0.790574740338014
"CVOE updated",1,1,1,65,"U 37","","",FALSE,"CV","p",543,"cv","U",7,"v","v",TRUE,1,-0.672993262567443
"CVOE updated",1,1,1,66,"I 42","","",TRUE,"CV","p",455,"cv","I",2,"v","v",TRUE,1,-0.743864290264773
"CVOE updated",1,1,1,67,"D 65","","",TRUE,"CV","q",432,"cv","D",5,"c","c",TRUE,1,-0.762387399776575
"CVOE updated",1,1,1,68,"U 77","","",FALSE,"CV","p",619,"cv","U",7,"v","v",TRUE,1,-0.611786465919749
"CVOE updated",1,1,1,69,"E 12","","",TRUE,"CV","p",464,"cv","E",2,"v","v",TRUE,1,-0.736616116977546
"CVOE updated",1,1,1,70,"I 60","","",TRUE,"CV","p",490,"cv","I",0,"v","v",TRUE,1,-0.715676949703335
"CVOE updated",1,1,1,71,"J 36","","",FALSE,"CV","q",545,"cv","J",6,"c","c",TRUE,1,-0.671382557392504
"CVOE updated",1,1,1,72,"H 75","","",TRUE,"CV","q",2057,"cv","H",5,"c","c",TRUE,1,0.546310554861625
"CVOE updated",1,1,1,73,"I 50","","",TRUE,"CV","p",504,"cv","I",0,"v","v",TRUE,1,-0.70440201347876
"CVOE updated",1,1,1,74,"E 99","","",FALSE,"CV","p",771,"cv","E",9,"v","v",TRUE,1,-0.48937287262436
"CVOE updated",1,1,1,75,"A 86","","",TRUE,"CV","p",596,"cv","A",6,"v","v",TRUE,1,-0.630309575431551
"CVOE updated",1,1,1,76,"U 48","","",TRUE,"CV","p",514,"cv","U",8,"v","v",TRUE,1,-0.696348487604063
"CVOE updated",1,1,1,77,"E 01","","",FALSE,"CV","p",468,"cv","E",1,"v","v",TRUE,1,-0.733394706627668
"CVOE updated",1,1,1,78,"A 78","","",TRUE,"CV","p",356,"cv","A",8,"v","v",TRUE,1,-0.82359419642427
"CVOE updated",1,1,1,79,"P 60","","",FALSE,"CV","q",500,"cv","P",0,"c","c",TRUE,1,-0.707623423828638
"CVOE updated",1,1,1,80,"E 43","","",FALSE,"CV","p",662,"cv","E",3,"v","v",TRUE,1,-0.577156304658553
"CVOE updated",1,1,1,81,"D 69","","",TRUE,"CV","q",627,"cv","D",9,"c","c",TRUE,1,-0.605343645219991
"CVOE updated",1,1,1,82,"H 11","","",TRUE,"CV","q",634,"cv","H",1,"c","c",TRUE,1,-0.599706177107704
"CVOE updated",1,1,1,83,"P 43","","",TRUE,"CV","q",568,"cv","P",3,"c","c",TRUE,1,-0.652859447880701
"CVOE updated",1,1,1,84,"O 67","","",FALSE,"CV","p",433,"cv","O",7,"v","v",TRUE,1,-0.761582047189106
"CVOE updated",1,1,1,85,"S 91","","",FALSE,"CV","q",533,"cv","S",1,"c","c",TRUE,1,-0.68104678844214
"CVOE updated",1,1,1,86,"J 68","","",TRUE,"CV","q",674,"cv","J",8,"c","c",TRUE,1,-0.567492073608917
"CVOE updated",1,1,1,87,"S 47","","",FALSE,"CV","q",443,"cv","S",7,"c","c",TRUE,1,-0.753528521314409
"CVOE updated",1,1,1,88,"I 81","","",TRUE,"CV","p",478,"cv","I",1,"v","v",TRUE,1,-0.725341180752971
"CVOE updated",1,1,1,89,"J 39","","",FALSE,"CV","q",483,"cv","J",9,"c","c",TRUE,1,-0.721314417815623
"CVOE updated",1,1,1,90,"A 11","","",TRUE,"CV","p",454,"cv","A",1,"v","v",TRUE,1,-0.744669642852243
"CVOE updated",1,1,1,91,"O 76","","",FALSE,"CV","p",726,"cv","O",6,"v","v",TRUE,1,-0.525613739060495
"CVOE updated",1,1,1,92,"A 62","","",FALSE,"CV","p",563,"cv","A",2,"v","v",TRUE,1,-0.65688621081805
"CVOE updated",1,1,1,93,"O 27","","",TRUE,"CV","p",554,"cv","O",7,"v","v",TRUE,1,-0.664134384105277
"CVOE updated",1,1,1,94,"E 66","","",FALSE,"CV","p",653,"cv","E",6,"v","v",TRUE,1,-0.58440447794578
"CVOE updated",1,1,1,95,"J 62","","",TRUE,"CV","q",924,"cv","J",2,"c","c",TRUE,1,-0.366153926741502
"CVOE updated",1,1,1,96,"H 72","","",TRUE,"CV","q",541,"cv","H",2,"c","c",TRUE,1,-0.674603967742382
"CVOE updated",1,1,1,97,"E 49","","",TRUE,"CV","p",575,"cv","E",9,"v","v",TRUE,1,-0.647221979768414
"CVOE updated",1,1,1,98,"D 52","","",TRUE,"CV","q",754,"cv","D",2,"c","c",TRUE,1,-0.503063866611344
"CVOE updated",1,1,1,99,"H 62","","",TRUE,"CV","q",633,"cv","H",2,"c","c",TRUE,1,-0.600511529695173
"CVOE updated",1,1,1,100,"I 11","","",TRUE,"CV","p",544,"cv","I",1,"v","v",TRUE,1,-0.672187909979973
"CVOE updated",1,1,1,101,"A 98","","",FALSE,"CV","p",588,"cv","A",8,"v","v",TRUE,1,-0.636752396131308
"CVOE updated",1,1,1,102,"H 29","","",FALSE,"CV","q",516,"cv","H",9,"c","c",TRUE,1,-0.694737782429124
"CVOE updated",1,1,1,103,"E 83","","",TRUE,"CV","p",544,"cv","E",3,"v","v",TRUE,1,-0.672187909979973
"CVOE updated",1,1,1,104,"D 43","","",FALSE,"CV","q",919,"cv","D",3,"c","c",TRUE,1,-0.37018068967885
"CVOE updated",1,1,1,105,"P 45","","",TRUE,"CV","q",658,"cv","P",5,"c","c",TRUE,1,-0.580377715008432
"CVOE updated",1,1,1,106,"J 17","","",TRUE,"CV","q",504,"cv","J",7,"c","c",TRUE,1,-0.70440201347876
"CVOE updated",9,1,1,11,"A 71","","",FALSE,"CV","p",1803,"cv","A",1,"v","v",TRUE,1,2.26265385703357
"CVOE updated",9,1,1,12,"I 66","","",TRUE,"CV","p",612,"cv","I",6,"v","v",TRUE,1,-0.553468760941757
"CVOE updated",9,1,1,13,"S 30","","",FALSE,"CV","q",487,"cv","S",0,"c","c",TRUE,1,-0.84903158818518
"CVOE updated",9,1,1,14,"D 20","","",FALSE,"CV","q",571,"cv","D",0,"c","c",TRUE,1,-0.6504133682776
"CVOE updated",9,1,1,15,"I 31","","",FALSE,"CV","p",526,"cv","I",1,"v","v",TRUE,1,-0.756815986085232
"CVOE updated",9,1,1,16,"P 16","","",FALSE,"CV","q",590,"cv","P",6,"c","c",TRUE,1,-0.6054878185366
"CVOE updated",9,1,1,17,"A 49","","",FALSE,"CV","p",524,"cv","A",9,"v","v",TRUE,1,-0.761544991321127
"CVOE updated",9,1,1,18,"O 64","","",TRUE,"CV","p",612,"cv","O",4,"v","v",TRUE,1,-0.553468760941757
"CVOE updated",9,1,1,19,"D 02","","",FALSE,"CV","q",471,"cv","D",2,"c","c",TRUE,1,-0.886863630072338
"CVOE updated",9,1,1,20,"P 81","","",TRUE,"CV","q",765,"cv","P",1,"c","c",TRUE,1,-0.191699860395808
"CVOE updated",9,1,1,21,"J 58","","",FALSE,"CV","q",749,"cv","J",8,"c","c",TRUE,1,-0.229531902282966
"CVOE updated",9,1,1,22,"A 22","","",TRUE,"CV","p",475,"cv","A",2,"v","v",TRUE,1,-0.877405619600549
"CVOE updated",9,1,1,23,"J 72","","",FALSE,"CV","q",532,"cv","J",2,"c","c",TRUE,1,-0.742628970377548
"CVOE updated",9,1,1,24,"P 91","","",TRUE,"CV","q",535,"cv","P",1,"c","c",TRUE,1,-0.735535462523706
"CVOE updated",9,1,1,25,"E 19","","",FALSE,"CV","p",450,"cv","E",9,"v","v",TRUE,1,-0.936518185049233
"CVOE updated",9,1,1,26,"I 30","","",TRUE,"CV","p",453,"cv","I",0,"v","v",TRUE,1,-0.929424677195391
"CVOE updated",9,1,1,27,"D 91","","",TRUE,"CV","q",488,"cv","D",1,"c","c",TRUE,1,-0.846667085567233
"CVOE updated",9,1,1,28,"O 48","","",TRUE,"CV","p",531,"cv","O",8,"v","v",TRUE,1,-0.744993472995495
"CVOE updated",9,1,1,29,"A 89","","",FALSE,"CV","p",566,"cv","A",9,"v","v",TRUE,1,-0.662235881367337
"CVOE updated",9,1,1,30,"U 11","","",FALSE,"CV","p",542,"cv","U",1,"v","v",TRUE,1,-0.718983944198074
"CVOE updated",9,1,1,31,"I 76","","",TRUE,"CV","p",420,"cv","I",6,"v","v",TRUE,1,-1.00745326358765
"CVOE updated",9,1,1,32,"U 89","","",FALSE,"CV","p",450,"cv","U",9,"v","v",TRUE,1,-0.936518185049233
"CVOE updated",9,1,1,33,"D 63","","",TRUE,"CV","q",461,"cv","D",3,"c","c",TRUE,1,-0.910508656251812
"CVOE updated",9,1,1,34,"H 70","","",FALSE,"CV","q",475,"cv","H",0,"c","c",TRUE,1,-0.877405619600549
"CVOE updated",9,1,1,35,"D 48","","",FALSE,"CV","q",451,"cv","D",8,"c","c",TRUE,1,-0.934153682431286
"CVOE updated",9,1,1,36,"P 56","","",FALSE,"CV","q",502,"cv","P",6,"c","c",TRUE,1,-0.81356404891597
"CVOE updated",9,1,1,37,"O 77","","",FALSE,"CV","p",444,"cv","O",7,"v","v",TRUE,1,-0.950705200756918
"CVOE updated",9,1,1,38,"P 42","","",FALSE,"CV","q",756,"cv","P",2,"c","c",TRUE,1,-0.212980383957334
"CVOE updated",9,1,1,39,"H 22","","",FALSE,"CV","q",693,"cv","H",2,"c","c",TRUE,1,-0.36194404888802
"CVOE updated",9,1,1,40,"E 42","","",TRUE,"CV","p",344,"cv","E",2,"v","v",TRUE,1,-1.18715546255166
"CVOE updated",9,1,1,41,"J 28","","",FALSE,"CV","q",1029,"cv","J",8,"c","c",TRUE,1,0.432528830742301
"CVOE updated",9,1,1,42,"E 95","","",FALSE,"CV","p",595,"cv","E",5,"v","v",TRUE,1,-0.593665305446863
"CVOE updated",9,1,1,43,"S 63","","",TRUE,"CV","q",508,"cv","S",3,"c","c",TRUE,1,-0.799377033208285
"CVOE updated",9,1,1,44,"H 50","","",FALSE,"CV","q",449,"cv","H",0,"c","c",TRUE,1,-0.938882687667181
"CVOE updated",9,1,1,45,"S 33","","",TRUE,"CV","q",476,"cv","S",3,"c","c",TRUE,1,-0.875041116982601
"CVOE updated",9,1,1,46,"P 57","","",TRUE,"CV","q",541,"cv","P",7,"c","c",TRUE,1,-0.721348446816022
"CVOE updated",9,1,1,47,"E 23","","",FALSE,"CV","p",459,"cv","E",3,"v","v",TRUE,1,-0.915237661487707
"CVOE updated",9,1,1,48,"S 61","","",TRUE,"CV","q",422,"cv","S",1,"c","c",TRUE,1,-1.00272425835176
"CVOE updated",9,1,1,49,"U 67","","",FALSE,"CV","p",515,"cv","U",7,"v","v",TRUE,1,-0.782825514882654
"CVOE updated",9,1,1,50,"H 32","","",FALSE,"CV","q",540,"cv","H",2,"c","c",TRUE,1,-0.723712949433969
"CVOE updated",9,1,1,51,"U 50","","",TRUE,"CV","p",575,"cv","U",0,"v","v",TRUE,1,-0.640955357805811
"CVOE updated",9,1,1,52,"O 49","","",FALSE,"CV","p",554,"cv","O",9,"v","v",TRUE,1,-0.690609912782706
"CVOE updated",9,1,1,53,"U 32","","",TRUE,"CV","p",530,"cv","U",2,"v","v",TRUE,1,-0.747357975613443
"CVOE updated",9,1,1,54,"J 78","","",FALSE,"CV","q",509,"cv","J",8,"c","c",TRUE,1,-0.797012530590338
"CVOE updated",9,1,1,55,"S 54","","",FALSE,"CV","q",571,"cv","S",4,"c","c",TRUE,1,-0.6504133682776
"CVOE updated",9,1,1,56,"J 27","","",TRUE,"CV","q",550,"cv","J",7,"c","c",TRUE,1,-0.700067923254495
"CVOE updated",9,1,1,57,"S 06","","",FALSE,"CV","q",612,"cv","S",6,"c","c",TRUE,1,-0.553468760941757
"CVOE updated",9,1,1,58,"D 67","","",TRUE,"CV","q",487,"cv","D",7,"c","c",TRUE,1,-0.84903158818518
"CVOE updated",9,1,1,59,"A 79","","",FALSE,"CV","p",482,"cv","A",9,"v","v",TRUE,1,-0.860854101274917
"CVOE updated",9,1,1,60,"S 52","","",FALSE,"CV","q",498,"cv","S",2,"c","c",TRUE,1,-0.823022059387759
"CVOE updated",9,1,1,61,"U 16","","",TRUE,"CV","p",526,"cv","U",6,"v","v",TRUE,1,-0.756815986085232
"CVOE updated",9,1,1,62,"O 82","","",TRUE,"CV","p",430,"cv","O",2,"v","v",TRUE,1,-0.983808237408181
"CVOE updated",9,1,1,63,"H 87","","",TRUE,"CV","q",516,"cv","H",7,"c","c",TRUE,1,-0.780461012264706
"CVOE updated",9,1,1,64,"I 32","","",TRUE,"CV","p",372,"cv","I",2,"v","v",TRUE,1,-1.12094938924913
"CVOE updated",9,1,1,65,"U 37","","",FALSE,"CV","p",455,"cv","U",7,"v","v",TRUE,1,-0.924695671959497
"CVOE updated",9,1,1,66,"I 42","","",TRUE,"CV","p",466,"cv","I",2,"v","v",TRUE,1,-0.898686143162075
"CVOE updated",9,1,1,67,"D 65","","",TRUE,"CV","q",400,"cv","D",5,"c","c",TRUE,1,-1.0547433159466
"CVOE updated",9,1,1,68,"U 77","","",FALSE,"CV","p",472,"cv","U",7,"v","v",TRUE,1,-0.884499127454391
"CVOE updated",9,1,1,69,"E 12","","",TRUE,"CV","p",462,"cv","E",2,"v","v",TRUE,1,-0.908144153633865
"CVOE updated",9,1,1,70,"I 60","","",TRUE,"CV","p",452,"cv","I",0,"v","v",TRUE,1,-0.931789179813339
"CVOE updated",9,1,1,71,"J 36","","",FALSE,"CV","q",423,"cv","J",6,"c","c",TRUE,1,-1.00035975573381
"CVOE updated",9,1,1,72,"H 75","","",TRUE,"CV","q",492,"cv","H",5,"c","c",TRUE,1,-0.837209075095443
"CVOE updated",9,1,1,73,"I 50","","",TRUE,"CV","p",535,"cv","I",0,"v","v",TRUE,1,-0.735535462523706
"CVOE updated",9,1,1,74,"E 99","","",FALSE,"CV","p",450,"cv","E",9,"v","v",TRUE,1,-0.936518185049233
"CVOE updated",9,1,1,75,"A 86","","",TRUE,"CV","p",437,"cv","A",6,"v","v",TRUE,1,-0.967256719082549
"CVOE updated",9,1,1,76,"U 48","","",TRUE,"CV","p",510,"cv","U",8,"v","v",TRUE,1,-0.794648027972391
"CVOE updated",9,1,1,77,"E 01","","",FALSE,"CV","p",484,"cv","E",1,"v","v",TRUE,1,-0.856125096039022
"CVOE updated",9,1,1,78,"A 78","","",TRUE,"CV","p",444,"cv","A",8,"v","v",TRUE,1,-0.950705200756918
"CVOE updated",9,1,1,79,"P 60","","",FALSE,"CV","q",468,"cv","P",0,"c","c",TRUE,1,-0.893957137926181
"CVOE updated",9,1,1,80,"E 43","","",FALSE,"CV","p",458,"cv","E",3,"v","v",TRUE,1,-0.917602164105654
"CVOE updated",9,1,1,81,"D 69","","",TRUE,"CV","q",413,"cv","D",9,"c","c",TRUE,1,-1.02400478191329
"CVOE updated",9,1,1,82,"H 11","","",TRUE,"CV","q",520,"cv","H",1,"c","c",TRUE,1,-0.771003001792917
"CVOE updated",9,1,1,83,"P 43","","",TRUE,"CV","q",1016,"cv","P",3,"c","c",TRUE,1,0.401790296708985
"CVOE updated",9,1,1,84,"O 67","","",FALSE,"CV","p",484,"cv","O",7,"v","v",TRUE,1,-0.856125096039022
"CVOE updated",9,1,1,85,"S 91","","",FALSE,"CV","q",476,"cv","S",1,"c","c",TRUE,1,-0.875041116982601
"CVOE updated",9,1,1,86,"J 68","","",TRUE,"CV","q",444,"cv","J",8,"c","c",TRUE,1,-0.950705200756918
"CVOE updated",9,1,1,87,"S 47","","",FALSE,"CV","q",501,"cv","S",7,"c","c",TRUE,1,-0.815928551533917
"CVOE updated",9,1,1,88,"I 81","","",TRUE,"CV","p",499,"cv","I",1,"v","v",TRUE,1,-0.820657556769812
"CVOE updated",9,1,1,89,"J 39","","",FALSE,"CV","q",438,"cv","J",9,"c","c",TRUE,1,-0.964892216464602
"CVOE updated",9,1,1,90,"A 11","","",TRUE,"CV","p",526,"cv","A",1,"v","v",TRUE,1,-0.756815986085232
"CVOE updated",9,1,1,91,"O 76","","",FALSE,"CV","p",398,"cv","O",6,"v","v",TRUE,1,-1.0594723211825
"CVOE updated",9,1,1,92,"A 62","","",FALSE,"CV","p",415,"cv","A",2,"v","v",TRUE,1,-1.01927577667739
"CVOE updated",9,1,1,93,"O 27","","",TRUE,"CV","p",394,"cv","O",7,"v","v",TRUE,1,-1.06893033165429
"CVOE updated",9,1,1,94,"E 66","","",FALSE,"CV","p",466,"cv","E",6,"v","v",TRUE,1,-0.898686143162075
"CVOE updated",9,1,1,95,"J 62","","",TRUE,"CV","q",448,"cv","J",2,"c","c",TRUE,1,-0.941247190285128
"CVOE updated",9,1,1,96,"H 72","","",TRUE,"CV","q",507,"cv","H",2,"c","c",TRUE,1,-0.801741535826233
"CVOE updated",9,1,1,97,"E 49","","",TRUE,"CV","p",417,"cv","E",9,"v","v",TRUE,1,-1.0145467714415
"CVOE updated",9,1,1,98,"D 52","","",TRUE,"CV","q",460,"cv","D",2,"c","c",TRUE,1,-0.91287315886976
"CVOE updated",9,1,1,99,"H 62","","",TRUE,"CV","q",383,"cv","H",2,"c","c",TRUE,1,-1.09493986045171
"CVOE updated",9,1,1,100,"I 11","","",TRUE,"CV","p",372,"cv","I",1,"v","v",TRUE,1,-1.12094938924913
"CVOE updated",9,1,1,101,"A 98","","",FALSE,"CV","p",367,"cv","A",8,"v","v",TRUE,1,-1.13277190233887
"CVOE updated",9,1,1,102,"H 29","","",FALSE,"CV","q",426,"cv","H",9,"c","c",TRUE,1,-0.993266247879971
"CVOE updated",9,1,1,103,"E 83","","",TRUE,"CV","p",488,"cv","E",3,"v","v",TRUE,1,-0.846667085567233
"CVOE updated",9,1,1,104,"D 43","","",FALSE,"CV","q",459,"cv","D",3,"c","c",TRUE,1,-0.915237661487707
"CVOE updated",9,1,1,105,"P 45","","",TRUE,"CV","q",502,"cv","P",5,"c","c",TRUE,1,-0.81356404891597
"CVOE updated",9,1,1,106,"J 17","","",TRUE,"CV","q",420,"cv","J",7,"c","c",TRUE,1,-1.00745326358765
"CVOE_B",2,1,2,11,"A 71","","",FALSE,"CV","p",1063,"cv","A",1,"v","v",TRUE,1,0.605863041802218
"CVOE_B",2,1,2,12,"I 66","","",TRUE,"CV","p",574,"cv","I",6,"v","v",TRUE,1,-0.718372404184693
"CVOE_B",2,1,2,13,"S 30","","",FALSE,"CV","q",481,"cv","S",0,"c","c",TRUE,1,-0.970220863237418
"CVOE_B",2,1,2,14,"D 20","","",FALSE,"CV","q",577,"cv","D",0,"c","c",TRUE,1,-0.710248260344282
"CVOE_B",2,1,2,15,"I 31","","",FALSE,"CV","p",621,"cv","I",1,"v","v",TRUE,1,-0.591094150684928
"CVOE_B",2,1,2,16,"P 16","","",FALSE,"CV","q",706,"cv","P",6,"c","c",TRUE,1,-0.360910075206631
"CVOE_B",2,1,2,17,"A 49","","",FALSE,"CV","p",583,"cv","A",9,"v","v",TRUE,1,-0.693999972663461
"CVOE_B",2,1,2,18,"O 64","","",TRUE,"CV","p",1661,"cv","O",4,"v","v",TRUE,1,2.22527571399071
"CVOE_B",2,1,2,19,"D 02","","",FALSE,"CV","q",580,"cv","D",2,"c","c",TRUE,1,-0.702124116503872
"CVOE_B",2,1,2,20,"P 81","","",TRUE,"CV","q",1006,"cv","P",1,"c","c",TRUE,1,0.451504308834418
"CVOE_B",2,1,2,21,"J 58","","",FALSE,"CV","q",537,"cv","J",8,"c","c",TRUE,1,-0.818570178216422
"CVOE_B",2,1,2,22,"A 22","","",TRUE,"CV","p",572,"cv","A",2,"v","v",TRUE,1,-0.7237885000783
"CVOE_B",2,1,2,23,"J 72","","",FALSE,"CV","q",505,"cv","J",2,"c","c",TRUE,1,-0.905227712514134
"CVOE_B",2,1,2,24,"P 91","","",TRUE,"CV","q",485,"cv","P",1,"c","c",TRUE,1,-0.959388671450204
"CVOE_B",2,1,2,25,"E 19","","",FALSE,"CV","p",414,"cv","E",9,"v","v",TRUE,1,-1.15166007567325
"CVOE_B",2,1,2,26,"I 30","","",TRUE,"CV","p",585,"cv","I",0,"v","v",TRUE,1,-0.688583876769854
"CVOE_B",2,1,2,27,"D 91","","",TRUE,"CV","q",414,"cv","D",1,"c","c",TRUE,1,-1.15166007567325
"CVOE_B",2,1,2,28,"O 48","","",TRUE,"CV","p",401,"cv","O",8,"v","v",TRUE,1,-1.1868646989817
"CVOE_B",2,1,2,29,"A 89","","",FALSE,"CV","p",578,"cv","A",9,"v","v",TRUE,1,-0.707540212397479
"CVOE_B",2,1,2,30,"U 11","","",FALSE,"CV","p",606,"cv","U",1,"v","v",TRUE,1,-0.631714869886981
"CVOE_B",2,1,2,31,"I 76","","",TRUE,"CV","p",485,"cv","I",6,"v","v",TRUE,1,-0.959388671450204
"CVOE_B",2,1,2,32,"U 89","","",FALSE,"CV","p",431,"cv","U",9,"v","v",TRUE,1,-1.10562326057759
"CVOE_B",2,1,2,33,"D 63","","",TRUE,"CV","q",443,"cv","D",3,"c","c",TRUE,1,-1.07312668521595
"CVOE_B",2,1,2,34,"H 70","","",FALSE,"CV","q",564,"cv","H",0,"c","c",TRUE,1,-0.745452883652728
"CVOE_B",2,1,2,35,"D 48","","",FALSE,"CV","q",508,"cv","D",8,"c","c",TRUE,1,-0.897103568673724
"CVOE_B",2,1,2,36,"P 56","","",FALSE,"CV","q",498,"cv","P",6,"c","c",TRUE,1,-0.924184048141759
"CVOE_B",2,1,2,37,"O 77","","",FALSE,"CV","p",445,"cv","O",7,"v","v",TRUE,1,-1.06771058932234
"CVOE_B",2,1,2,38,"P 42","","",FALSE,"CV","q",461,"cv","P",2,"c","c",TRUE,1,-1.02438182217349
"CVOE_B",2,1,2,39,"H 22","","",FALSE,"CV","q",443,"cv","H",2,"c","c",TRUE,1,-1.07312668521595
"CVOE_B",2,1,2,40,"E 42","","",TRUE,"CV","p",491,"cv","E",2,"v","v",TRUE,1,-0.943140383769383
"CVOE_B",2,1,2,41,"J 28","","",FALSE,"CV","q",663,"cv","J",8,"c","c",TRUE,1,-0.477356136919181
"CVOE_B",2,1,2,42,"E 95","","",FALSE,"CV","p",692,"cv","E",5,"v","v",TRUE,1,-0.39882274646188
"CVOE_B",2,1,2,43,"S 63","","",TRUE,"CV","q",559,"cv","S",3,"c","c",TRUE,1,-0.758993123386745
"CVOE_B",2,1,2,44,"H 50","","",FALSE,"CV","q",480,"cv","H",0,"c","c",TRUE,1,-0.972928911184222
"CVOE_B",2,1,2,45,"S 33","","",TRUE,"CV","q",408,"cv","S",3,"c","c",TRUE,1,-1.16790836335407
"CVOE_B",2,1,2,46,"P 57","","",TRUE,"CV","q",459,"cv","P",7,"c","c",TRUE,1,-1.0297979180671
"CVOE_B",2,1,2,47,"E 23","","",FALSE,"CV","p",543,"cv","E",3,"v","v",TRUE,1,-0.802321890535601
"CVOE_B",2,1,2,48,"S 61","","",TRUE,"CV","q",549,"cv","S",1,"c","c",TRUE,1,-0.78607360285478
"CVOE_B",2,1,2,49,"U 67","","",FALSE,"CV","p",602,"cv","U",7,"v","v",TRUE,1,-0.642547061674195
"CVOE_B",2,1,2,50,"H 32","","",FALSE,"CV","q",467,"cv","H",2,"c","c",TRUE,1,-1.00813353449267
"CVOE_B",2,1,2,51,"U 50","","",TRUE,"CV","p",593,"cv","U",0,"v","v",TRUE,1,-0.666919493195426
"CVOE_B",2,1,2,52,"O 49","","",FALSE,"CV","p",542,"cv","O",9,"v","v",TRUE,1,-0.805029938482405
"CVOE_B",2,1,2,53,"U 32","","",TRUE,"CV","p",516,"cv","U",2,"v","v",TRUE,1,-0.875439185099296
"CVOE_B",2,1,2,54,"J 78","","",FALSE,"CV","q",477,"cv","J",8,"c","c",TRUE,1,-0.981053055024632
"CVOE_B",2,1,2,55,"S 54","","",FALSE,"CV","q",500,"cv","S",4,"c","c",TRUE,1,-0.918767952248152
"CVOE_B",2,1,2,56,"J 27","","",TRUE,"CV","q",491,"cv","J",7,"c","c",TRUE,1,-0.943140383769383
"CVOE_B",2,1,2,57,"S 06","","",FALSE,"CV","q",437,"cv","S",6,"c","c",TRUE,1,-1.08937497289677
"CVOE_B",2,1,2,58,"D 67","","",TRUE,"CV","q",421,"cv","D",7,"c","c",TRUE,1,-1.13270374004563
"CVOE_B",2,1,2,59,"A 79","","",FALSE,"CV","p",563,"cv","A",9,"v","v",TRUE,1,-0.748160931599531
"CVOE_B",2,1,2,60,"S 52","","",FALSE,"CV","q",556,"cv","S",2,"c","c",TRUE,1,-0.767117267227156
"CVOE_B",2,1,2,61,"U 16","","",TRUE,"CV","p",581,"cv","U",6,"v","v",TRUE,1,-0.699416068557068
"CVOE_B",2,1,2,62,"O 82","","",TRUE,"CV","p",577,"cv","O",2,"v","v",TRUE,1,-0.710248260344282
"CVOE_B",2,1,2,63,"H 87","","",TRUE,"CV","q",582,"cv","H",7,"c","c",TRUE,1,-0.696708020610265
"CVOE_B",2,1,2,64,"I 32","","",TRUE,"CV","p",610,"cv","I",2,"v","v",TRUE,1,-0.620882678099767
"CVOE_B",2,1,2,65,"U 37","","",FALSE,"CV","q",598,"cv","U",7,"v","c",FALSE,0,-0.653379253461409
"CVOE_B",2,1,2,66,"I 42","","",TRUE,"CV","p",743,"cv","I",2,"v","v",TRUE,1,-0.260712301174902
"CVOE_B",2,1,2,67,"D 65","","",TRUE,"CV","q",517,"cv","D",5,"c","c",TRUE,1,-0.872731137152492
"CVOE_B",2,1,2,68,"U 77","","",FALSE,"CV","q",549,"cv","U",7,"v","c",FALSE,0,-0.78607360285478
"CVOE_B",2,1,2,69,"E 12","","",TRUE,"CV","p",530,"cv","E",2,"v","v",TRUE,1,-0.837526513844047
"CVOE_B",2,1,2,70,"I 60","","",TRUE,"CV","p",605,"cv","I",0,"v","v",TRUE,1,-0.634422917833784
"CVOE_B",2,1,2,71,"J 36","","",FALSE,"CV","q",542,"cv","J",6,"c","c",TRUE,1,-0.805029938482405
"CVOE_B",2,1,2,72,"H 75","","",TRUE,"CV","q",724,"cv","H",5,"c","c",TRUE,1,-0.312165212164168
"CVOE_B",2,1,2,73,"I 50","","",TRUE,"CV","p",588,"cv","I",0,"v","v",TRUE,1,-0.680459732929444
"CVOE_B",2,1,2,74,"E 99","","",FALSE,"CV","p",706,"cv","E",9,"v","v",TRUE,1,-0.360910075206631
"CVOE_B",2,1,2,75,"A 86","","",TRUE,"CV","p",527,"cv","A",6,"v","v",TRUE,1,-0.845650657684457
"CVOE_B",2,1,2,76,"U 48","","",TRUE,"CV","p",522,"cv","U",8,"v","v",TRUE,1,-0.859190897418475
"CVOE_B",2,1,2,77,"E 01","","",FALSE,"CV","p",468,"cv","E",1,"v","v",TRUE,1,-1.00542548654586
"CVOE_B",2,1,2,78,"A 78","","",TRUE,"CV","p",449,"cv","A",8,"v","v",TRUE,1,-1.05687839753513
"CVOE_B",2,1,2,79,"P 60","","",FALSE,"CV","q",476,"cv","P",0,"c","c",TRUE,1,-0.983761102971436
"CVOE_B",2,1,2,80,"E 43","","",FALSE,"CV","p",780,"cv","E",3,"v","v",TRUE,1,-0.160514527143172
"CVOE_B",2,1,2,81,"D 69","","",TRUE,"CV","q",538,"cv","D",9,"c","c",TRUE,1,-0.815862130269619
"CVOE_B",2,1,2,82,"H 11","","",TRUE,"CV","q",605,"cv","H",1,"c","c",TRUE,1,-0.634422917833784
"CVOE_B",2,1,2,83,"P 43","","",TRUE,"CV","q",830,"cv","P",3,"c","c",TRUE,1,-0.0251121298029973
"CVOE_B",2,1,2,84,"O 67","","",FALSE,"CV","p",508,"cv","O",7,"v","v",TRUE,1,-0.897103568673724
"CVOE_B",2,1,2,85,"S 91","","",FALSE,"CV","q",497,"cv","S",1,"c","c",TRUE,1,-0.926892096088562
"CVOE_B",2,1,2,86,"J 68","","",TRUE,"CV","q",588,"cv","J",8,"c","c",TRUE,1,-0.680459732929444
"CVOE_B",2,1,2,87,"S 47","","",FALSE,"CV","q",497,"cv","S",7,"c","c",TRUE,1,-0.926892096088562
"CVOE_B",2,1,2,88,"I 81","","",TRUE,"CV","p",548,"cv","I",1,"v","v",TRUE,1,-0.788781650801584
"CVOE_B",2,1,2,89,"J 39","","",FALSE,"CV","q",443,"cv","J",9,"c","c",TRUE,1,-1.07312668521595
"CVOE_B",2,1,2,90,"A 11","","",TRUE,"CV","p",564,"cv","A",1,"v","v",TRUE,1,-0.745452883652728
"CVOE_B",2,1,2,91,"O 76","","",FALSE,"CV","p",540,"cv","O",6,"v","v",TRUE,1,-0.810446034376012
"CVOE_B",2,1,2,92,"A 62","","",FALSE,"CV","p",543,"cv","A",2,"v","v",TRUE,1,-0.802321890535601
"CVOE_B",2,1,2,93,"O 27","","",TRUE,"CV","p",541,"cv","O",7,"v","v",TRUE,1,-0.807737986429208
"CVOE_B",2,1,2,94,"E 66","","",FALSE,"CV","p",481,"cv","E",6,"v","v",TRUE,1,-0.970220863237418
"CVOE_B",2,1,2,95,"J 62","","",TRUE,"CV","q",459,"cv","J",2,"c","c",TRUE,1,-1.0297979180671
"CVOE_B",2,1,2,96,"H 72","","",TRUE,"CV","q",565,"cv","H",2,"c","c",TRUE,1,-0.742744835705924
"CVOE_B",2,1,2,97,"E 49","","",TRUE,"CV","p",750,"cv","E",9,"v","v",TRUE,1,-0.241755965547277
"CVOE_B",2,1,2,98,"D 52","","",TRUE,"CV","q",1780,"cv","D",2,"c","c",TRUE,1,2.54753341966033
"CVOE_B",2,1,2,99,"H 62","","",TRUE,"CV","q",482,"cv","H",2,"c","c",TRUE,1,-0.967512815290615
"CVOE_B",2,1,2,100,"I 11","","",TRUE,"CV","p",507,"cv","I",1,"v","v",TRUE,1,-0.899811616620527
"CVOE_B",2,1,2,101,"A 98","","",FALSE,"CV","p",472,"cv","A",8,"v","v",TRUE,1,-0.99459329475865
"CVOE_B",2,1,2,102,"H 29","","",FALSE,"CV","q",557,"cv","H",9,"c","c",TRUE,1,-0.764409219280352
"CVOE_B",2,1,2,103,"E 83","","",TRUE,"CV","p",502,"cv","E",3,"v","v",TRUE,1,-0.913351856354545
"CVOE_B",2,1,2,104,"D 43","","",FALSE,"CV","q",548,"cv","D",3,"c","c",TRUE,1,-0.788781650801584
"CVOE_B",2,1,2,105,"P 45","","",TRUE,"CV","q",634,"cv","P",5,"c","c",TRUE,1,-0.555889527376483
"CVOE_B",2,1,2,106,"J 17","","",TRUE,"CV","q",481,"cv","J",7,"c","c",TRUE,1,-0.970220863237418
"CVOE_B",10,1,2,11,"A 71","","",FALSE,"CV","p",1228,"cv","A",1,"v","v",TRUE,1,-0.508958919663038
"CVOE_B",10,1,2,12,"I 66","","",TRUE,"CV","p",930,"cv","I",6,"v","v",TRUE,1,-0.701537323463212
"CVOE_B",10,1,2,13,"S 30","","",FALSE,"CV","q",950,"cv","S",0,"c","c",TRUE,1,-0.688612598375952
"CVOE_B",10,1,2,14,"D 20","","",FALSE,"CV","q",643,"cv","D",0,"c","c",TRUE,1,-0.887007128465394
"CVOE_B",10,1,2,15,"I 31","","",FALSE,"CV","p",732,"cv","I",1,"v","v",TRUE,1,-0.829492101827086
"CVOE_B",10,1,2,16,"P 16","","",FALSE,"CV","q",1455,"cv","P",6,"c","c",TRUE,1,-0.362263289922637
"CVOE_B",10,1,2,17,"A 49","","",FALSE,"CV","p",658,"cv","A",9,"v","v",TRUE,1,-0.877313584649948
"CVOE_B",10,1,2,18,"O 64","","",TRUE,"CV","p",758,"cv","O",4,"v","v",TRUE,1,-0.812689959213648
"CVOE_B",10,1,2,19,"D 02","","",FALSE,"CV","q",694,"cv","D",2,"c","c",TRUE,1,-0.85404907949288
"CVOE_B",10,1,2,20,"P 81","","",TRUE,"CV","p",577,"cv","P",1,"c","v",FALSE,0,-0.929658721253352
"CVOE_B",10,1,2,21,"J 58","","",FALSE,"CV","q",1428,"cv","J",8,"c","c",TRUE,1,-0.379711668790438
"CVOE_B",10,1,2,22,"A 22","","",TRUE,"CV","p",610,"cv","A",2,"v","v",TRUE,1,-0.908332924859373
"CVOE_B",10,1,2,23,"J 72","","",FALSE,"CV","q",533,"cv","J",2,"c","c",TRUE,1,-0.958093116445324
"CVOE_B",10,1,2,24,"P 91","","",TRUE,"CV","q",696,"cv","P",1,"c","c",TRUE,1,-0.852756606984154
"CVOE_B",10,1,2,25,"E 19","","",FALSE,"CV","p",780,"cv","E",9,"v","v",TRUE,1,-0.798472761617662
"CVOE_B",10,1,2,26,"I 30","","",TRUE,"CV","p",1223,"cv","I",0,"v","v",TRUE,1,-0.512190100934853
"CVOE_B",10,1,2,27,"D 91","","",TRUE,"CV","q",557,"cv","D",1,"c","c",TRUE,1,-0.942583446340612
"CVOE_B",10,1,2,28,"O 48","","",TRUE,"CV","p",1861,"cv","O",8,"v","v",TRUE,1,-0.0998913706512587
"CVOE_B",10,1,2,29,"A 89","","",FALSE,"CV","p",651,"cv","A",9,"v","v",TRUE,1,-0.88183723843049
"CVOE_B",10,1,2,30,"U 11","","",FALSE,"CV","p",822,"cv","U",1,"v","v",TRUE,1,-0.771330838934416
"CVOE_B",10,1,2,31,"I 76","","",TRUE,"CV","p",652,"cv","I",6,"v","v",TRUE,1,-0.881191002176127
"CVOE_B",10,1,2,32,"U 89","","",FALSE,"CV","p",815,"cv","U",9,"v","v",TRUE,1,-0.775854492714957
"CVOE_B",10,1,2,33,"D 63","","",TRUE,"CV","q",603,"cv","D",3,"c","c",TRUE,1,-0.912856578639914
"CVOE_B",10,1,2,34,"H 70","","",FALSE,"CV","q",731,"cv","H",0,"c","c",TRUE,1,-0.830138338081449
"CVOE_B",10,1,2,35,"D 48","","",FALSE,"CV","q",630,"cv","D",8,"c","c",TRUE,1,-0.895408199772113
"CVOE_B",10,1,2,36,"P 56","","",FALSE,"CV","q",404,"cv","P",6,"c","c",TRUE,1,-1.04145759325815
"CVOE_B",10,1,2,37,"O 77","","",FALSE,"CV","p",948,"cv","O",7,"v","v",TRUE,1,-0.689905070884678
"CVOE_B",10,1,2,38,"P 42","","",FALSE,"CV","q",674,"cv","P",2,"c","c",TRUE,1,-0.866973804580141
"CVOE_B",10,1,2,39,"H 22","","",FALSE,"CV","q",1475,"cv","H",2,"c","c",TRUE,1,-0.349338564835377
"CVOE_B",10,1,2,40,"E 42","","",TRUE,"CV","p",555,"cv","E",2,"v","v",TRUE,1,-0.943875918849338
"CVOE_B",10,1,2,41,"J 28","","",FALSE,"CV","q",460,"cv","J",8,"c","c",TRUE,1,-1.00526836301382
"CVOE_B",10,1,2,42,"E 95","","",FALSE,"CV","p",679,"cv","E",5,"v","v",TRUE,1,-0.863742623308326
"CVOE_B",10,1,2,43,"S 63","","",TRUE,"CV","q",335,"cv","S",3,"c","c",TRUE,1,-1.0860478948092
"CVOE_B",10,1,2,44,"H 50","","",FALSE,"CV","q",554,"cv","H",0,"c","c",TRUE,1,-0.944522155103701
"CVOE_B",10,1,2,45,"S 33","","",TRUE,"CV","q",579,"cv","S",3,"c","c",TRUE,1,-0.928366248744626
"CVOE_B",10,1,2,46,"P 57","","",TRUE,"CV","q",574,"cv","P",7,"c","c",TRUE,1,-0.931597430016441
"CVOE_B",10,1,2,47,"E 23","","",FALSE,"CV","p",601,"cv","E",3,"v","v",TRUE,1,-0.91414905114864
"CVOE_B",10,1,2,48,"S 61","","",TRUE,"CV","q",697,"cv","S",1,"c","c",TRUE,1,-0.852110370729791
"CVOE_B",10,1,2,49,"U 67","","",FALSE,"CV","p",700,"cv","U",7,"v","v",TRUE,1,-0.850171661966702
"CVOE_B",10,1,2,50,"H 32","","",FALSE,"CV","q",600,"cv","H",2,"c","c",TRUE,1,-0.914795287403003
"CVOE_B",10,1,2,51,"U 50","","",TRUE,"CV","p",336,"cv","U",0,"v","v",TRUE,1,-1.08540165855483
"CVOE_B",10,1,2,52,"O 49","","",FALSE,"CV","p",1555,"cv","O",9,"v","v",TRUE,1,-0.297639664486337
"CVOE_B",10,1,2,53,"U 32","","",TRUE,"CV","p",580,"cv","U",2,"v","v",TRUE,1,-0.927720012490263
"CVOE_B",10,1,2,54,"J 78","","",FALSE,"CV","q",623,"cv","J",8,"c","c",TRUE,1,-0.899931853552653
"CVOE_B",10,1,2,55,"S 54","","",FALSE,"CV","q",613,"cv","S",4,"c","c",TRUE,1,-0.906394216096284
"CVOE_B",10,1,2,56,"J 27","","",TRUE,"CV","q",608,"cv","J",7,"c","c",TRUE,1,-0.909625397368099
"CVOE_B",10,1,2,57,"S 06","","",FALSE,"CV","q",1251,"cv","S",6,"c","c",TRUE,1,-0.494095485812689
"CVOE_B",10,1,2,58,"D 67","","",TRUE,"CV","q",1094,"cv","D",7,"c","c",TRUE,1,-0.59555457774768
"CVOE_B",10,1,2,59,"A 79","","",FALSE,"CV","p",513,"cv","A",9,"v","v",TRUE,1,-0.971017841532584
"CVOE_B",10,1,2,60,"S 52","","",FALSE,"CV","q",535,"cv","S",2,"c","c",TRUE,1,-0.956800643936598
"CVOE_B",10,1,2,61,"U 16","","",TRUE,"CV","p",1610,"cv","U",6,"v","v",TRUE,1,-0.262096670496372
"CVOE_B",10,1,2,62,"O 82","","",TRUE,"CV","p",1174,"cv","O",2,"v","v",TRUE,1,-0.54385567739864
"CVOE_B",10,1,2,63,"H 87","","",TRUE,"CV","q",801,"cv","H",7,"c","c",TRUE,1,-0.784901800276039
"CVOE_B",10,1,2,64,"I 32","","",TRUE,"CV","p",489,"cv","I",2,"v","v",TRUE,1,-0.986527511637296
"CVOE_B",10,1,2,65,"U 37","","",FALSE,"CV","p",541,"cv","U",7,"v","v",TRUE,1,-0.95292322641042
"CVOE_B",10,1,2,66,"I 42","","",TRUE,"CV","p",522,"cv","I",2,"v","v",TRUE,1,-0.965201715243317
"CVOE_B",10,1,2,67,"D 65","","",TRUE,"CV","q",939,"cv","D",5,"c","c",TRUE,1,-0.695721197173945
"CVOE_B",10,1,2,68,"U 77","","",FALSE,"CV","p",2078,"cv","U",7,"v","v",TRUE,1,0.0403418965455125
"CVOE_B",10,1,2,69,"E 12","","",TRUE,"CV","p",439,"cv","E",2,"v","v",TRUE,1,-1.01883932435545
"CVOE_B",10,1,2,70,"I 60","","",TRUE,"CV","p",375,"cv","I",0,"v","v",TRUE,1,-1.06019844463468
"CVOE_B",10,1,2,71,"J 36","","",FALSE,"CV","q",586,"cv","J",6,"c","c",TRUE,1,-0.923842594964085
"CVOE_B",10,1,2,72,"H 75","","",TRUE,"CV","q",640,"cv","H",5,"c","c",TRUE,1,-0.888945837228483
"CVOE_B",10,1,2,73,"I 50","","",TRUE,"CV","p",664,"cv","I",0,"v","v",TRUE,1,-0.87343616712377
"CVOE_B",10,1,2,74,"E 99","","",FALSE,"CV","p",2926,"cv","E",9,"v","v",TRUE,1,0.588350240245337
"CVOE_B",10,1,2,75,"A 86","","",TRUE,"CV","p",720,"cv","A",6,"v","v",TRUE,1,-0.837246936879443
"CVOE_B",10,1,2,76,"U 48","","",TRUE,"CV","p",752,"cv","U",8,"v","v",TRUE,1,-0.816567376739826
"CVOE_B",10,1,2,77,"E 01","","",FALSE,"CV","p",574,"cv","E",1,"v","v",TRUE,1,-0.931597430016441
"CVOE_B",10,1,2,78,"A 78","","",TRUE,"CV","p",409,"cv","A",8,"v","v",TRUE,1,-1.03822641198634
"CVOE_B",10,1,2,79,"P 60","","",FALSE,"CV","q",588,"cv","P",0,"c","c",TRUE,1,-0.922550122455359
"CVOE_B",10,1,2,80,"E 43","","",FALSE,"CV","p",538,"cv","E",3,"v","v",TRUE,1,-0.954861935173509
"CVOE_B",10,1,2,81,"D 69","","",TRUE,"CV","q",1317,"cv","D",9,"c","c",TRUE,1,-0.451443893024731
"CVOE_B",10,1,2,82,"H 11","","",TRUE,"CV","q",637,"cv","H",1,"c","c",TRUE,1,-0.890884545991572
"CVOE_B",10,1,2,83,"P 43","","",TRUE,"CV","q",534,"cv","P",3,"c","c",TRUE,1,-0.957446880190961
"CVOE_B",10,1,2,84,"O 67","","",FALSE,"CV","p",433,"cv","O",7,"v","v",TRUE,1,-1.02271674188162
"CVOE_B",10,1,2,85,"S 91","","",FALSE,"CV","q",599,"cv","S",1,"c","c",TRUE,1,-0.915441523657366
"CVOE_B",10,1,2,86,"J 68","","",TRUE,"CV","q",647,"cv","J",8,"c","c",TRUE,1,-0.884422183447942
"CVOE_B",10,1,2,87,"S 47","","",FALSE,"CV","q",903,"cv","S",7,"c","c",TRUE,1,-0.718985702331013
"CVOE_B",10,1,2,88,"I 81","","",TRUE,"CV","p",629,"cv","I",1,"v","v",TRUE,1,-0.896054436026475
"CVOE_B",10,1,2,89,"J 39","","",FALSE,"CV","q",2691,"cv","J",9,"c","c",TRUE,1,0.436484720470032
"CVOE_B",10,1,2,90,"A 11","","",TRUE,"CV","p",359,"cv","A",1,"v","v",TRUE,1,-1.07053822470449
"CVOE_B",10,1,2,91,"O 76","","",FALSE,"CV","p",343,"cv","O",6,"v","v",TRUE,1,-1.08087800477429
"CVOE_B",10,1,2,92,"A 62","","",FALSE,"CV","p",629,"cv","A",2,"v","v",TRUE,1,-0.896054436026475
"CVOE_B",10,1,2,93,"O 27","","",TRUE,"CV","p",1347,"cv","O",7,"v","v",TRUE,1,-0.432056805393841
"CVOE_B",10,1,2,94,"E 66","","",FALSE,"CV","p",1249,"cv","E",6,"v","v",TRUE,1,-0.495387958321415
"CVOE_B",10,1,2,95,"J 62","","",TRUE,"CV","q",476,"cv","J",2,"c","c",TRUE,1,-0.994928582944015
"CVOE_B",10,1,2,96,"H 72","","",TRUE,"CV","q",549,"cv","H",2,"c","c",TRUE,1,-0.947753336375516
"CVOE_B",10,1,2,97,"E 49","","",TRUE,"CV","p",762,"cv","E",9,"v","v",TRUE,1,-0.810105014196196
"CVOE_B",10,1,2,98,"D 52","","",TRUE,"CV","q",747,"cv","D",2,"c","c",TRUE,1,-0.819798558011641
"CVOE_B",10,1,2,99,"H 62","","",TRUE,"CV","q",673,"cv","H",2,"c","c",TRUE,1,-0.867620040834504
"CVOE_B",10,1,2,100,"I 11","","",TRUE,"CV","p",1182,"cv","I",1,"v","v",TRUE,1,-0.538685787363736
"CVOE_B",10,1,2,101,"A 98","","",FALSE,"CV","p",580,"cv","A",8,"v","v",TRUE,1,-0.927720012490263
"CVOE_B",10,1,2,102,"H 29","","",FALSE,"CV","q",631,"cv","H",9,"c","c",TRUE,1,-0.89476196351775
"CVOE_B",10,1,2,103,"E 83","","",TRUE,"CV","p",437,"cv","E",3,"v","v",TRUE,1,-1.02013179686417
"CVOE_B",10,1,2,104,"D 43","","",FALSE,"CV","q",694,"cv","D",3,"c","c",TRUE,1,-0.85404907949288
"CVOE_B",10,1,2,105,"P 45","","",TRUE,"CV","q",2057,"cv","P",5,"c","c",TRUE,1,0.0267709352038895
"CVOE_B",10,1,2,106,"J 17","","",TRUE,"CV","q",524,"cv","J",7,"c","c",TRUE,1,-0.963909242734591
"CVOE_B",6,1,2,12,"I 66","","",TRUE,"CV","p",1477,"cv","I",6,"v","v",TRUE,1,0.137468717890872
"CVOE_B",6,1,2,13,"S 30","","",FALSE,"CV","q",894,"cv","S",0,"c","c",TRUE,1,-0.462592313914795
"CVOE_B",6,1,2,14,"D 20","","",FALSE,"CV","q",1961,"cv","D",0,"c","c",TRUE,1,0.63563259335218
"CVOE_B",6,1,2,15,"I 31","","",FALSE,"CV","p",978,"cv","I",1,"v","v",TRUE,1,-0.376134120652915
"CVOE_B",6,1,2,16,"P 16","","",FALSE,"CV","q",885,"cv","P",6,"c","c",TRUE,1,-0.471855691764282
"CVOE_B",6,1,2,17,"A 49","","",FALSE,"CV","p",934,"cv","A",9,"v","v",TRUE,1,-0.421421745694852
"CVOE_B",6,1,2,18,"O 64","","",TRUE,"CV","p",721,"cv","O",4,"v","v",TRUE,1,-0.640655021466048
"CVOE_B",6,1,2,19,"D 02","","",FALSE,"CV","q",770,"cv","D",2,"c","c",TRUE,1,-0.590221075396618
"CVOE_B",6,1,2,20,"P 81","","",TRUE,"CV","q",805,"cv","P",1,"c","c",TRUE,1,-0.554196828204168
"CVOE_B",6,1,2,21,"J 58","","",FALSE,"CV","q",749,"cv","J",8,"c","c",TRUE,1,-0.611835623712088
"CVOE_B",6,1,2,22,"A 22","","",TRUE,"CV","p",763,"cv","A",2,"v","v",TRUE,1,-0.597425924835108
"CVOE_B",6,1,2,23,"J 72","","",FALSE,"CV","q",972,"cv","J",2,"c","c",TRUE,1,-0.382309705885906
"CVOE_B",6,1,2,24,"P 91","","",TRUE,"CV","q",1671,"cv","P",1,"c","c",TRUE,1,0.337145973757594
"CVOE_B",6,1,2,25,"E 19","","",FALSE,"CV","p",773,"cv","E",9,"v","v",TRUE,1,-0.587133282780122
"CVOE_B",6,1,2,26,"I 30","","",TRUE,"CV","p",936,"cv","I",0,"v","v",TRUE,1,-0.419363217283855
"CVOE_B",6,1,2,27,"D 91","","",TRUE,"CV","q",675,"cv","D",1,"c","c",TRUE,1,-0.688001174918982
"CVOE_B",6,1,2,28,"O 48","","",TRUE,"CV","p",892,"cv","O",8,"v","v",TRUE,1,-0.464650842325792
"CVOE_B",6,1,2,29,"A 89","","",FALSE,"CV","p",807,"cv","A",9,"v","v",TRUE,1,-0.552138299793171
"CVOE_B",6,1,2,30,"U 11","","",FALSE,"CV","p",882,"cv","U",1,"v","v",TRUE,1,-0.474943484380778
"CVOE_B",6,1,2,31,"I 76","","",TRUE,"CV","p",715,"cv","I",6,"v","v",TRUE,1,-0.646830606699039
"CVOE_B",6,1,2,32,"U 89","","",FALSE,"CV","p",859,"cv","U",9,"v","v",TRUE,1,-0.498616561107245
"CVOE_B",6,1,2,33,"D 63","","",TRUE,"CV","q",654,"cv","D",3,"c","c",TRUE,1,-0.709615723234452
"CVOE_B",6,1,2,34,"H 70","","",FALSE,"CV","q",1257,"cv","H",0,"c","c",TRUE,1,-0.0889694073188139
"CVOE_B",6,1,2,35,"D 48","","",FALSE,"CV","q",1205,"cv","D",8,"c","c",TRUE,1,-0.14249114600474
"CVOE_B",6,1,2,36,"P 56","","",FALSE,"CV","q",1117,"cv","P",6,"c","c",TRUE,1,-0.233066396088614
"CVOE_B",6,1,2,37,"O 77","","",FALSE,"CV","p",606,"cv","O",7,"v","v",TRUE,1,-0.759020405098383
"CVOE_B",6,1,2,38,"P 42","","",FALSE,"CV","q",1230,"cv","P",2,"c","c",TRUE,1,-0.116759540867275
"CVOE_B",6,1,2,39,"H 22","","",FALSE,"CV","q",2244,"cv","H",2,"c","c",TRUE,1,0.926914363508275
"CVOE_B",6,1,2,40,"E 42","","",TRUE,"CV","p",654,"cv","E",2,"v","v",TRUE,1,-0.709615723234452
"CVOE_B",6,1,2,41,"J 28","","",FALSE,"CV","q",657,"cv","J",8,"c","c",TRUE,1,-0.706527930617956
"CVOE_B",6,1,2,42,"E 95","","",FALSE,"CV","p",604,"cv","E",5,"v","v",TRUE,1,-0.76107893350938
"CVOE_B",6,1,2,43,"S 63","","",TRUE,"CV","q",668,"cv","S",3,"c","c",TRUE,1,-0.695206024357472
"CVOE_B",6,1,2,44,"H 50","","",FALSE,"CV","q",746,"cv","H",0,"c","c",TRUE,1,-0.614923416328583
"CVOE_B",6,1,2,45,"S 33","","",TRUE,"CV","p",696,"cv","S",3,"c","v",FALSE,0,-0.666386626603512
"CVOE_B",6,1,2,46,"P 57","","",TRUE,"CV","q",3707,"cv","P",7,"c","c",TRUE,1,2.43272789615268
"CVOE_B",6,1,2,47,"E 23","","",FALSE,"CV","p",850,"cv","E",3,"v","v",TRUE,1,-0.507879938956732
"CVOE_B",6,1,2,48,"S 61","","",TRUE,"CV","q",2413,"cv","S",1,"c","c",TRUE,1,1.10086001423753
"CVOE_B",6,1,2,49,"U 67","","",FALSE,"CV","p",761,"cv","U",7,"v","v",TRUE,1,-0.599484453246105
"CVOE_B",6,1,2,50,"H 32","","",FALSE,"CV","q",913,"cv","H",2,"c","c",TRUE,1,-0.443036294010322
"CVOE_B",6,1,2,51,"U 50","","",TRUE,"CV","p",679,"cv","U",0,"v","v",TRUE,1,-0.683884118096988
"CVOE_B",6,1,2,52,"O 49","","",FALSE,"CV","p",920,"cv","O",9,"v","v",TRUE,1,-0.435831444571832
"CVOE_B",6,1,2,53,"U 32","","",TRUE,"CV","p",688,"cv","U",2,"v","v",TRUE,1,-0.674620740247501
"CVOE_B",6,1,2,54,"J 78","","",FALSE,"CV","q",747,"cv","J",8,"c","c",TRUE,1,-0.613894152123085
"CVOE_B",6,1,2,55,"S 54","","",FALSE,"CV","q",881,"cv","S",4,"c","c",TRUE,1,-0.475972748586276
"CVOE_B",6,1,2,56,"J 27","","",TRUE,"CV","q",762,"cv","J",7,"c","c",TRUE,1,-0.598455189040606
"CVOE_B",6,1,2,57,"S 06","","",FALSE,"CV","q",906,"cv","S",6,"c","c",TRUE,1,-0.450241143448812
"CVOE_B",6,1,2,58,"D 67","","",TRUE,"CV","q",744,"cv","D",7,"c","c",TRUE,1,-0.616981944739581
"CVOE_B",6,1,2,59,"A 79","","",FALSE,"CV","p",766,"cv","A",9,"v","v",TRUE,1,-0.594338132218612
"CVOE_B",6,1,2,60,"S 52","","",FALSE,"CV","q",894,"cv","S",2,"c","c",TRUE,1,-0.462592313914795
"CVOE_B",6,1,2,61,"U 16","","",TRUE,"CV","p",874,"cv","U",6,"v","v",TRUE,1,-0.483177598024766
"CVOE_B",6,1,2,62,"O 82","","",TRUE,"CV","p",1402,"cv","O",2,"v","v",TRUE,1,0.0602739024784788
"CVOE_B",6,1,2,63,"H 87","","",TRUE,"CV","q",779,"cv","H",7,"c","c",TRUE,1,-0.580957697547131
"CVOE_B",6,1,2,64,"I 32","","",TRUE,"CV","p",894,"cv","I",2,"v","v",TRUE,1,-0.462592313914795
"CVOE_B",6,1,2,65,"U 37","","",FALSE,"CV","p",752,"cv","U",7,"v","v",TRUE,1,-0.608747831095592
"CVOE_B",6,1,2,66,"I 42","","",TRUE,"CV","p",2095,"cv","I",2,"v","v",TRUE,1,0.773553996888988
"CVOE_B",6,1,2,67,"D 65","","",TRUE,"CV","q",875,"cv","D",5,"c","c",TRUE,1,-0.482148333819268
"CVOE_B",6,1,2,68,"U 77","","",FALSE,"CV","p",691,"cv","U",7,"v","v",TRUE,1,-0.671532947631005
"CVOE_B",6,1,2,69,"E 12","","",TRUE,"CV","p",758,"cv","E",2,"v","v",TRUE,1,-0.6025722458626
"CVOE_B",6,1,2,70,"I 60","","",TRUE,"CV","p",783,"cv","I",0,"v","v",TRUE,1,-0.576840640725136
"CVOE_B",6,1,2,71,"J 36","","",FALSE,"CV","q",741,"cv","J",6,"c","c",TRUE,1,-0.620069737356076
"CVOE_B",6,1,2,72,"H 75","","",TRUE,"CV","q",802,"cv","H",5,"c","c",TRUE,1,-0.557284620820663
"CVOE_B",6,1,2,73,"I 50","","",TRUE,"CV","p",675,"cv","I",0,"v","v",TRUE,1,-0.688001174918982
"CVOE_B",6,1,2,74,"E 99","","",FALSE,"CV","p",907,"cv","E",9,"v","v",TRUE,1,-0.449211879243314
"CVOE_B",6,1,2,75,"A 86","","",TRUE,"CV","p",873,"cv","A",6,"v","v",TRUE,1,-0.484206862230265
"CVOE_B",6,1,2,76,"U 48","","",TRUE,"CV","p",791,"cv","U",8,"v","v",TRUE,1,-0.568606527081148
"CVOE_B",6,1,2,77,"E 01","","",FALSE,"CV","p",693,"cv","E",1,"v","v",TRUE,1,-0.669474419220008
"CVOE_B",6,1,2,78,"A 78","","",TRUE,"CV","p",752,"cv","A",8,"v","v",TRUE,1,-0.608747831095592
"CVOE_B",6,1,2,79,"P 60","","",FALSE,"CV","q",814,"cv","P",0,"c","c",TRUE,1,-0.544933450354681
"CVOE_B",6,1,2,80,"E 43","","",FALSE,"CV","p",673,"cv","E",3,"v","v",TRUE,1,-0.690059703329979
"CVOE_B",6,1,2,81,"D 69","","",TRUE,"CV","q",1798,"cv","D",9,"c","c",TRUE,1,0.467862527855913
"CVOE_B",6,1,2,82,"H 11","","",TRUE,"CV","q",935,"cv","H",1,"c","c",TRUE,1,-0.420392481489354
"CVOE_B",6,1,2,83,"P 43","","",TRUE,"CV","q",955,"cv","P",3,"c","c",TRUE,1,-0.399807197379382
"CVOE_B",6,1,2,84,"O 67","","",FALSE,"CV","p",660,"cv","O",7,"v","v",TRUE,1,-0.70344013800146
"CVOE_B",6,1,2,85,"S 91","","",FALSE,"CV","q",678,"cv","S",1,"c","c",TRUE,1,-0.684913382302486
"CVOE_B",6,1,2,86,"J 68","","",TRUE,"CV","q",1574,"cv","J",8,"c","c",TRUE,1,0.237307345824233
"CVOE_B",6,1,2,87,"S 47","","",FALSE,"CV","q",499,"cv","S",7,"c","c",TRUE,1,-0.86915167508673
"CVOE_B",6,1,2,88,"I 81","","",TRUE,"CV","p",678,"cv","I",1,"v","v",TRUE,1,-0.684913382302486
"CVOE_B",6,1,2,89,"J 39","","",FALSE,"CV","q",806,"cv","J",9,"c","c",TRUE,1,-0.553167563998669
"CVOE_B",6,1,2,90,"A 11","","",TRUE,"CV","p",663,"cv","A",1,"v","v",TRUE,1,-0.700352345384965
"CVOE_B",6,1,2,91,"O 76","","",FALSE,"CV","p",1491,"cv","O",6,"v","v",TRUE,1,0.151878416767852
"CVOE_B",6,1,2,92,"A 62","","",FALSE,"CV","p",720,"cv","A",2,"v","v",TRUE,1,-0.641684285671546
"CVOE_B",6,1,2,93,"O 27","","",TRUE,"CV","p",920,"cv","O",7,"v","v",TRUE,1,-0.435831444571832
"CVOE_B",6,1,2,94,"E 66","","",FALSE,"CV","p",641,"cv","E",6,"v","v",TRUE,1,-0.722996157905933
"CVOE_B",6,1,2,95,"J 62","","",TRUE,"CV","q",769,"cv","J",2,"c","c",TRUE,1,-0.591250339602116
"CVOE_B",6,1,2,96,"H 72","","",TRUE,"CV","q",620,"cv","H",2,"c","c",TRUE,1,-0.744610706221403
"CVOE_B",6,1,2,97,"E 49","","",TRUE,"CV","p",530,"cv","E",9,"v","v",TRUE,1,-0.837244484716275
"CVOE_B",6,1,2,98,"D 52","","",TRUE,"CV","q",653,"cv","D",2,"c","c",TRUE,1,-0.71064498743995
"CVOE_B",6,1,2,99,"H 62","","",TRUE,"CV","q",568,"cv","H",2,"c","c",TRUE,1,-0.798132444907329
"CVOE_B",6,1,2,100,"I 11","","",TRUE,"CV","p",660,"cv","I",1,"v","v",TRUE,1,-0.70344013800146
"CVOE_B",6,1,2,101,"A 98","","",FALSE,"CV","p",1054,"cv","A",8,"v","v",TRUE,1,-0.297910041035024
"CVOE_B",6,1,2,102,"H 29","","",FALSE,"CV","q",890,"cv","H",9,"c","c",TRUE,1,-0.466709370736789
"CVOE_B",6,1,2,103,"E 83","","",TRUE,"CV","p",789,"cv","E",3,"v","v",TRUE,1,-0.570665055492145
"CVOE_B",6,1,2,104,"D 43","","",FALSE,"CV","q",1587,"cv","D",3,"c","c",TRUE,1,0.250687780495714
"CVOE_B",6,1,2,105,"P 45","","",TRUE,"CV","q",681,"cv","P",5,"c","c",TRUE,1,-0.68182558968599
"CVOE_B",6,1,2,106,"J 17","","",TRUE,"CV","q",546,"cv","J",7,"c","c",TRUE,1,-0.820776257428298
"CVOE_C",3,1,2,12,"I 66","","",TRUE,"CV","p",678,"cv","I",6,"v","v",TRUE,1,-0.550890137553096
"CVOE_C",3,1,2,13,"S 30","","",FALSE,"CV","q",743,"cv","S",0,"c","c",TRUE,1,-0.468238956411341
"CVOE_C",3,1,2,14,"D 20","","",FALSE,"CV","q",765,"cv","D",0,"c","c",TRUE,1,-0.440264710486439
"CVOE_C",3,1,2,15,"I 31","","",FALSE,"CV","p",533,"cv","I",1,"v","v",TRUE,1,-0.735265849330859
"CVOE_C",3,1,2,16,"P 16","","",FALSE,"CV","q",568,"cv","P",6,"c","c",TRUE,1,-0.690761367177606
"CVOE_C",3,1,2,17,"A 49","","",FALSE,"CV","p",643,"cv","A",9,"v","v",TRUE,1,-0.595394619706349
"CVOE_C",3,1,2,18,"O 64","","",TRUE,"CV","p",524,"cv","O",4,"v","v",TRUE,1,-0.746709859027409
"CVOE_C",3,1,2,19,"D 02","","",FALSE,"CV","q",532,"cv","D",2,"c","c",TRUE,1,-0.736537405963809
"CVOE_C",3,1,2,20,"P 81","","",TRUE,"CV","q",871,"cv","P",1,"c","c",TRUE,1,-0.30547970739373
"CVOE_C",3,1,2,21,"J 58","","",FALSE,"CV","q",797,"cv","J",8,"c","c",TRUE,1,-0.399574898232036
"CVOE_C",3,1,2,22,"A 22","","",TRUE,"CV","p",557,"cv","A",2,"v","v",TRUE,1,-0.704748490140057
"CVOE_C",3,1,2,23,"J 72","","",FALSE,"CV","q",678,"cv","J",2,"c","c",TRUE,1,-0.550890137553096
"CVOE_C",3,1,2,24,"P 91","","",TRUE,"CV","q",454,"cv","P",1,"c","c",TRUE,1,-0.835718823333915
"CVOE_C",3,1,2,25,"E 19","","",FALSE,"CV","p",513,"cv","E",9,"v","v",TRUE,1,-0.76069698198986
"CVOE_C",3,1,2,26,"I 30","","",TRUE,"CV","p",482,"cv","I",0,"v","v",TRUE,1,-0.800115237611313
"CVOE_C",3,1,2,27,"D 91","","",TRUE,"CV","q",378,"cv","D",1,"c","c",TRUE,1,-0.932357127438122
"CVOE_C",3,1,2,28,"O 48","","",TRUE,"CV","p",589,"cv","O",8,"v","v",TRUE,1,-0.664058677885654
"CVOE_C",3,1,2,29,"A 89","","",FALSE,"CV","p",531,"cv","A",9,"v","v",TRUE,1,-0.737808962596759
"CVOE_C",3,1,2,30,"U 11","","",FALSE,"CV","q",382,"cv","U",1,"v","c",FALSE,0,-0.927270900906321
"CVOE_C",3,1,2,31,"I 76","","",TRUE,"CV","p",684,"cv","I",6,"v","v",TRUE,1,-0.543260797755396
"CVOE_C",3,1,2,32,"U 89","","",FALSE,"CV","p",380,"cv","U",9,"v","v",TRUE,1,-0.929814014172222
"CVOE_C",3,1,2,33,"D 63","","",TRUE,"CV","q",562,"cv","D",3,"c","c",TRUE,1,-0.698390706975306
"CVOE_C",3,1,2,34,"H 70","","",FALSE,"CV","q",874,"cv","H",0,"c","c",TRUE,1,-0.30166503749488
"CVOE_C",3,1,2,35,"D 48","","",FALSE,"CV","q",475,"cv","D",8,"c","c",TRUE,1,-0.809016134041963
"CVOE_C",3,1,2,36,"P 56","","",FALSE,"CV","q",475,"cv","P",6,"c","c",TRUE,1,-0.809016134041963
"CVOE_C",3,1,2,37,"O 77","","",FALSE,"CV","p",643,"cv","O",7,"v","v",TRUE,1,-0.595394619706349
"CVOE_C",3,1,2,38,"P 42","","",FALSE,"CV","q",804,"cv","P",2,"c","c",TRUE,1,-0.390674001801386
"CVOE_C",3,1,2,39,"H 22","","",FALSE,"CV","q",484,"cv","H",2,"c","c",TRUE,1,-0.797572124345413
"CVOE_C",3,1,2,40,"E 42","","",TRUE,"CV","p",485,"cv","E",2,"v","v",TRUE,1,-0.796300567712463
"CVOE_C",3,1,2,41,"J 28","","",FALSE,"CV","q",389,"cv","J",8,"c","c",TRUE,1,-0.918370004475671
"CVOE_C",3,1,2,42,"E 95","","",FALSE,"CV","q",491,"cv","E",5,"v","c",FALSE,0,-0.788671227914762
"CVOE_C",3,1,2,43,"S 63","","",TRUE,"CV","q",814,"cv","S",3,"c","c",TRUE,1,-0.377958435471885
"CVOE_C",3,1,2,44,"H 50","","",FALSE,"CV","q",521,"cv","H",0,"c","c",TRUE,1,-0.75052452892626
"CVOE_C",3,1,2,45,"S 33","","",TRUE,"CV","q",985,"cv","S",3,"c","c",TRUE,1,-0.160522251237421
"CVOE_C",3,1,2,46,"P 57","","",TRUE,"CV","q",543,"cv","P",7,"c","c",TRUE,1,-0.722550283001358
"CVOE_C",3,1,2,47,"E 23","","",FALSE,"CV","p",901,"cv","E",3,"v","v",TRUE,1,-0.267333008405228
"CVOE_C",3,1,2,48,"S 61","","",TRUE,"CV","q",763,"cv","S",1,"c","c",TRUE,1,-0.442807823752339
"CVOE_C",3,1,2,49,"U 67","","",FALSE,"CV","p",771,"cv","U",7,"v","v",TRUE,1,-0.432635370688739
"CVOE_C",3,1,2,50,"H 32","","",FALSE,"CV","q",607,"cv","H",2,"c","c",TRUE,1,-0.641170658492552
"CVOE_C",3,1,2,51,"U 50","","",TRUE,"CV","p",498,"cv","U",0,"v","v",TRUE,1,-0.779770331484112
"CVOE_C",3,1,2,52,"O 49","","",FALSE,"CV","p",469,"cv","O",9,"v","v",TRUE,1,-0.816645473839664
"CVOE_C",3,1,2,53,"U 32","","",TRUE,"CV","p",434,"cv","U",2,"v","v",TRUE,1,-0.861149955992917
"CVOE_C",3,1,2,54,"J 78","","",FALSE,"CV","q",667,"cv","J",8,"c","c",TRUE,1,-0.564877260515547
"CVOE_C",3,1,2,55,"S 54","","",FALSE,"CV","q",849,"cv","S",4,"c","c",TRUE,1,-0.333453953318632
"CVOE_C",3,1,2,56,"J 27","","",TRUE,"CV","q",612,"cv","J",7,"c","c",TRUE,1,-0.634812875327802
"CVOE_C",3,1,2,57,"S 06","","",FALSE,"CV","q",759,"cv","S",6,"c","c",TRUE,1,-0.44789405028414
"CVOE_C",3,1,2,58,"D 67","","",TRUE,"CV","q",1023,"cv","D",7,"c","c",TRUE,1,-0.112203099185317
"CVOE_C",3,1,2,59,"A 79","","",FALSE,"CV","p",701,"cv","A",9,"v","v",TRUE,1,-0.521644334995245
"CVOE_C",3,1,2,60,"S 52","","",FALSE,"CV","q",1147,"cv","S",2,"c","c",TRUE,1,0.0454699233004929
"CVOE_C",3,1,2,61,"U 16","","",TRUE,"CV","p",593,"cv","U",6,"v","v",TRUE,1,-0.658972451353854
"CVOE_C",3,1,2,62,"O 82","","",TRUE,"CV","p",434,"cv","O",2,"v","v",TRUE,1,-0.861149955992917
"CVOE_C",3,1,2,63,"H 87","","",TRUE,"CV","q",474,"cv","H",7,"c","c",TRUE,1,-0.810287690674914
"CVOE_C",3,1,2,64,"I 32","","",TRUE,"CV","p",586,"cv","I",2,"v","v",TRUE,1,-0.667873347784504
"CVOE_C",3,1,2,65,"U 37","","",FALSE,"CV","p",496,"cv","U",7,"v","v",TRUE,1,-0.782313444750012
"CVOE_C",3,1,2,66,"I 42","","",TRUE,"CV","p",483,"cv","I",2,"v","v",TRUE,1,-0.798843680978363
"CVOE_C",3,1,2,67,"D 65","","",TRUE,"CV","q",603,"cv","D",5,"c","c",TRUE,1,-0.646256885024353
"CVOE_C",3,1,2,68,"U 77","","",FALSE,"CV","p",604,"cv","U",7,"v","v",TRUE,1,-0.644985328391403
"CVOE_C",3,1,2,69,"E 12","","",TRUE,"CV","p",492,"cv","E",2,"v","v",TRUE,1,-0.787399671281812
"CVOE_C",3,1,2,70,"I 60","","",TRUE,"CV","p",383,"cv","I",0,"v","v",TRUE,1,-0.925999344273371
"CVOE_C",3,1,2,71,"J 36","","",FALSE,"CV","q",541,"cv","J",6,"c","c",TRUE,1,-0.725093396267258
"CVOE_C",3,1,2,72,"H 75","","",TRUE,"CV","q",555,"cv","H",5,"c","c",TRUE,1,-0.707291603405957
"CVOE_C",3,1,2,73,"I 50","","",TRUE,"CV","p",459,"cv","I",0,"v","v",TRUE,1,-0.829361040169165
"CVOE_C",3,1,2,74,"E 99","","",FALSE,"CV","q",446,"cv","E",9,"v","c",FALSE,0,-0.845891276397516
"CVOE_C",3,1,2,75,"A 86","","",TRUE,"CV","p",519,"cv","A",6,"v","v",TRUE,1,-0.75306764219216
"CVOE_C",3,1,2,76,"U 48","","",TRUE,"CV","p",367,"cv","U",8,"v","v",TRUE,1,-0.946344250400573
"CVOE_C",3,1,2,77,"E 01","","",FALSE,"CV","p",370,"cv","E",1,"v","v",TRUE,1,-0.942529580501722
"CVOE_C",3,1,2,78,"A 78","","",TRUE,"CV","p",1013,"cv","A",8,"v","v",TRUE,1,-0.124918665514818
"CVOE_C",3,1,2,79,"P 60","","",FALSE,"CV","q",728,"cv","P",0,"c","c",TRUE,1,-0.487312305905592
"CVOE_C",3,1,2,80,"E 43","","",FALSE,"CV","p",619,"cv","E",3,"v","v",TRUE,1,-0.625911978897151
"CVOE_C",3,1,2,81,"D 69","","",TRUE,"CV","q",646,"cv","D",9,"c","c",TRUE,1,-0.591579949807499
"CVOE_C",3,1,2,82,"H 11","","",TRUE,"CV","q",634,"cv","H",1,"c","c",TRUE,1,-0.6068386294029
"CVOE_C",3,1,2,83,"P 43","","",TRUE,"CV","q",586,"cv","P",3,"c","c",TRUE,1,-0.667873347784504
"CVOE_C",3,1,2,84,"O 67","","",FALSE,"CV","p",536,"cv","O",7,"v","v",TRUE,1,-0.731451179432008
"CVOE_C",3,1,2,85,"S 91","","",FALSE,"CV","q",467,"cv","S",1,"c","c",TRUE,1,-0.819188587105564
"CVOE_C",3,1,2,86,"J 68","","",TRUE,"CV","q",441,"cv","J",8,"c","c",TRUE,1,-0.852249059562266
"CVOE_C",3,1,2,87,"S 47","","",FALSE,"CV","q",353,"cv","S",7,"c","c",TRUE,1,-0.964146043261874
"CVOE_C",3,1,2,88,"I 81","","",TRUE,"CV","p",511,"cv","I",1,"v","v",TRUE,1,-0.763240095255761
"CVOE_C",3,1,2,89,"J 39","","",FALSE,"CV","q",484,"cv","J",9,"c","c",TRUE,1,-0.797572124345413
"CVOE_C",3,1,2,90,"A 11","","",TRUE,"CV","p",509,"cv","A",1,"v","v",TRUE,1,-0.765783208521661
"CVOE_C",3,1,2,91,"O 76","","",FALSE,"CV","p",490,"cv","O",6,"v","v",TRUE,1,-0.789942784547712
"CVOE_C",3,1,2,92,"A 62","","",FALSE,"CV","p",406,"cv","A",2,"v","v",TRUE,1,-0.896753541715519
"CVOE_C",3,1,2,93,"O 27","","",TRUE,"CV","p",342,"cv","O",7,"v","v",TRUE,1,-0.978133166224325
"CVOE_C",3,1,2,94,"E 66","","",FALSE,"CV","p",420,"cv","E",6,"v","v",TRUE,1,-0.878951748854218
"CVOE_C",3,1,2,95,"J 62","","",TRUE,"CV","q",647,"cv","J",2,"c","c",TRUE,1,-0.590308393174549
"CVOE_C",3,1,2,96,"H 72","","",TRUE,"CV","p",530,"cv","H",2,"c","v",FALSE,0,-0.739080519229709
"CVOE_C",3,1,2,97,"E 49","","",TRUE,"CV","p",973,"cv","E",9,"v","v",TRUE,1,-0.175780930832822
"CVOE_C",3,1,2,98,"D 52","","",TRUE,"CV","q",648,"cv","D",2,"c","c",TRUE,1,-0.589036836541599
"CVOE_C",3,1,2,99,"H 62","","",TRUE,"CV","q",451,"cv","H",2,"c","c",TRUE,1,-0.839533493232765
"CVOE_C",3,1,2,100,"I 11","","",TRUE,"CV","p",694,"cv","I",1,"v","v",TRUE,1,-0.530545231425895
"CVOE_C",3,1,2,101,"A 98","","",FALSE,"CV","p",425,"cv","A",8,"v","v",TRUE,1,-0.872593965689468
"CVOE_C",3,1,2,102,"H 29","","",FALSE,"CV","q",559,"cv","H",9,"c","c",TRUE,1,-0.702205376874157
"CVOE_C",3,1,2,103,"E 83","","",TRUE,"CV","q",479,"cv","E",3,"v","c",FALSE,0,-0.803929907510163
"CVOE_C",3,1,2,104,"D 43","","",FALSE,"CV","q",1089,"cv","D",3,"c","c",TRUE,1,-0.0282803614106119
"CVOE_C",3,1,2,105,"P 45","","",TRUE,"CV","q",555,"cv","P",5,"c","c",TRUE,1,-0.707291603405957
"CVOE_C",3,1,2,106,"J 17","","",TRUE,"CV","q",459,"cv","J",7,"c","c",TRUE,1,-0.829361040169165
"CVOE_C",11,1,2,11,"A 71","","",FALSE,"CV","p",2185,"cv","A",1,"v","v",TRUE,1,2.40847263504848
"CVOE_C",11,1,2,12,"I 66","","",TRUE,"CV","p",727,"cv","I",6,"v","v",TRUE,1,-0.406749587006693
"CVOE_C",11,1,2,13,"S 30","","",FALSE,"CV","q",575,"cv","S",0,"c","c",TRUE,1,-0.700243261733981
"CVOE_C",11,1,2,14,"D 20","","",FALSE,"CV","q",1930,"cv","D",0,"c","c",TRUE,1,1.91609837810468
"CVOE_C",11,1,2,15,"I 31","","",FALSE,"CV","p",574,"cv","I",1,"v","v",TRUE,1,-0.702174141172977
"CVOE_C",11,1,2,16,"P 16","","",FALSE,"CV","q",705,"cv","P",6,"c","c",TRUE,1,-0.44922893466459
"CVOE_C",11,1,2,17,"A 49","","",FALSE,"CV","p",775,"cv","A",9,"v","v",TRUE,1,-0.314067373934917
"CVOE_C",11,1,2,18,"O 64","","",TRUE,"CV","p",466,"cv","O",4,"v","v",TRUE,1,-0.910709120584471
"CVOE_C",11,1,2,19,"D 02","","",FALSE,"CV","q",544,"cv","D",2,"c","c",TRUE,1,-0.760100524342836
"CVOE_C",11,1,2,20,"P 81","","",TRUE,"CV","q",870,"cv","P",1,"c","c",TRUE,1,-0.130633827230362
"CVOE_C",11,1,2,21,"J 58","","",FALSE,"CV","q",499,"cv","J",8,"c","c",TRUE,1,-0.846990099097626
"CVOE_C",11,1,2,22,"A 22","","",TRUE,"CV","p",598,"cv","A",2,"v","v",TRUE,1,-0.655833034637089
"CVOE_C",11,1,2,23,"J 72","","",FALSE,"CV","q",559,"cv","J",2,"c","c",TRUE,1,-0.731137332757906
"CVOE_C",11,1,2,24,"P 91","","",TRUE,"CV","q",903,"cv","P",1,"c","c",TRUE,1,-0.0669148057435161
"CVOE_C",11,1,2,25,"E 19","","",FALSE,"CV","p",765,"cv","E",9,"v","v",TRUE,1,-0.33337616832487
"CVOE_C",11,1,2,26,"I 30","","",TRUE,"CV","p",398,"cv","I",0,"v","v",TRUE,1,-1.04200892243615
"CVOE_C",11,1,2,27,"D 91","","",TRUE,"CV","q",486,"cv","D",1,"c","c",TRUE,1,-0.872091531804565
"CVOE_C",11,1,2,28,"O 48","","",TRUE,"CV","p",550,"cv","O",8,"v","v",TRUE,1,-0.748515247708864
"CVOE_C",11,1,2,29,"A 89","","",FALSE,"CV","q",556,"cv","A",9,"v","c",FALSE,0,-0.736929971074892
"CVOE_C",11,1,2,30,"U 11","","",FALSE,"CV","p",1045,"cv","U",1,"v","v",TRUE,1,0.207270074593819
"CVOE_C",11,1,2,31,"I 76","","",TRUE,"CV","p",1189,"cv","I",6,"v","v",TRUE,1,0.485316713809146
"CVOE_C",11,1,2,32,"U 89","","",FALSE,"CV","p",483,"cv","U",9,"v","v",TRUE,1,-0.877884170121551
"CVOE_C",11,1,2,33,"D 63","","",TRUE,"CV","q",892,"cv","D",3,"c","c",TRUE,1,-0.0881544795724646
"CVOE_C",11,1,2,34,"H 70","","",FALSE,"CV","q",495,"cv","H",0,"c","c",TRUE,1,-0.854713616853607
"CVOE_C",11,1,2,35,"D 48","","",FALSE,"CV","q",858,"cv","D",8,"c","c",TRUE,1,-0.153804380498306
"CVOE_C",11,1,2,36,"P 56","","",FALSE,"CV","q",429,"cv","P",6,"c","c",TRUE,1,-0.982151659827298
"CVOE_C",11,1,2,37,"O 77","","",FALSE,"CV","p",859,"cv","O",7,"v","v",TRUE,1,-0.15187350105931
"CVOE_C",11,1,2,38,"P 42","","",FALSE,"CV","q",654,"cv","P",2,"c","c",TRUE,1,-0.547703786053351
"CVOE_C",11,1,2,39,"H 22","","",FALSE,"CV","q",897,"cv","H",2,"c","c",TRUE,1,-0.078500082377488
"CVOE_C",11,1,2,40,"E 42","","",TRUE,"CV","p",564,"cv","E",2,"v","v",TRUE,1,-0.72148293556293
"CVOE_C",11,1,2,41,"J 28","","",FALSE,"CV","q",485,"cv","J",8,"c","c",TRUE,1,-0.87402241124356
"CVOE_C",11,1,2,42,"E 95","","",FALSE,"CV","p",509,"cv","E",5,"v","v",TRUE,1,-0.827681304707672
"CVOE_C",11,1,2,43,"S 63","","",TRUE,"CV","q",387,"cv","S",3,"c","c",TRUE,1,-1.0632485962651
"CVOE_C",11,1,2,44,"H 50","","",FALSE,"CV","q",496,"cv","H",0,"c","c",TRUE,1,-0.852782737414612
"CVOE_C",11,1,2,45,"S 33","","",TRUE,"CV","q",595,"cv","S",3,"c","c",TRUE,1,-0.661625672954075
"CVOE_C",11,1,2,46,"P 57","","",TRUE,"CV","q",460,"cv","P",7,"c","c",TRUE,1,-0.922294397218443
"CVOE_C",11,1,2,47,"E 23","","",FALSE,"CV","p",567,"cv","E",3,"v","v",TRUE,1,-0.715690297245944
"CVOE_C",11,1,2,48,"S 61","","",TRUE,"CV","q",695,"cv","S",1,"c","c",TRUE,1,-0.468537729054543
"CVOE_C",11,1,2,49,"U 67","","",FALSE,"CV","p",490,"cv","U",7,"v","v",TRUE,1,-0.864368014048584
"CVOE_C",11,1,2,50,"H 32","","",FALSE,"CV","q",397,"cv","H",2,"c","c",TRUE,1,-1.04393980187515
"CVOE_C",11,1,2,51,"U 50","","",TRUE,"CV","p",502,"cv","U",0,"v","v",TRUE,1,-0.84119746078064
"CVOE_C",11,1,2,52,"O 49","","",FALSE,"CV","p",619,"cv","O",9,"v","v",TRUE,1,-0.615284566418187
"CVOE_C",11,1,2,53,"U 32","","",TRUE,"CV","p",799,"cv","U",2,"v","v",TRUE,1,-0.267726267399029
"CVOE_C",11,1,2,54,"J 78","","",FALSE,"CV","q",527,"cv","J",8,"c","c",TRUE,1,-0.792925474805757
"CVOE_C",11,1,2,55,"S 54","","",FALSE,"CV","q",831,"cv","S",4,"c","c",TRUE,1,-0.205938125351179
"CVOE_C",11,1,2,56,"J 27","","",TRUE,"CV","q",421,"cv","J",7,"c","c",TRUE,1,-0.997598695339261
"CVOE_C",11,1,2,57,"S 06","","",FALSE,"CV","q",491,"cv","S",6,"c","c",TRUE,1,-0.862437134609588
"CVOE_C",11,1,2,58,"D 67","","",TRUE,"CV","q",446,"cv","D",7,"c","c",TRUE,1,-0.949326709364378
"CVOE_C",11,1,2,59,"A 79","","",FALSE,"CV","p",398,"cv","A",9,"v","v",TRUE,1,-1.04200892243615
"CVOE_C",11,1,2,60,"S 52","","",FALSE,"CV","q",479,"cv","S",2,"c","c",TRUE,1,-0.885607687877532
"CVOE_C",11,1,2,61,"U 16","","",TRUE,"CV","p",503,"cv","U",6,"v","v",TRUE,1,-0.839266581341644
"CVOE_C",11,1,2,62,"O 82","","",TRUE,"CV","p",837,"cv","O",2,"v","v",TRUE,1,-0.194352848717207
"CVOE_C",11,1,2,63,"H 87","","",TRUE,"CV","q",509,"cv","H",7,"c","c",TRUE,1,-0.827681304707672
"CVOE_C",11,1,2,64,"I 32","","",TRUE,"CV","p",451,"cv","I",2,"v","v",TRUE,1,-0.939672312169401
"CVOE_C",11,1,2,65,"U 37","","",FALSE,"CV","p",574,"cv","U",7,"v","v",TRUE,1,-0.702174141172977
"CVOE_C",11,1,2,66,"I 42","","",TRUE,"CV","p",409,"cv","I",2,"v","v",TRUE,1,-1.0207692486072
"CVOE_C",11,1,2,67,"D 65","","",TRUE,"CV","q",420,"cv","D",5,"c","c",TRUE,1,-0.999529574778256
"CVOE_C",11,1,2,68,"U 77","","",FALSE,"CV","p",447,"cv","U",7,"v","v",TRUE,1,-0.947395829925382
"CVOE_C",11,1,2,69,"E 12","","",TRUE,"CV","q",368,"cv","E",2,"v","c",FALSE,0,-1.09993530560601
"CVOE_C",11,1,2,70,"I 60","","",TRUE,"CV","p",544,"cv","I",0,"v","v",TRUE,1,-0.760100524342836
"CVOE_C",11,1,2,71,"J 36","","",FALSE,"CV","q",646,"cv","J",6,"c","c",TRUE,1,-0.563150821565313
"CVOE_C",11,1,2,72,"H 75","","",TRUE,"CV","q",646,"cv","H",5,"c","c",TRUE,1,-0.563150821565313
"CVOE_C",11,1,2,73,"I 50","","",TRUE,"CV","p",1543,"cv","I",0,"v","v",TRUE,1,1.16884803521349
"CVOE_C",11,1,2,74,"E 99","","",FALSE,"CV","p",381,"cv","E",9,"v","v",TRUE,1,-1.07483387289907
"CVOE_C",11,1,2,75,"A 86","","",TRUE,"CV","p",520,"cv","A",6,"v","v",TRUE,1,-0.806441630878724
"CVOE_C",11,1,2,76,"U 48","","",TRUE,"CV","p",408,"cv","U",8,"v","v",TRUE,1,-1.0227001280462
"CVOE_C",11,1,2,77,"E 01","","",FALSE,"CV","p",763,"cv","E",1,"v","v",TRUE,1,-0.337237927202861
"CVOE_C",11,1,2,78,"A 78","","",TRUE,"CV","p",460,"cv","A",8,"v","v",TRUE,1,-0.922294397218443
"CVOE_C",11,1,2,79,"P 60","","",FALSE,"CV","q",471,"cv","P",0,"c","c",TRUE,1,-0.901054723389495
"CVOE_C",11,1,2,80,"E 43","","",FALSE,"CV","p",428,"cv","E",3,"v","v",TRUE,1,-0.984082539266293
"CVOE_C",11,1,2,81,"D 69","","",TRUE,"CV","q",578,"cv","D",9,"c","c",TRUE,1,-0.694450623416995
"CVOE_C",11,1,2,82,"H 11","","",TRUE,"CV","q",1333,"cv","H",1,"c","c",TRUE,1,0.763363353024472
"CVOE_C",11,1,2,83,"P 43","","",TRUE,"CV","q",696,"cv","P",3,"c","c",TRUE,1,-0.466606849615547
"CVOE_C",11,1,2,84,"O 67","","",FALSE,"CV","p",460,"cv","O",7,"v","v",TRUE,1,-0.922294397218443
"CVOE_C",11,1,2,85,"S 91","","",FALSE,"CV","q",559,"cv","S",1,"c","c",TRUE,1,-0.731137332757906
"CVOE_C",11,1,2,86,"J 68","","",TRUE,"CV","q",407,"cv","J",8,"c","c",TRUE,1,-1.0246310074852
"CVOE_C",11,1,2,87,"S 47","","",FALSE,"CV","q",367,"cv","S",7,"c","c",TRUE,1,-1.10186618504501
"CVOE_C",11,1,2,88,"I 81","","",TRUE,"CV","p",568,"cv","I",1,"v","v",TRUE,1,-0.713759417806949
"CVOE_C",11,1,2,89,"J 39","","",FALSE,"CV","q",459,"cv","J",9,"c","c",TRUE,1,-0.924225276657438
"CVOE_C",11,1,2,90,"A 11","","",TRUE,"CV","p",502,"cv","A",1,"v","v",TRUE,1,-0.84119746078064
"CVOE_C",11,1,2,91,"O 76","","",FALSE,"CV","p",436,"cv","O",6,"v","v",TRUE,1,-0.968635503754331
"CVOE_C",11,1,2,92,"A 62","","",FALSE,"CV","p",372,"cv","A",2,"v","v",TRUE,1,-1.09221178785003
"CVOE_C",11,1,2,93,"O 27","","",TRUE,"CV","p",407,"cv","O",7,"v","v",TRUE,1,-1.0246310074852
"CVOE_C",11,1,2,94,"E 66","","",FALSE,"CV","p",439,"cv","E",6,"v","v",TRUE,1,-0.962842865437345
"CVOE_C",11,1,2,95,"J 62","","",TRUE,"CV","q",536,"cv","J",2,"c","c",TRUE,1,-0.775547559854799
"CVOE_C",11,1,2,96,"H 72","","",TRUE,"CV","q",483,"cv","H",2,"c","c",TRUE,1,-0.877884170121551
"CVOE_C",11,1,2,97,"E 49","","",TRUE,"CV","p",403,"cv","E",9,"v","v",TRUE,1,-1.03235452524118
"CVOE_C",11,1,2,98,"D 52","","",TRUE,"CV","q",467,"cv","D",2,"c","c",TRUE,1,-0.908778241145476
"CVOE_C",11,1,2,99,"H 62","","",TRUE,"CV","q",809,"cv","H",2,"c","c",TRUE,1,-0.248417473009076
"CVOE_C",11,1,2,100,"I 11","","",TRUE,"CV","p",516,"cv","I",1,"v","v",TRUE,1,-0.814165148634705
"CVOE_C",11,1,2,101,"A 98","","",FALSE,"CV","p",789,"cv","A",8,"v","v",TRUE,1,-0.287035061788983
"CVOE_C",11,1,2,102,"H 29","","",FALSE,"CV","q",507,"cv","H",9,"c","c",TRUE,1,-0.831543063585663
"CVOE_C",11,1,2,103,"E 83","","",TRUE,"CV","p",400,"cv","E",3,"v","v",TRUE,1,-1.03814716355816
"CVOE_C",11,1,2,104,"D 43","","",FALSE,"CV","q",537,"cv","D",3,"c","c",TRUE,1,-0.773616680415803
"CVOE_C",11,1,2,105,"P 45","","",TRUE,"CV","q",572,"cv","P",5,"c","c",TRUE,1,-0.706035900050967
"CVOE_C",11,1,2,106,"J 17","","",TRUE,"CV","q",375,"cv","J",7,"c","c",TRUE,1,-1.08641914953305
"CVOE_C",15,1,2,12,"I 66","","",TRUE,"CV","p",1180,"cv","I",6,"v","v",TRUE,1,2.09006732915313
"CVOE_C",15,1,2,13,"S 30","","",FALSE,"CV","q",442,"cv","S",0,"c","c",TRUE,1,-0.41460075186898
"CVOE_C",15,1,2,14,"D 20","","",FALSE,"CV","q",450,"cv","D",0,"c","c",TRUE,1,-0.387449878361966
"CVOE_C",15,1,2,15,"I 31","","",FALSE,"CV","p",430,"cv","I",1,"v","v",TRUE,1,-0.455327062129503
"CVOE_C",15,1,2,16,"P 16","","",FALSE,"CV","q",603,"cv","P",6,"c","c",TRUE,1,0.131810577459691
"CVOE_C",15,1,2,17,"A 49","","",FALSE,"CV","p",500,"cv","A",9,"v","v",TRUE,1,-0.217756918943124
"CVOE_C",15,1,2,18,"O 64","","",TRUE,"CV","p",415,"cv","O",4,"v","v",TRUE,1,-0.506234949955155
"CVOE_C",15,1,2,19,"D 02","","",FALSE,"CV","q",1338,"cv","D",2,"c","c",TRUE,1,2.62629708091667
"CVOE_C",15,1,2,20,"P 81","","",TRUE,"CV","q",437,"cv","P",1,"c","c",TRUE,1,-0.431570047810865
"CVOE_C",15,1,2,21,"J 58","","",FALSE,"CV","q",429,"cv","J",8,"c","c",TRUE,1,-0.458720921317879
"CVOE_C",15,1,2,22,"A 22","","",TRUE,"CV","p",419,"cv","A",2,"v","v",TRUE,1,-0.492659513201648
"CVOE_C",15,1,2,23,"J 72","","",FALSE,"CV","q",414,"cv","J",2,"c","c",TRUE,1,-0.509628809143532
"CVOE_C",15,1,2,24,"P 91","","",TRUE,"CV","q",377,"cv","P",1,"c","c",TRUE,1,-0.635201599113475
"CVOE_C",15,1,2,25,"E 19","","",FALSE,"CV","p",404,"cv","E",9,"v","v",TRUE,1,-0.543567401027301
"CVOE_C",15,1,2,26,"I 30","","",TRUE,"CV","p",413,"cv","I",0,"v","v",TRUE,1,-0.513022668331909
"CVOE_C",15,1,2,27,"D 91","","",TRUE,"CV","q",512,"cv","D",1,"c","c",TRUE,1,-0.177030608682601
"CVOE_C",15,1,2,28,"O 48","","",TRUE,"CV","p",381,"cv","O",8,"v","v",TRUE,1,-0.621626162359968
"CVOE_C",15,1,2,29,"A 89","","",FALSE,"CV","q",339,"cv","A",9,"v","c",FALSE,0,-0.764168248271795
"CVOE_C",15,1,2,30,"U 11","","",FALSE,"CV","q",614,"cv","U",1,"v","c",FALSE,0,0.169143028531837
"CVOE_C",15,1,2,31,"I 76","","",TRUE,"CV","p",481,"cv","I",6,"v","v",TRUE,1,-0.282240243522284
"CVOE_C",15,1,2,32,"U 89","","",FALSE,"CV","p",497,"cv","U",9,"v","v",TRUE,1,-0.227938496508254
"CVOE_C",15,1,2,33,"D 63","","",TRUE,"CV","q",628,"cv","D",3,"c","c",TRUE,1,0.216657057169112
"CVOE_C",15,1,2,34,"H 70","","",FALSE,"CV","q",674,"cv","H",0,"c","c",TRUE,1,0.372774579834447
"CVOE_C",15,1,2,35,"D 48","","",FALSE,"CV","q",467,"cv","D",8,"c","c",TRUE,1,-0.329754272159559
"CVOE_C",15,1,2,36,"P 56","","",FALSE,"CV","q",368,"cv","P",6,"c","c",TRUE,1,-0.665746331808867
"CVOE_C",15,1,2,37,"O 77","","",FALSE,"CV","p",379,"cv","O",7,"v","v",TRUE,1,-0.628413880736722
"CVOE_C",15,1,2,38,"P 42","","",FALSE,"CV","q",350,"cv","P",2,"c","c",TRUE,1,-0.72683579719965
"CVOE_C",15,1,2,39,"H 22","","",FALSE,"CV","q",404,"cv","H",2,"c","c",TRUE,1,-0.543567401027301
"CVOE_C",15,1,2,40,"E 42","","",TRUE,"CV","p",436,"cv","E",2,"v","v",TRUE,1,-0.434963906999241
"CVOE_C",15,1,2,41,"J 28","","",FALSE,"CV","q",405,"cv","J",8,"c","c",TRUE,1,-0.540173541838924
"CVOE_C",15,1,2,42,"E 95","","",FALSE,"CV","q",301,"cv","E",5,"v","c",FALSE,0,-0.893134897430115
"CVOE_C",15,1,2,43,"S 63","","",TRUE,"CV","q",523,"cv","S",3,"c","c",TRUE,1,-0.139698157610456
"CVOE_C",15,1,2,44,"H 50","","",FALSE,"CV","q",363,"cv","H",0,"c","c",TRUE,1,-0.682715627750751
"CVOE_C",15,1,2,45,"S 33","","",TRUE,"CV","q",467,"cv","S",3,"c","c",TRUE,1,-0.329754272159559
"CVOE_C",15,1,2,46,"P 57","","",TRUE,"CV","q",329,"cv","P",7,"c","c",TRUE,1,-0.798106840155564
"CVOE_C",15,1,2,47,"E 23","","",FALSE,"CV","p",348,"cv","E",3,"v","v",TRUE,1,-0.733623515576404
"CVOE_C",15,1,2,48,"S 61","","",TRUE,"CV","q",578,"cv","S",1,"c","c",TRUE,1,0.0469640977502702
"CVOE_C",15,1,2,49,"U 67","","",FALSE,"CV","p",669,"cv","U",7,"v","v",TRUE,1,0.355805283892563
"CVOE_C",15,1,2,50,"H 32","","",FALSE,"CV","q",547,"cv","H",2,"c","c",TRUE,1,-0.0582455370894119
"CVOE_C",15,1,2,51,"U 50","","",TRUE,"CV","p",312,"cv","U",0,"v","v",TRUE,1,-0.85580244635797
"CVOE_C",15,1,2,52,"O 49","","",FALSE,"CV","p",462,"cv","O",9,"v","v",TRUE,1,-0.346723568101444
"CVOE_C",15,1,2,53,"U 32","","",TRUE,"CV","p",388,"cv","U",2,"v","v",TRUE,1,-0.59786914804133
"CVOE_C",15,1,2,54,"J 78","","",FALSE,"CV","q",345,"cv","J",8,"c","c",TRUE,1,-0.743805093141534
"CVOE_C",15,1,2,55,"S 54","","",FALSE,"CV","q",367,"cv","S",4,"c","c",TRUE,1,-0.669140190997244
"CVOE_C",15,1,2,56,"J 27","","",TRUE,"CV","q",354,"cv","J",7,"c","c",TRUE,1,-0.713260360446143
"CVOE_C",15,1,2,57,"S 06","","",FALSE,"CV","q",1354,"cv","S",6,"c","c",TRUE,1,2.6805988279307
"CVOE_C",15,1,2,58,"D 67","","",TRUE,"CV","q",379,"cv","D",7,"c","c",TRUE,1,-0.628413880736722
"CVOE_C",15,1,2,59,"A 79","","",FALSE,"CV","p",462,"cv","A",9,"v","v",TRUE,1,-0.346723568101444
"CVOE_C",15,1,2,60,"S 52","","",FALSE,"CV","q",460,"cv","S",2,"c","c",TRUE,1,-0.353511286478197
"CVOE_C",15,1,2,61,"U 16","","",TRUE,"CV","p",431,"cv","U",6,"v","v",TRUE,1,-0.451933202941126
"CVOE_C",15,1,2,62,"O 82","","",TRUE,"CV","p",357,"cv","O",2,"v","v",TRUE,1,-0.703078782881012
"CVOE_C",15,1,2,63,"H 87","","",TRUE,"CV","q",349,"cv","H",7,"c","c",TRUE,1,-0.730229656388027
"CVOE_C",15,1,2,64,"I 32","","",TRUE,"CV","p",403,"cv","I",2,"v","v",TRUE,1,-0.546961260215677
"CVOE_C",15,1,2,65,"U 37","","",FALSE,"CV","p",803,"cv","U",7,"v","v",TRUE,1,0.81058241513506
"CVOE_C",15,1,2,66,"I 42","","",TRUE,"CV","p",355,"cv","I",2,"v","v",TRUE,1,-0.709866501257766
"CVOE_C",15,1,2,67,"D 65","","",TRUE,"CV","q",300,"cv","D",5,"c","c",TRUE,1,-0.896528756618492
"CVOE_C",15,1,2,68,"U 77","","",FALSE,"CV","p",343,"cv","U",7,"v","v",TRUE,1,-0.750592811518288
"CVOE_C",15,1,2,69,"E 12","","",TRUE,"CV","p",396,"cv","E",2,"v","v",TRUE,1,-0.570718274534315
"CVOE_C",15,1,2,70,"I 60","","",TRUE,"CV","p",365,"cv","I",0,"v","v",TRUE,1,-0.675927909373997
"CVOE_C",15,1,2,71,"J 36","","",FALSE,"CV","p",333,"cv","J",6,"c","v",FALSE,0,-0.784531403402056
"CVOE_C",15,1,2,72,"H 75","","",TRUE,"CV","q",392,"cv","H",5,"c","c",TRUE,1,-0.584293711287823
"CVOE_C",15,1,2,73,"I 50","","",TRUE,"CV","p",366,"cv","I",0,"v","v",TRUE,1,-0.672534050185621
"CVOE_C",15,1,2,74,"E 99","","",FALSE,"CV","q",350,"cv","E",9,"v","c",FALSE,0,-0.72683579719965
"CVOE_C",15,1,2,75,"A 86","","",TRUE,"CV","q",340,"cv","A",6,"v","c",FALSE,0,-0.760774389083418
"CVOE_C",15,1,2,76,"U 48","","",TRUE,"CV","p",591,"cv","U",8,"v","v",TRUE,1,0.0910842671991691
"CVOE_C",15,1,2,77,"E 01","","",FALSE,"CV","p",405,"cv","E",1,"v","v",TRUE,1,-0.540173541838924
"CVOE_C",15,1,2,78,"A 78","","",TRUE,"CV","p",429,"cv","A",8,"v","v",TRUE,1,-0.458720921317879
"CVOE_C",15,1,2,79,"P 60","","",FALSE,"CV","q",307,"cv","P",0,"c","c",TRUE,1,-0.872771742299854
"CVOE_C",15,1,2,80,"E 43","","",FALSE,"CV","p",344,"cv","E",3,"v","v",TRUE,1,-0.747198952329911
"CVOE_C",15,1,2,81,"D 69","","",TRUE,"CV","q",278,"cv","D",9,"c","c",TRUE,1,-0.971193658762783
"CVOE_C",15,1,2,82,"H 11","","",TRUE,"CV","q",382,"cv","H",1,"c","c",TRUE,1,-0.618232303171591
"CVOE_C",15,1,2,83,"P 43","","",TRUE,"CV","q",380,"cv","P",3,"c","c",TRUE,1,-0.625020021548345
"CVOE_C",15,1,2,84,"O 67","","",FALSE,"CV","p",431,"cv","O",7,"v","v",TRUE,1,-0.451933202941126
"CVOE_C",15,1,2,85,"S 91","","",FALSE,"CV","p",357,"cv","S",1,"c","v",FALSE,0,-0.703078782881012
"CVOE_C",15,1,2,86,"J 68","","",TRUE,"CV","q",469,"cv","J",8,"c","c",TRUE,1,-0.322966553782806
"CVOE_C",15,1,2,87,"S 47","","",FALSE,"CV","q",371,"cv","S",7,"c","c",TRUE,1,-0.655564754243736
"CVOE_C",15,1,2,88,"I 81","","",TRUE,"CV","p",478,"cv","I",1,"v","v",TRUE,1,-0.292421821087414
"CVOE_C",15,1,2,89,"J 39","","",FALSE,"CV","q",462,"cv","J",9,"c","c",TRUE,1,-0.346723568101444
"CVOE_C",15,1,2,90,"A 11","","",TRUE,"CV","q",380,"cv","A",1,"v","c",FALSE,0,-0.625020021548345
"CVOE_C",15,1,2,91,"O 76","","",FALSE,"CV","p",457,"cv","O",6,"v","v",TRUE,1,-0.363692864043328
"CVOE_C",15,1,2,92,"A 62","","",FALSE,"CV","p",620,"cv","A",2,"v","v",TRUE,1,0.189506183662098
"CVOE_C",15,1,2,93,"O 27","","",TRUE,"CV","p",354,"cv","O",7,"v","v",TRUE,1,-0.713260360446143
"CVOE_C",15,1,2,94,"E 66","","",FALSE,"CV","p",411,"cv","E",6,"v","v",TRUE,1,-0.519810386708663
"CVOE_C",15,1,2,95,"J 62","","",TRUE,"CV","q",494,"cv","J",2,"c","c",TRUE,1,-0.238120074073385
"CVOE_C",15,1,2,96,"H 72","","",TRUE,"CV","q",521,"cv","H",2,"c","c",TRUE,1,-0.14648587598721
"CVOE_C",15,1,2,97,"E 49","","",TRUE,"CV","p",361,"cv","E",9,"v","v",TRUE,1,-0.689503346127505
"CVOE_C",15,1,2,98,"D 52","","",TRUE,"CV","q",329,"cv","D",2,"c","c",TRUE,1,-0.798106840155564
"CVOE_C",15,1,2,99,"H 62","","",TRUE,"CV","q",396,"cv","H",2,"c","c",TRUE,1,-0.570718274534315
"CVOE_C",15,1,2,100,"I 11","","",TRUE,"CV","p",397,"cv","I",1,"v","v",TRUE,1,-0.567324415345938
"CVOE_C",15,1,2,101,"A 98","","",FALSE,"CV","p",501,"cv","A",8,"v","v",TRUE,1,-0.214363059754747
"CVOE_C",15,1,2,102,"H 29","","",FALSE,"CV","p",363,"cv","H",9,"c","v",FALSE,0,-0.682715627750751
"CVOE_C",15,1,2,103,"E 83","","",TRUE,"CV","q",299,"cv","E",3,"v","c",FALSE,0,-0.899922615806869
"CVOE_C",15,1,2,104,"D 43","","",FALSE,"CV","q",518,"cv","D",3,"c","c",TRUE,1,-0.15666745355234
"CVOE_C",15,1,2,105,"P 45","","",TRUE,"CV","q",430,"cv","P",5,"c","c",TRUE,1,-0.455327062129503
"CVOE_C",15,1,2,106,"J 17","","",TRUE,"CV","q",316,"cv","J",7,"c","c",TRUE,1,-0.842227009604463
"CVOE_C",7,1,2,11,"A 71","","",FALSE,"CV","p",3005,"cv","A",1,"v","v",TRUE,1,2.21522130811091
"CVOE_C",7,1,2,12,"I 66","","",TRUE,"CV","p",830,"cv","I",6,"v","v",TRUE,1,-0.560207777584608
"CVOE_C",7,1,2,13,"S 30","","",FALSE,"CV","q",668,"cv","S",0,"c","c",TRUE,1,-0.766929392243309
"CVOE_C",7,1,2,14,"D 20","","",FALSE,"CV","q",754,"cv","D",0,"c","c",TRUE,1,-0.657188288165233
"CVOE_C",7,1,2,15,"I 31","","",FALSE,"CV","p",874,"cv","I",1,"v","v",TRUE,1,-0.504061166195825
"CVOE_C",7,1,2,16,"P 16","","",FALSE,"CV","q",859,"cv","P",6,"c","c",TRUE,1,-0.523202056442001
"CVOE_C",7,1,2,17,"A 49","","",FALSE,"CV","p",902,"cv","A",9,"v","v",TRUE,1,-0.468331504402963
"CVOE_C",7,1,2,18,"O 64","","",TRUE,"CV","p",1076,"cv","O",4,"v","v",TRUE,1,-0.246297177547322
"CVOE_C",7,1,2,19,"D 02","","",FALSE,"CV","q",581,"cv","D",2,"c","c",TRUE,1,-0.87794655567113
"CVOE_C",7,1,2,20,"P 81","","",TRUE,"CV","q",1338,"cv","P",1,"c","c",TRUE,1,0.0880303720858853
"CVOE_C",7,1,2,21,"J 58","","",FALSE,"CV","q",646,"cv","J",8,"c","c",TRUE,1,-0.7950026979377
"CVOE_C",7,1,2,22,"A 22","","",TRUE,"CV","p",606,"cv","A",2,"v","v",TRUE,1,-0.846045071927503
"CVOE_C",7,1,2,23,"J 72","","",FALSE,"CV","q",601,"cv","J",2,"c","c",TRUE,1,-0.852425368676228
"CVOE_C",7,1,2,24,"P 91","","",TRUE,"CV","q",986,"cv","P",1,"c","c",TRUE,1,-0.361142519024378
"CVOE_C",7,1,2,25,"E 19","","",FALSE,"CV","p",1024,"cv","E",9,"v","v",TRUE,1,-0.312652263734065
"CVOE_C",7,1,2,26,"I 30","","",TRUE,"CV","p",694,"cv","I",0,"v","v",TRUE,1,-0.733751849149937
"CVOE_C",7,1,2,27,"D 91","","",TRUE,"CV","q",697,"cv","D",1,"c","c",TRUE,1,-0.729923671100702
"CVOE_C",7,1,2,28,"O 48","","",TRUE,"CV","p",636,"cv","O",8,"v","v",TRUE,1,-0.807763291435151
"CVOE_C",7,1,2,29,"A 89","","",FALSE,"CV","p",764,"cv","A",9,"v","v",TRUE,1,-0.644427694667783
"CVOE_C",7,1,2,30,"U 11","","",FALSE,"CV","p",789,"cv","U",1,"v","v",TRUE,1,-0.612526210924156
"CVOE_C",7,1,2,31,"I 76","","",TRUE,"CV","p",787,"cv","I",6,"v","v",TRUE,1,-0.615078329623646
"CVOE_C",7,1,2,32,"U 89","","",FALSE,"CV","p",672,"cv","U",9,"v","v",TRUE,1,-0.761825154844329
"CVOE_C",7,1,2,33,"D 63","","",TRUE,"CV","q",614,"cv","D",3,"c","c",TRUE,1,-0.835836597129543
"CVOE_C",7,1,2,34,"H 70","","",FALSE,"CV","q",857,"cv","H",0,"c","c",TRUE,1,-0.525754175141491
"CVOE_C",7,1,2,35,"D 48","","",FALSE,"CV","q",597,"cv","D",8,"c","c",TRUE,1,-0.857529606075209
"CVOE_C",7,1,2,36,"P 56","","",FALSE,"CV","q",861,"cv","P",6,"c","c",TRUE,1,-0.520649937742511
"CVOE_C",7,1,2,37,"O 77","","",FALSE,"CV","p",699,"cv","O",7,"v","v",TRUE,1,-0.727371552401212
"CVOE_C",7,1,2,38,"P 42","","",FALSE,"CV","q",598,"cv","P",2,"c","c",TRUE,1,-0.856253546725463
"CVOE_C",7,1,2,39,"H 22","","",FALSE,"CV","q",1014,"cv","H",2,"c","c",TRUE,1,-0.325412857231516
"CVOE_C",7,1,2,40,"E 42","","",TRUE,"CV","p",954,"cv","E",2,"v","v",TRUE,1,-0.40197641821622
"CVOE_C",7,1,2,41,"J 28","","",FALSE,"CV","q",1394,"cv","J",8,"c","c",TRUE,1,0.159489695671609
"CVOE_C",7,1,2,42,"E 95","","",FALSE,"CV","p",595,"cv","E",5,"v","v",TRUE,1,-0.860081724774699
"CVOE_C",7,1,2,43,"S 63","","",TRUE,"CV","q",587,"cv","S",3,"c","c",TRUE,1,-0.870290199572659
"CVOE_C",7,1,2,44,"H 50","","",FALSE,"CV","q",1201,"cv","H",0,"c","c",TRUE,1,-0.0867897588291888
"CVOE_C",7,1,2,45,"S 33","","",TRUE,"CV","q",642,"cv","S",3,"c","c",TRUE,1,-0.800106935336681
"CVOE_C",7,1,2,46,"P 57","","",TRUE,"CV","q",1034,"cv","P",7,"c","c",TRUE,1,-0.299891670236615
"CVOE_C",7,1,2,47,"E 23","","",FALSE,"CV","p",923,"cv","E",3,"v","v",TRUE,1,-0.441534258058317
"CVOE_C",7,1,2,48,"S 61","","",TRUE,"CV","q",587,"cv","S",1,"c","c",TRUE,1,-0.870290199572659
"CVOE_C",7,1,2,49,"U 67","","",FALSE,"CV","p",697,"cv","U",7,"v","v",TRUE,1,-0.729923671100702
"CVOE_C",7,1,2,50,"H 32","","",FALSE,"CV","q",516,"cv","H",2,"c","c",TRUE,1,-0.960890413404559
"CVOE_C",7,1,2,51,"U 50","","",TRUE,"CV","p",653,"cv","U",0,"v","v",TRUE,1,-0.786070282489485
"CVOE_C",7,1,2,52,"O 49","","",FALSE,"CV","p",776,"cv","O",9,"v","v",TRUE,1,-0.629114982470842
"CVOE_C",7,1,2,53,"U 32","","",TRUE,"CV","p",675,"cv","U",2,"v","v",TRUE,1,-0.757996976795093
"CVOE_C",7,1,2,54,"J 78","","",FALSE,"CV","q",539,"cv","J",8,"c","c",TRUE,1,-0.931541048360422
"CVOE_C",7,1,2,55,"S 54","","",FALSE,"CV","q",942,"cv","S",4,"c","c",TRUE,1,-0.417289130413161
"CVOE_C",7,1,2,56,"J 27","","",TRUE,"CV","q",572,"cv","J",7,"c","c",TRUE,1,-0.889431089818835
"CVOE_C",7,1,2,57,"S 06","","",FALSE,"CV","q",647,"cv","S",6,"c","c",TRUE,1,-0.793726638587955
"CVOE_C",7,1,2,58,"D 67","","",TRUE,"CV","q",691,"cv","D",7,"c","c",TRUE,1,-0.737580027199172
"CVOE_C",7,1,2,59,"A 79","","",FALSE,"CV","p",598,"cv","A",9,"v","v",TRUE,1,-0.856253546725463
"CVOE_C",7,1,2,60,"S 52","","",FALSE,"CV","q",494,"cv","S",2,"c","c",TRUE,1,-0.98896371909895
"CVOE_C",7,1,2,61,"U 16","","",TRUE,"CV","p",465,"cv","U",6,"v","v",TRUE,1,-1.02596944024156
"CVOE_C",7,1,2,62,"O 82","","",TRUE,"CV","p",511,"cv","O",2,"v","v",TRUE,1,-0.967270710153284
"CVOE_C",7,1,2,63,"H 87","","",TRUE,"CV","q",573,"cv","H",7,"c","c",TRUE,1,-0.88815503046909
"CVOE_C",7,1,2,64,"I 32","","",TRUE,"CV","p",592,"cv","I",2,"v","v",TRUE,1,-0.863909902823934
"CVOE_C",7,1,2,65,"U 37","","",FALSE,"CV","p",549,"cv","U",7,"v","v",TRUE,1,-0.918780454862972
"CVOE_C",7,1,2,66,"I 42","","",TRUE,"CV","p",515,"cv","I",2,"v","v",TRUE,1,-0.962166472754304
"CVOE_C",7,1,2,67,"D 65","","",TRUE,"CV","q",652,"cv","D",5,"c","c",TRUE,1,-0.78734634183923
"CVOE_C",7,1,2,68,"U 77","","",FALSE,"CV","p",599,"cv","U",7,"v","v",TRUE,1,-0.854977487375718
"CVOE_C",7,1,2,69,"E 12","","",TRUE,"CV","p",999,"cv","E",2,"v","v",TRUE,1,-0.344553747477692
"CVOE_C",7,1,2,70,"I 60","","",TRUE,"CV","p",784,"cv","I",0,"v","v",TRUE,1,-0.618906507672881
"CVOE_C",7,1,2,71,"J 36","","",FALSE,"CV","q",582,"cv","J",6,"c","c",TRUE,1,-0.876670496321385
"CVOE_C",7,1,2,72,"H 75","","",TRUE,"CV","q",579,"cv","H",5,"c","c",TRUE,1,-0.88049867437062
"CVOE_C",7,1,2,73,"I 50","","",TRUE,"CV","p",1022,"cv","I",0,"v","v",TRUE,1,-0.315204382433556
"CVOE_C",7,1,2,74,"E 99","","",FALSE,"CV","p",956,"cv","E",9,"v","v",TRUE,1,-0.39942429951673
"CVOE_C",7,1,2,75,"A 86","","",TRUE,"CV","p",805,"cv","A",6,"v","v",TRUE,1,-0.592109261328235
"CVOE_C",7,1,2,76,"U 48","","",TRUE,"CV","p",1085,"cv","U",8,"v","v",TRUE,1,-0.234812643399616
"CVOE_C",7,1,2,77,"E 01","","",FALSE,"CV","p",574,"cv","E",1,"v","v",TRUE,1,-0.886878971119345
"CVOE_C",7,1,2,78,"A 78","","",TRUE,"CV","p",497,"cv","A",8,"v","v",TRUE,1,-0.985135541049715
"CVOE_C",7,1,2,79,"P 60","","",FALSE,"CV","q",548,"cv","P",0,"c","c",TRUE,1,-0.920056514212717
"CVOE_C",7,1,2,80,"E 43","","",FALSE,"CV","p",562,"cv","E",3,"v","v",TRUE,1,-0.902191683316286
"CVOE_C",7,1,2,81,"D 69","","",TRUE,"CV","q",570,"cv","D",9,"c","c",TRUE,1,-0.891983208518325
"CVOE_C",7,1,2,82,"H 11","","",TRUE,"CV","q",981,"cv","H",1,"c","c",TRUE,1,-0.367522815773103
"CVOE_C",7,1,2,83,"P 43","","",TRUE,"CV","q",1235,"cv","P",3,"c","c",TRUE,1,-0.0434037409378565
"CVOE_C",7,1,2,84,"O 67","","",FALSE,"CV","p",628,"cv","O",7,"v","v",TRUE,1,-0.817971766233112
"CVOE_C",7,1,2,85,"S 91","","",FALSE,"CV","q",922,"cv","S",1,"c","c",TRUE,1,-0.442810317408062
"CVOE_C",7,1,2,86,"J 68","","",TRUE,"CV","q",1162,"cv","J",8,"c","c",TRUE,1,-0.136556073469246
"CVOE_C",7,1,2,87,"S 47","","",FALSE,"CV","q",467,"cv","S",7,"c","c",TRUE,1,-1.02341732154207
"CVOE_C",7,1,2,88,"I 81","","",TRUE,"CV","p",721,"cv","I",1,"v","v",TRUE,1,-0.69929824670682
"CVOE_C",7,1,2,89,"J 39","","",FALSE,"CV","q",537,"cv","J",9,"c","c",TRUE,1,-0.934093167059913
"CVOE_C",7,1,2,90,"A 11","","",TRUE,"CV","p",556,"cv","A",1,"v","v",TRUE,1,-0.909848039414756
"CVOE_C",7,1,2,91,"O 76","","",FALSE,"CV","p",445,"cv","O",6,"v","v",TRUE,1,-1.05149062723646
"CVOE_C",7,1,2,92,"A 62","","",FALSE,"CV","p",573,"cv","A",2,"v","v",TRUE,1,-0.88815503046909
"CVOE_C",7,1,2,93,"O 27","","",TRUE,"CV","p",800,"cv","O",7,"v","v",TRUE,1,-0.59848955807696
"CVOE_C",7,1,2,94,"E 66","","",FALSE,"CV","p",832,"cv","E",6,"v","v",TRUE,1,-0.557655658885118
"CVOE_C",7,1,2,95,"J 62","","",TRUE,"CV","q",494,"cv","J",2,"c","c",TRUE,1,-0.98896371909895
"CVOE_C",7,1,2,96,"H 72","","",TRUE,"CV","q",441,"cv","H",2,"c","c",TRUE,1,-1.05659486463544
"CVOE_C",7,1,2,97,"E 49","","",TRUE,"CV","p",602,"cv","E",9,"v","v",TRUE,1,-0.851149309326483
"CVOE_C",7,1,2,98,"D 52","","",TRUE,"CV","q",682,"cv","D",2,"c","c",TRUE,1,-0.749064561346878
"CVOE_C",7,1,2,99,"H 62","","",TRUE,"CV","q",579,"cv","H",2,"c","c",TRUE,1,-0.88049867437062
"CVOE_C",7,1,2,100,"I 11","","",TRUE,"CV","p",494,"cv","I",1,"v","v",TRUE,1,-0.98896371909895
"CVOE_C",7,1,2,101,"A 98","","",FALSE,"CV","p",825,"cv","A",8,"v","v",TRUE,1,-0.566588074333334
"CVOE_C",7,1,2,102,"H 29","","",FALSE,"CV","q",687,"cv","H",9,"c","c",TRUE,1,-0.742684264598153
"CVOE_C",7,1,2,103,"E 83","","",TRUE,"CV","p",554,"cv","E",3,"v","v",TRUE,1,-0.912400158114246
"CVOE_C",7,1,2,104,"D 43","","",FALSE,"CV","q",562,"cv","D",3,"c","c",TRUE,1,-0.902191683316286
"CVOE_C",7,1,2,105,"P 45","","",TRUE,"CV","q",491,"cv","P",5,"c","c",TRUE,1,-0.992791897148186
"CVOE_C",7,1,2,106,"J 17","","",TRUE,"CV","q",518,"cv","J",7,"c","c",TRUE,1,-0.958338294705069
"CVOE_D",4,1,1,11,"A 71","","",FALSE,"CV","p",1212,"cv","A",1,"v","v",TRUE,1,-0.0999662910203334
"CVOE_D",4,1,1,12,"I 66","","",TRUE,"CV","p",840,"cv","I",6,"v","v",TRUE,1,-0.478108246394866
"CVOE_D",4,1,1,13,"S 30","","",FALSE,"CV","q",728,"cv","S",0,"c","c",TRUE,1,-0.591957437260317
"CVOE_D",4,1,1,14,"D 20","","",FALSE,"CV","q",1075,"cv","D",0,"c","c",TRUE,1,-0.239228247703965
"CVOE_D",4,1,1,15,"I 31","","",FALSE,"CV","p",708,"cv","I",1,"v","v",TRUE,1,-0.612287649914862
"CVOE_D",4,1,1,16,"P 16","","",FALSE,"CV","q",802,"cv","P",6,"c","c",TRUE,1,-0.516735650438501
"CVOE_D",4,1,1,17,"A 49","","",FALSE,"CV","p",706,"cv","A",9,"v","v",TRUE,1,-0.614320671180316
"CVOE_D",4,1,1,18,"O 64","","",TRUE,"CV","p",776,"cv","O",4,"v","v",TRUE,1,-0.54316492688941
"CVOE_D",4,1,1,19,"D 02","","",FALSE,"CV","q",851,"cv","D",2,"c","c",TRUE,1,-0.466926629434867
"CVOE_D",4,1,1,20,"P 81","","",TRUE,"CV","q",1006,"cv","P",1,"c","c",TRUE,1,-0.309367481362145
"CVOE_D",4,1,1,21,"J 58","","",FALSE,"CV","q",687,"cv","J",8,"c","c",TRUE,1,-0.633634373202134
"CVOE_D",4,1,1,22,"A 22","","",TRUE,"CV","p",959,"cv","A",2,"v","v",TRUE,1,-0.357143481100325
"CVOE_D",4,1,1,23,"J 72","","",FALSE,"CV","q",1439,"cv","J",2,"c","c",TRUE,1,0.13078162260875
"CVOE_D",4,1,1,24,"P 91","","",TRUE,"CV","q",889,"cv","P",1,"c","c",TRUE,1,-0.428299225391232
"CVOE_D",4,1,1,25,"E 19","","",FALSE,"CV","p",860,"cv","E",9,"v","v",TRUE,1,-0.457778033740322
"CVOE_D",4,1,1,26,"I 30","","",TRUE,"CV","p",743,"cv","I",0,"v","v",TRUE,1,-0.576709777769409
"CVOE_D",4,1,1,27,"D 91","","",TRUE,"CV","q",1597,"cv","D",1,"c","c",TRUE,1,0.291390302579654
"CVOE_D",4,1,1,28,"O 48","","",TRUE,"CV","p",3798,"cv","O",8,"v","v",TRUE,1,2.52873020521231
"CVOE_D",4,1,1,29,"A 89","","",FALSE,"CV","p",663,"cv","A",9,"v","v",TRUE,1,-0.658030628387588
"CVOE_D",4,1,1,30,"U 11","","",FALSE,"CV","p",1909,"cv","U",1,"v","v",TRUE,1,0.608541619990552
"CVOE_D",4,1,1,31,"I 76","","",TRUE,"CV","p",651,"cv","I",6,"v","v",TRUE,1,-0.670228755980315
"CVOE_D",4,1,1,32,"U 89","","",FALSE,"CV","p",950,"cv","U",9,"v","v",TRUE,1,-0.36629207679487
"CVOE_D",4,1,1,33,"D 63","","",TRUE,"CV","q",1036,"cv","D",3,"c","c",TRUE,1,-0.278872162380328
"CVOE_D",4,1,1,34,"H 70","","",FALSE,"CV","q",1157,"cv","H",0,"c","c",TRUE,1,-0.155874375820332
"CVOE_D",4,1,1,35,"D 48","","",FALSE,"CV","q",734,"cv","D",8,"c","c",TRUE,1,-0.585858373463954
"CVOE_D",4,1,1,36,"P 56","","",FALSE,"CV","q",689,"cv","P",6,"c","c",TRUE,1,-0.63160135193668
"CVOE_D",4,1,1,37,"O 77","","",FALSE,"CV","p",924,"cv","O",7,"v","v",TRUE,1,-0.392721353245778
"CVOE_D",4,1,1,38,"P 42","","",FALSE,"CV","q",756,"cv","P",2,"c","c",TRUE,1,-0.563495139543954
"CVOE_D",4,1,1,39,"H 22","","",FALSE,"CV","q",1901,"cv","H",2,"c","c",TRUE,1,0.600409534928734
"CVOE_D",4,1,1,40,"E 42","","",TRUE,"CV","p",667,"cv","E",2,"v","v",TRUE,1,-0.653964585856679
"CVOE_D",4,1,1,41,"J 28","","",FALSE,"CV","q",897,"cv","J",8,"c","c",TRUE,1,-0.420167140329414
"CVOE_D",4,1,1,42,"E 95","","",FALSE,"CV","p",908,"cv","E",5,"v","v",TRUE,1,-0.408985523369414
"CVOE_D",4,1,1,43,"S 63","","",TRUE,"CV","q",738,"cv","S",3,"c","c",TRUE,1,-0.581792330933045
"CVOE_D",4,1,1,44,"H 50","","",FALSE,"CV","q",1133,"cv","H",0,"c","c",TRUE,1,-0.180270631005785
"CVOE_D",4,1,1,45,"S 33","","",TRUE,"CV","q",712,"cv","S",3,"c","c",TRUE,1,-0.608221607383953
"CVOE_D",4,1,1,46,"P 57","","",TRUE,"CV","q",926,"cv","P",7,"c","c",TRUE,1,-0.390688331980324
"CVOE_D",4,1,1,47,"E 23","","",FALSE,"CV","p",1031,"cv","E",3,"v","v",TRUE,1,-0.283954715543964
"CVOE_D",4,1,1,48,"S 61","","",TRUE,"CV","q",677,"cv","S",1,"c","c",TRUE,1,-0.643799479529406
"CVOE_D",4,1,1,49,"U 67","","",FALSE,"CV","p",805,"cv","U",7,"v","v",TRUE,1,-0.51368611854032
"CVOE_D",4,1,1,50,"H 32","","",FALSE,"CV","q",1102,"cv","H",2,"c","c",TRUE,1,-0.21178246062033
"CVOE_D",4,1,1,51,"U 50","","",TRUE,"CV","p",836,"cv","U",0,"v","v",TRUE,1,-0.482174288925775
"CVOE_D",4,1,1,52,"O 49","","",FALSE,"CV","p",820,"cv","O",9,"v","v",TRUE,1,-0.498438459049411
"CVOE_D",4,1,1,53,"U 32","","",TRUE,"CV","p",711,"cv","U",2,"v","v",TRUE,1,-0.60923811801668
"CVOE_D",4,1,1,54,"J 78","","",FALSE,"CV","q",749,"cv","J",8,"c","c",TRUE,1,-0.570610713973045
"CVOE_D",4,1,1,55,"S 54","","",FALSE,"CV","q",723,"cv","S",4,"c","c",TRUE,1,-0.597039990423953
"CVOE_D",4,1,1,56,"J 27","","",TRUE,"CV","q",707,"cv","J",7,"c","c",TRUE,1,-0.613304160547589
"CVOE_D",4,1,1,57,"S 06","","",FALSE,"CV","q",569,"cv","S",6,"c","c",TRUE,1,-0.753582627863948
"CVOE_D",4,1,1,58,"D 67","","",TRUE,"CV","q",1188,"cv","D",7,"c","c",TRUE,1,-0.124362546205787
"CVOE_D",4,1,1,59,"A 79","","",FALSE,"CV","p",642,"cv","A",9,"v","v",TRUE,1,-0.67937735167486
"CVOE_D",4,1,1,60,"S 52","","",FALSE,"CV","q",819,"cv","S",2,"c","c",TRUE,1,-0.499454969682138
"CVOE_D",4,1,1,61,"U 16","","",TRUE,"CV","p",709,"cv","U",6,"v","v",TRUE,1,-0.611271139282135
"CVOE_D",4,1,1,62,"O 82","","",TRUE,"CV","p",756,"cv","O",2,"v","v",TRUE,1,-0.563495139543954
"CVOE_D",4,1,1,63,"H 87","","",TRUE,"CV","q",788,"cv","H",7,"c","c",TRUE,1,-0.530966799296683
"CVOE_D",4,1,1,64,"I 32","","",TRUE,"CV","p",778,"cv","I",2,"v","v",TRUE,1,-0.541131905623955
"CVOE_D",4,1,1,65,"U 37","","",FALSE,"CV","p",1237,"cv","U",7,"v","v",TRUE,1,-0.0745535252021524
"CVOE_D",4,1,1,66,"I 42","","",TRUE,"CV","p",750,"cv","I",2,"v","v",TRUE,1,-0.569594203340318
"CVOE_D",4,1,1,67,"D 65","","",TRUE,"CV","q",628,"cv","D",5,"c","c",TRUE,1,-0.693608500533041
"CVOE_D",4,1,1,68,"U 77","","",FALSE,"CV","p",785,"cv","U",7,"v","v",TRUE,1,-0.534016331194865
"CVOE_D",4,1,1,69,"E 12","","",TRUE,"CV","p",1191,"cv","E",2,"v","v",TRUE,1,-0.121313014307605
"CVOE_D",4,1,1,70,"I 60","","",TRUE,"CV","p",781,"cv","I",0,"v","v",TRUE,1,-0.538082373725773
"CVOE_D",4,1,1,71,"J 36","","",FALSE,"CV","q",699,"cv","J",6,"c","c",TRUE,1,-0.621436245609407
"CVOE_D",4,1,1,72,"H 75","","",TRUE,"CV","q",598,"cv","H",5,"c","c",TRUE,1,-0.724103819514858
"CVOE_D",4,1,1,73,"I 50","","",TRUE,"CV","p",759,"cv","I",0,"v","v",TRUE,1,-0.560445607645773
"CVOE_D",4,1,1,74,"E 99","","",FALSE,"CV","p",1423,"cv","E",9,"v","v",TRUE,1,0.114517452485114
"CVOE_D",4,1,1,75,"A 86","","",TRUE,"CV","p",669,"cv","A",6,"v","v",TRUE,1,-0.651931564591224
"CVOE_D",4,1,1,76,"U 48","","",TRUE,"CV","p",771,"cv","U",8,"v","v",TRUE,1,-0.548247480053046
"CVOE_D",4,1,1,77,"E 01","","",FALSE,"CV","p",694,"cv","E",1,"v","v",TRUE,1,-0.626518798773043
"CVOE_D",4,1,1,78,"A 78","","",TRUE,"CV","p",721,"cv","A",8,"v","v",TRUE,1,-0.599073011689408
"CVOE_D",4,1,1,79,"P 60","","",FALSE,"CV","q",698,"cv","P",0,"c","c",TRUE,1,-0.622452756242134
"CVOE_D",4,1,1,80,"E 43","","",FALSE,"CV","p",693,"cv","E",3,"v","v",TRUE,1,-0.627535309405771
"CVOE_D",4,1,1,81,"D 69","","",TRUE,"CV","q",768,"cv","D",9,"c","c",TRUE,1,-0.551297011951228
"CVOE_D",4,1,1,82,"H 11","","",TRUE,"CV","q",603,"cv","H",1,"c","c",TRUE,1,-0.719021266351222
"CVOE_D",4,1,1,83,"P 43","","",TRUE,"CV","q",820,"cv","P",3,"c","c",TRUE,1,-0.498438459049411
"CVOE_D",4,1,1,84,"O 67","","",FALSE,"CV","p",719,"cv","O",7,"v","v",TRUE,1,-0.601106032954862
"CVOE_D",4,1,1,85,"S 91","","",FALSE,"CV","q",743,"cv","S",1,"c","c",TRUE,1,-0.576709777769409
"CVOE_D",4,1,1,86,"J 68","","",TRUE,"CV","q",693,"cv","J",8,"c","c",TRUE,1,-0.627535309405771
"CVOE_D",4,1,1,87,"S 47","","",FALSE,"CV","q",568,"cv","S",7,"c","c",TRUE,1,-0.754599138496675
"CVOE_D",4,1,1,88,"I 81","","",TRUE,"CV","p",675,"cv","I",1,"v","v",TRUE,1,-0.645832500794861
