ExperimentName,Subject,Group,Block,Trial,STIM,TASK,Switch,Congruent,CVOE,Response,RT,block_type,letter,number,key2,response2,match2,score2
CVOE_B,66,1,1,11,A 24,,,TRUE,OE,p,1108,oe,A,4,e,e,TRUE,1
CVOE_B,66,1,1,12,O 83,,,FALSE,OE,q,697,oe,O,3,o,o,TRUE,1
CVOE_B,66,1,1,13,H 55,,,TRUE,OE,q,765,oe,H,5,o,o,TRUE,1
CVOE_B,66,1,1,14,P 10,,,FALSE,OE,p,621,oe,P,0,e,e,TRUE,1
CVOE_B,66,1,1,15,D 30,,,FALSE,OE,p,539,oe,D,0,e,e,TRUE,1
CVOE_B,66,1,1,16,U 62,,,TRUE,OE,p,574,oe,U,2,e,e,TRUE,1
CVOE_B,66,1,1,17,P 95,,,TRUE,OE,q,577,oe,P,5,o,o,TRUE,1
CVOE_B,66,1,1,18,U 06,,,TRUE,OE,p,556,oe,U,6,e,e,TRUE,1
CVOE_B,66,1,1,19,E 75,,,FALSE,OE,q,533,oe,E,5,o,o,TRUE,1
CVOE_B,66,1,1,20,I 67,,,FALSE,OE,q,640,oe,I,7,o,o,TRUE,1
CVOE_B,66,1,1,21,S 13,,,TRUE,OE,q,616,oe,S,3,o,o,TRUE,1
CVOE_B,66,1,1,22,P 78,,,FALSE,OE,p,571,oe,P,8,e,e,TRUE,1
CVOE_B,66,1,1,23,I 15,,,FALSE,OE,q,718,oe,I,5,o,o,TRUE,1
CVOE_B,66,1,1,24,D 27,,,TRUE,OE,q,727,oe,D,7,o,o,TRUE,1
CVOE_B,66,1,1,25,O 94,,,TRUE,OE,p,546,oe,O,4,e,e,TRUE,1
CVOE_B,66,1,1,26,A 65,,,FALSE,OE,q,600,oe,A,5,o,o,TRUE,1
CVOE_B,66,1,1,27,I 42,,,TRUE,OE,p,536,oe,I,2,e,e,TRUE,1
CVOE_B,66,1,1,28,E 25,,,FALSE,OE,q,579,oe,E,5,o,o,TRUE,1
CVOE_B,66,1,1,29,H 49,,,TRUE,OE,q,734,oe,H,9,o,o,TRUE,1
CVOE_B,66,1,1,30,S 18,,,FALSE,OE,p,657,oe,S,8,e,e,TRUE,1
CVOE_B,66,1,1,31,H 51,,,TRUE,OE,q,572,oe,H,1,o,o,TRUE,1
CVOE_B,66,1,1,32,U 14,,,TRUE,OE,p,552,oe,U,4,e,e,TRUE,1
CVOE_B,66,1,1,33,E 02,,,TRUE,OE,p,605,oe,E,2,e,e,TRUE,1
CVOE_B,66,1,1,34,J 26,,,FALSE,OE,p,598,oe,J,6,e,e,TRUE,1
CVOE_B,66,1,1,35,D 24,,,FALSE,OE,p,494,oe,D,4,e,e,TRUE,1
CVOE_B,66,1,1,36,O 50,,,TRUE,OE,p,569,oe,O,0,e,e,TRUE,1
CVOE_B,66,1,1,37,U 16,,,TRUE,OE,p,548,oe,U,6,e,e,TRUE,1
CVOE_B,66,1,1,38,O 15,,,FALSE,OE,q,514,oe,O,5,o,o,TRUE,1
CVOE_B,66,1,1,39,D 32,,,FALSE,OE,p,610,oe,D,2,e,e,TRUE,1
CVOE_B,66,1,1,40,S 67,,,TRUE,OE,q,589,oe,S,7,o,o,TRUE,1
CVOE_B,66,1,1,41,J 74,,,FALSE,OE,p,435,oe,J,4,e,e,TRUE,1
CVOE_B,66,1,1,42,D 92,,,FALSE,OE,q,476,oe,D,2,e,o,FALSE,0
CVOE_B,66,1,1,43,A 65,,,FALSE,OE,q,620,oe,A,5,o,o,TRUE,1
CVOE_B,66,1,1,44,I 87,,,FALSE,OE,q,650,oe,I,7,o,o,TRUE,1
CVOE_B,66,1,1,45,H 61,,,TRUE,OE,q,573,oe,H,1,o,o,TRUE,1
CVOE_B,66,1,1,46,E 59,,,FALSE,OE,q,584,oe,E,9,o,o,TRUE,1
CVOE_B,66,1,1,47,I 33,,,FALSE,OE,q,542,oe,I,3,o,o,TRUE,1
CVOE_B,66,1,1,48,O 90,,,TRUE,OE,p,547,oe,O,0,e,e,TRUE,1
CVOE_B,66,1,1,49,U 51,,,FALSE,OE,q,497,oe,U,1,o,o,TRUE,1
CVOE_B,66,1,1,50,A 10,,,TRUE,OE,p,532,oe,A,0,e,e,TRUE,1
CVOE_B,66,1,1,51,E 50,,,TRUE,OE,p,535,oe,E,0,e,e,TRUE,1
CVOE_B,66,1,1,52,D 92,,,FALSE,OE,p,618,oe,D,2,e,e,TRUE,1
CVOE_B,66,1,1,53,E 60,,,TRUE,OE,p,462,oe,E,0,e,e,TRUE,1
CVOE_B,66,1,1,54,A 95,,,FALSE,OE,q,539,oe,A,5,o,o,TRUE,1
CVOE_B,66,1,1,55,E 64,,,TRUE,OE,p,550,oe,E,4,e,e,TRUE,1
CVOE_B,66,1,1,56,P 20,,,FALSE,OE,p,508,oe,P,0,e,e,TRUE,1
CVOE_B,66,1,1,57,S 06,,,FALSE,OE,p,522,oe,S,6,e,e,TRUE,1
CVOE_B,66,1,1,58,P 64,,,FALSE,OE,p,594,oe,P,4,e,e,TRUE,1
CVOE_B,66,1,1,59,U 70,,,TRUE,OE,p,459,oe,U,0,e,e,TRUE,1
CVOE_B,66,1,1,60,S 16,,,FALSE,OE,p,582,oe,S,6,e,e,TRUE,1
CVOE_B,66,1,1,61,E 35,,,FALSE,OE,q,643,oe,E,5,o,o,TRUE,1
CVOE_B,66,1,1,62,I 93,,,FALSE,OE,q,588,oe,I,3,o,o,TRUE,1
CVOE_B,66,1,1,63,D 63,,,TRUE,OE,q,490,oe,D,3,o,o,TRUE,1
CVOE_B,66,1,1,64,U 89,,,FALSE,OE,p,485,oe,U,9,o,e,FALSE,0
CVOE_B,66,1,1,65,E 91,,,FALSE,OE,q,541,oe,E,1,o,o,TRUE,1
CVOE_B,66,1,1,66,A 12,,,TRUE,OE,p,555,oe,A,2,e,e,TRUE,1
CVOE_B,66,1,1,67,P 56,,,FALSE,OE,p,547,oe,P,6,e,e,TRUE,1
CVOE_B,66,1,1,68,S 65,,,TRUE,OE,q,569,oe,S,5,o,o,TRUE,1
CVOE_B,66,1,1,69,P 07,,,TRUE,OE,q,956,oe,P,7,o,o,TRUE,1
CVOE_B,66,1,1,70,I 77,,,FALSE,OE,q,477,oe,I,7,o,o,TRUE,1
CVOE_B,66,1,1,71,J 19,,,TRUE,OE,q,685,oe,J,9,o,o,TRUE,1
CVOE_B,66,1,1,72,O 59,,,FALSE,OE,q,589,oe,O,9,o,o,TRUE,1
CVOE_B,66,1,1,73,J 15,,,TRUE,OE,q,603,oe,J,5,o,o,TRUE,1
CVOE_B,66,1,1,74,I 89,,,FALSE,OE,q,772,oe,I,9,o,o,TRUE,1
CVOE_B,66,1,1,75,O 97,,,FALSE,OE,q,575,oe,O,7,o,o,TRUE,1
CVOE_B,66,1,1,76,A 92,,,TRUE,OE,p,594,oe,A,2,e,e,TRUE,1
CVOE_B,66,1,1,77,J 90,,,FALSE,OE,p,482,oe,J,0,e,e,TRUE,1
CVOE_B,66,1,1,78,H 65,,,TRUE,OE,q,467,oe,H,5,o,o,TRUE,1
CVOE_B,66,1,1,79,H 17,,,TRUE,OE,q,608,oe,H,7,o,o,TRUE,1
CVOE_B,66,1,1,80,S 26,,,FALSE,OE,p,587,oe,S,6,e,e,TRUE,1
CVOE_B,66,1,1,81,D 56,,,FALSE,OE,p,521,oe,D,6,e,e,TRUE,1
CVOE_B,66,1,1,82,I 91,,,FALSE,OE,q,466,oe,I,1,o,o,TRUE,1
CVOE_B,66,1,1,83,J 11,,,TRUE,OE,q,471,oe,J,1,o,o,TRUE,1
CVOE_B,66,1,1,84,O 28,,,TRUE,OE,p,493,oe,O,8,e,e,TRUE,1
CVOE_B,66,1,1,85,H 29,,,TRUE,OE,q,528,oe,H,9,o,o,TRUE,1
CVOE_B,66,1,1,86,J 25,,,TRUE,OE,q,531,oe,J,5,o,o,TRUE,1
CVOE_B,66,1,1,87,A 73,,,FALSE,OE,q,510,oe,A,3,o,o,TRUE,1
CVOE_B,66,1,1,88,J 63,,,TRUE,OE,q,420,oe,J,3,o,o,TRUE,1
CVOE_B,66,1,1,89,U 84,,,TRUE,OE,p,511,oe,U,4,e,e,TRUE,1
CVOE_B,66,1,1,90,A 58,,,TRUE,OE,p,621,oe,A,8,e,e,TRUE,1
CVOE_B,66,1,1,91,S 43,,,TRUE,OE,q,482,oe,S,3,o,o,TRUE,1
CVOE_B,66,1,1,92,H 54,,,FALSE,OE,p,547,oe,H,4,e,e,TRUE,1
CVOE_B,66,1,1,93,D 4,,,FALSE,OE,p,697,oe,D,,o,e,FALSE,0
CVOE_B,66,1,1,94,J 75,,,TRUE,OE,q,476,oe,J,5,o,o,TRUE,1
CVOE_B,66,1,1,95,D 19,,,TRUE,OE,q,548,oe,D,9,o,o,TRUE,1
CVOE_B,66,1,1,96,J 38,,,FALSE,OE,p,538,oe,J,8,e,e,TRUE,1
CVOE_B,66,1,1,97,I 56,,,TRUE,OE,p,733,oe,I,6,e,e,TRUE,1
CVOE_B,66,1,1,98,P 87,,,TRUE,OE,q,448,oe,P,7,o,o,TRUE,1
CVOE_B,66,1,1,99,O 80,,,TRUE,OE,p,523,oe,O,0,e,e,TRUE,1
CVOE_B,66,1,1,100,U 60,,,TRUE,OE,p,395,oe,U,0,e,e,TRUE,1
CVOE_B,66,1,1,101,P 48,,,FALSE,OE,p,492,oe,P,8,e,e,TRUE,1
CVOE_B,66,1,1,102,H 64,,,FALSE,OE,p,423,oe,H,4,e,e,TRUE,1
CVOE_B,66,1,1,103,A 13,,,FALSE,OE,q,509,oe,A,3,o,o,TRUE,1
CVOE_B,66,1,1,104,H 68,,,FALSE,OE,p,498,oe,H,8,e,e,TRUE,1
CVOE_B,66,1,1,105,E 16,,,TRUE,OE,p,469,oe,E,6,e,e,TRUE,1
CVOE_B,66,1,1,106,S 71,,,TRUE,OE,q,483,oe,S,1,o,o,TRUE,1
CVOE_B,66,1,2,11,A 71,,,FALSE,CV,q,1288,cv,A,1,v,c,FALSE,0
CVOE_B,66,1,2,12,I 66,,,TRUE,CV,p,867,cv,I,6,v,v,TRUE,1
CVOE_B,66,1,2,13,S 30,,,FALSE,CV,q,545,cv,S,0,c,c,TRUE,1
CVOE_B,66,1,2,14,D 20,,,FALSE,CV,q,871,cv,D,0,c,c,TRUE,1
CVOE_B,66,1,2,15,I 31,,,FALSE,CV,p,524,cv,I,1,v,v,TRUE,1
CVOE_B,66,1,2,16,P 16,,,FALSE,CV,q,501,cv,P,6,c,c,TRUE,1
CVOE_B,66,1,2,17,A 49,,,FALSE,CV,p,427,cv,A,9,v,v,TRUE,1
CVOE_B,66,1,2,18,O 64,,,TRUE,CV,p,424,cv,O,4,v,v,TRUE,1
CVOE_B,66,1,2,19,D 02,,,FALSE,CV,q,558,cv,D,2,c,c,TRUE,1
CVOE_B,66,1,2,20,P 81,,,TRUE,CV,q,518,cv,P,1,c,c,TRUE,1
CVOE_B,66,1,2,21,J 58,,,FALSE,CV,q,599,cv,J,8,c,c,TRUE,1
CVOE_B,66,1,2,22,A 22,,,TRUE,CV,p,479,cv,A,2,v,v,TRUE,1
CVOE_B,66,1,2,23,J 72,,,FALSE,CV,q,488,cv,J,2,c,c,TRUE,1
CVOE_B,66,1,2,24,P 91,,,TRUE,CV,q,507,cv,P,1,c,c,TRUE,1
CVOE_B,66,1,2,25,E 19,,,FALSE,CV,p,552,cv,E,9,v,v,TRUE,1
CVOE_B,66,1,2,26,I 30,,,TRUE,CV,p,534,cv,I,0,v,v,TRUE,1
CVOE_B,66,1,2,27,D 91,,,TRUE,CV,q,513,cv,D,1,c,c,TRUE,1
CVOE_B,66,1,2,28,O 48,,,TRUE,CV,p,511,cv,O,8,v,v,TRUE,1
CVOE_B,66,1,2,29,A 89,,,FALSE,CV,p,509,cv,A,9,v,v,TRUE,1
CVOE_B,66,1,2,30,U 11,,,FALSE,CV,p,538,cv,U,1,v,v,TRUE,1
CVOE_B,66,1,2,31,I 76,,,TRUE,CV,p,525,cv,I,6,v,v,TRUE,1
CVOE_B,66,1,2,32,U 89,,,FALSE,CV,p,502,cv,U,9,v,v,TRUE,1
CVOE_B,66,1,2,33,D 63,,,TRUE,CV,q,484,cv,D,3,c,c,TRUE,1
CVOE_B,66,1,2,34,H 70,,,FALSE,CV,q,508,cv,H,0,c,c,TRUE,1
CVOE_B,66,1,2,35,D 48,,,FALSE,CV,q,570,cv,D,8,c,c,TRUE,1
CVOE_B,66,1,2,36,P 56,,,FALSE,CV,q,549,cv,P,6,c,c,TRUE,1
CVOE_B,66,1,2,37,O 77,,,FALSE,CV,p,450,cv,O,7,v,v,TRUE,1
CVOE_B,66,1,2,38,P 42,,,FALSE,CV,q,478,cv,P,2,c,c,TRUE,1
CVOE_B,66,1,2,39,H 22,,,FALSE,CV,q,478,cv,H,2,c,c,TRUE,1
CVOE_B,66,1,2,40,E 42,,,TRUE,CV,p,470,cv,E,2,v,v,TRUE,1
CVOE_B,66,1,2,41,J 28,,,FALSE,CV,q,588,cv,J,8,c,c,TRUE,1
CVOE_B,66,1,2,42,E 95,,,FALSE,CV,p,610,cv,E,5,v,v,TRUE,1
CVOE_B,66,1,2,43,S 63,,,TRUE,CV,q,453,cv,S,3,c,c,TRUE,1
CVOE_B,66,1,2,44,H 50,,,FALSE,CV,q,488,cv,H,0,c,c,TRUE,1
CVOE_B,66,1,2,45,S 33,,,TRUE,CV,q,507,cv,S,3,c,c,TRUE,1
CVOE_B,66,1,2,46,P 57,,,TRUE,CV,q,457,cv,P,7,c,c,TRUE,1
CVOE_B,66,1,2,47,E 23,,,FALSE,CV,p,988,cv,E,3,v,v,TRUE,1
CVOE_B,66,1,2,48,S 61,,,TRUE,CV,q,522,cv,S,1,c,c,TRUE,1
CVOE_B,66,1,2,49,U 67,,,FALSE,CV,p,474,cv,U,7,v,v,TRUE,1
CVOE_B,66,1,2,50,H 32,,,FALSE,CV,q,506,cv,H,2,c,c,TRUE,1
CVOE_B,66,1,2,51,U 50,,,TRUE,CV,p,520,cv,U,0,v,v,TRUE,1
CVOE_B,66,1,2,52,O 49,,,FALSE,CV,p,465,cv,O,9,v,v,TRUE,1
CVOE_B,66,1,2,53,U 32,,,TRUE,CV,p,462,cv,U,2,v,v,TRUE,1
CVOE_B,66,1,2,54,J 78,,,FALSE,CV,q,436,cv,J,8,c,c,TRUE,1
CVOE_B,66,1,2,55,S 54,,,FALSE,CV,q,412,cv,S,4,c,c,TRUE,1
CVOE_B,66,1,2,56,J 27,,,TRUE,CV,q,535,cv,J,7,c,c,TRUE,1
CVOE_B,66,1,2,57,S 06,,,FALSE,CV,q,490,cv,S,6,c,c,TRUE,1
CVOE_B,66,1,2,58,D 67,,,TRUE,CV,q,485,cv,D,7,c,c,TRUE,1
CVOE_B,66,1,2,59,A 79,,,FALSE,CV,p,502,cv,A,9,v,v,TRUE,1
CVOE_B,66,1,2,60,S 52,,,FALSE,CV,q,484,cv,S,2,c,c,TRUE,1
CVOE_B,66,1,2,61,U 16,,,TRUE,CV,p,420,cv,U,6,v,v,TRUE,1
CVOE_B,66,1,2,62,O 82,,,TRUE,CV,p,447,cv,O,2,v,v,TRUE,1
CVOE_B,66,1,2,63,H 87,,,TRUE,CV,q,482,cv,H,7,c,c,TRUE,1
CVOE_B,66,1,2,64,I 32,,,TRUE,CV,p,498,cv,I,2,v,v,TRUE,1
CVOE_B,66,1,2,65,U 37,,,FALSE,CV,p,453,cv,U,7,v,v,TRUE,1
CVOE_B,66,1,2,66,I 42,,,TRUE,CV,p,472,cv,I,2,v,v,TRUE,1
CVOE_B,66,1,2,67,D 65,,,TRUE,CV,q,526,cv,D,5,c,c,TRUE,1
CVOE_B,66,1,2,68,U 77,,,FALSE,CV,p,447,cv,U,7,v,v,TRUE,1
CVOE_B,66,1,2,69,E 12,,,TRUE,CV,p,471,cv,E,2,v,v,TRUE,1
CVOE_B,66,1,2,70,I 60,,,TRUE,CV,p,421,cv,I,0,v,v,TRUE,1
CVOE_B,66,1,2,71,J 36,,,FALSE,CV,q,498,cv,J,6,c,c,TRUE,1
CVOE_B,66,1,2,72,H 75,,,TRUE,CV,q,597,cv,H,5,c,c,TRUE,1
CVOE_B,66,1,2,73,I 50,,,TRUE,CV,p,438,cv,I,0,v,v,TRUE,1
CVOE_B,66,1,2,74,E 99,,,FALSE,CV,p,438,cv,E,9,v,v,TRUE,1
CVOE_B,66,1,2,75,A 86,,,TRUE,CV,p,519,cv,A,6,v,v,TRUE,1
CVOE_B,66,1,2,76,U 48,,,TRUE,CV,p,479,cv,U,8,v,v,TRUE,1
CVOE_B,66,1,2,77,E 01,,,FALSE,CV,p,455,cv,E,1,v,v,TRUE,1
CVOE_B,66,1,2,78,A 78,,,TRUE,CV,p,482,cv,A,8,v,v,TRUE,1
CVOE_B,66,1,2,79,P 60,,,FALSE,CV,q,491,cv,P,0,c,c,TRUE,1
CVOE_B,66,1,2,80,E 43,,,FALSE,CV,p,558,cv,E,3,v,v,TRUE,1
CVOE_B,66,1,2,81,D 69,,,TRUE,CV,q,574,cv,D,9,c,c,TRUE,1
CVOE_B,66,1,2,82,H 11,,,TRUE,CV,q,513,cv,H,1,c,c,TRUE,1
CVOE_B,66,1,2,83,P 43,,,TRUE,CV,q,543,cv,P,3,c,c,TRUE,1
CVOE_B,66,1,2,84,O 67,,,FALSE,CV,p,453,cv,O,7,v,v,TRUE,1
CVOE_B,66,1,2,85,S 91,,,FALSE,CV,q,480,cv,S,1,c,c,TRUE,1
CVOE_B,66,1,2,86,J 68,,,TRUE,CV,q,456,cv,J,8,c,c,TRUE,1
CVOE_B,66,1,2,87,S 47,,,FALSE,CV,q,507,cv,S,7,c,c,TRUE,1
CVOE_B,66,1,2,88,I 81,,,TRUE,CV,p,465,cv,I,1,v,v,TRUE,1
CVOE_B,66,1,2,89,J 39,,,FALSE,CV,q,439,cv,J,9,c,c,TRUE,1
CVOE_B,66,1,2,90,A 11,,,TRUE,CV,p,479,cv,A,1,v,v,TRUE,1
CVOE_B,66,1,2,91,O 76,,,FALSE,CV,p,471,cv,O,6,v,v,TRUE,1
CVOE_B,66,1,2,92,A 62,,,FALSE,CV,p,453,cv,A,2,v,v,TRUE,1
CVOE_B,66,1,2,93,O 27,,,TRUE,CV,p,480,cv,O,7,v,v,TRUE,1
CVOE_B,66,1,2,94,E 66,,,FALSE,CV,p,897,cv,E,6,v,v,TRUE,1
CVOE_B,66,1,2,95,J 62,,,TRUE,CV,q,412,cv,J,2,c,c,TRUE,1
CVOE_B,66,1,2,96,H 72,,,TRUE,CV,q,519,cv,H,2,c,c,TRUE,1
CVOE_B,66,1,2,97,E 49,,,TRUE,CV,p,455,cv,E,9,v,v,TRUE,1
CVOE_B,66,1,2,98,D 52,,,TRUE,CV,q,394,cv,D,2,c,c,TRUE,1
CVOE_B,66,1,2,99,H 62,,,TRUE,CV,q,547,cv,H,2,c,c,TRUE,1
CVOE_B,66,1,2,100,I 11,,,TRUE,CV,p,520,cv,I,1,v,v,TRUE,1
CVOE_B,66,1,2,101,A 98,,,FALSE,CV,p,417,cv,A,8,v,v,TRUE,1
CVOE_B,66,1,2,102,H 29,,,FALSE,CV,q,524,cv,H,9,c,c,TRUE,1
CVOE_B,66,1,2,103,E 83,,,TRUE,CV,p,484,cv,E,3,v,v,TRUE,1
CVOE_B,66,1,2,104,D 43,,,FALSE,CV,q,517,cv,D,3,c,c,TRUE,1
CVOE_B,66,1,2,105,P 45,,,TRUE,CV,q,541,cv,P,5,c,c,TRUE,1
CVOE_B,66,1,2,106,J 17,,,TRUE,CV,q,443,cv,J,7,c,c,TRUE,1
CVOE_B,66,1,3,13,U 95,Letter,Y,FALSE,CV,q,1099,shuf,U,5,v,c,FALSE,0
CVOE_B,66,1,3,17,A 56,Letter,Y,TRUE,CV,p,1146,shuf,A,6,v,v,TRUE,1
CVOE_B,66,1,3,18,H 78,Letter,N,FALSE,CV,q,2792,shuf,H,8,c,c,TRUE,1
CVOE_B,66,1,3,19,P 92,Letter,N,FALSE,CV,q,1759,shuf,P,2,c,c,TRUE,1
CVOE_B,66,1,3,21,P 57,Letter,Y,TRUE,CV,q,1936,shuf,P,7,c,c,TRUE,1
CVOE_B,66,1,3,23,O 89,Letter,Y,FALSE,CV,p,1821,shuf,O,9,v,v,TRUE,1
CVOE_B,66,1,3,26,S 07,Letter,Y,TRUE,CV,q,956,shuf,S,7,c,c,TRUE,1
CVOE_B,66,1,3,27,J 10,Letter,N,FALSE,CV,q,909,shuf,J,0,c,c,TRUE,1
CVOE_B,66,1,3,30,J 36,Letter,Y,FALSE,CV,p,1110,shuf,J,6,c,v,FALSE,0
CVOE_B,66,1,3,31,I 94,Letter,N,TRUE,CV,q,2644,shuf,I,4,v,c,FALSE,0
CVOE_B,66,1,3,32,A 82,Letter,N,TRUE,CV,q,742,shuf,A,2,v,c,FALSE,0
CVOE_B,66,1,3,35,S 28,Letter,Y,FALSE,CV,q,1267,shuf,S,8,c,c,TRUE,1
CVOE_B,66,1,3,40,S 35,Letter,Y,TRUE,CV,q,1323,shuf,S,5,c,c,TRUE,1
CVOE_B,66,1,3,44,U 95,Letter,Y,FALSE,CV,q,989,shuf,U,5,v,c,FALSE,0
CVOE_B,66,1,3,45,A 53,Letter,N,FALSE,CV,p,955,shuf,A,3,v,v,TRUE,1
CVOE_B,66,1,3,46,E 43,Letter,N,FALSE,CV,p,860,shuf,E,3,v,v,TRUE,1
CVOE_B,66,1,3,48,O 19,Letter,Y,FALSE,CV,p,1592,shuf,O,9,v,v,TRUE,1
CVOE_B,66,1,3,53,P 79,Letter,Y,TRUE,CV,q,1437,shuf,P,9,c,c,TRUE,1
CVOE_B,66,1,3,58,E 54,Letter,Y,TRUE,CV,p,1398,shuf,E,4,v,v,TRUE,1
CVOE_B,66,1,3,59,A 53,Letter,N,FALSE,CV,p,2470,shuf,A,3,v,v,TRUE,1
CVOE_B,66,1,3,60,P 34,Letter,N,FALSE,CV,q,1629,shuf,P,4,c,c,TRUE,1
CVOE_B,66,1,3,62,A 03,Letter,Y,FALSE,CV,q,982,shuf,A,3,v,c,FALSE,0
CVOE_B,66,1,3,64,I 58,Letter,Y,TRUE,CV,p,789,shuf,I,8,v,v,TRUE,1
CVOE_B,66,1,3,67,I 20,Letter,Y,TRUE,CV,p,1582,shuf,I,0,v,v,TRUE,1
CVOE_B,66,1,3,68,J 52,Letter,N,FALSE,CV,q,1364,shuf,J,2,c,c,TRUE,1
CVOE_B,66,1,3,70,I 60,Letter,Y,TRUE,CV,p,696,shuf,I,0,v,v,TRUE,1
CVOE_B,66,1,3,72,D 63,Letter,Y,TRUE,CV,q,1847,shuf,D,3,c,c,TRUE,1
CVOE_B,66,1,3,73,U 27,Letter,N,FALSE,CV,q,1506,shuf,U,7,v,c,FALSE,0
CVOE_B,66,1,3,74,J 77,Letter,N,TRUE,CV,q,840,shuf,J,7,c,c,TRUE,1
CVOE_B,66,1,3,76,J 20,Letter,Y,FALSE,CV,q,1220,shuf,J,0,c,c,TRUE,1
CVOE_B,66,1,3,79,O 04,Letter,Y,TRUE,CV,p,1814,shuf,O,4,v,v,TRUE,1
CVOE_B,66,1,3,80,E 10,Letter,N,TRUE,CV,p,1225,shuf,E,0,v,v,TRUE,1
CVOE_B,66,1,3,81,I 52,Letter,N,TRUE,CV,p,855,shuf,I,2,v,v,TRUE,1
CVOE_B,66,1,3,84,U 19,Letter,Y,FALSE,CV,q,987,shuf,U,9,v,c,FALSE,0
CVOE_B,66,1,3,87,P 93,Letter,Y,TRUE,CV,q,1830,shuf,P,3,c,c,TRUE,1
CVOE_B,66,1,3,88,E 59,Letter,N,FALSE,CV,p,1155,shuf,E,9,v,v,TRUE,1
CVOE_B,66,1,3,89,O 53,Letter,N,FALSE,CV,p,756,shuf,O,3,v,v,TRUE,1
CVOE_B,66,1,3,90,A 96,Letter,N,TRUE,CV,p,581,shuf,A,6,v,v,TRUE,1
CVOE_B,66,1,3,91,H 36,Letter,Y,FALSE,CV,q,947,shuf,H,6,c,c,TRUE,1
CVOE_B,66,1,3,92,A 63,Letter,N,FALSE,CV,p,896,shuf,A,3,v,v,TRUE,1
CVOE_B,66,1,3,93,I 38,Letter,N,TRUE,CV,p,683,shuf,I,8,v,v,TRUE,1
CVOE_B,66,1,3,96,S 34,Letter,Y,FALSE,CV,p,1357,shuf,S,4,c,v,FALSE,0
CVOE_B,66,1,3,99,I 73,Letter,Y,FALSE,CV,p,1012,shuf,I,3,v,v,TRUE,1
CVOE_B,66,1,3,102,P 72,Letter,Y,FALSE,CV,q,1068,shuf,P,2,c,c,TRUE,1
CVOE_B,66,1,3,104,U 25,Letter,Y,FALSE,CV,p,1341,shuf,U,5,v,v,TRUE,1
CVOE_B,66,1,3,105,O 32,Letter,N,TRUE,CV,p,723,shuf,O,2,v,v,TRUE,1
CVOE_B,66,1,3,106,E 80,Letter,N,TRUE,CV,p,547,shuf,E,0,v,v,TRUE,1
CVOE_B,66,1,3,110,U 35,Letter,Y,FALSE,CV,q,867,shuf,U,5,v,c,FALSE,0
CVOE_B,66,1,3,111,H 14,Letter,N,FALSE,CV,q,1297,shuf,H,4,c,c,TRUE,1
CVOE_B,66,1,3,113,E 36,Letter,Y,TRUE,CV,p,1648,shuf,E,6,v,v,TRUE,1
CVOE_B,66,1,3,114,P 70,Letter,N,FALSE,CV,q,1163,shuf,P,0,c,c,TRUE,1
CVOE_B,66,1,3,116,S 41,Letter,Y,TRUE,CV,q,1263,shuf,S,1,c,c,TRUE,1
CVOE_B,66,1,3,117,D 83,Letter,N,TRUE,CV,q,709,shuf,D,3,c,c,TRUE,1
CVOE_B,66,1,3,118,J 39,Letter,N,TRUE,CV,q,779,shuf,J,9,c,c,TRUE,1
CVOE_B,66,1,3,120,D 89,Letter,Y,TRUE,CV,q,948,shuf,D,9,c,c,TRUE,1
CVOE_B,66,1,3,121,P 87,Letter,N,TRUE,CV,q,770,shuf,P,7,c,c,TRUE,1
CVOE_B,66,1,3,122,H 42,Letter,N,FALSE,CV,q,805,shuf,H,2,c,c,TRUE,1
CVOE_B,66,1,3,123,S 49,Letter,N,TRUE,CV,q,822,shuf,S,9,c,c,TRUE,1
CVOE_B,66,1,3,125,O 19,Letter,Y,FALSE,CV,p,1993,shuf,O,9,v,v,TRUE,1
CVOE_B,66,1,3,126,H 50,Letter,N,FALSE,CV,q,722,shuf,H,0,c,c,TRUE,1
CVOE_B,66,1,3,11,U 38,Number,N,TRUE,OE,p,1681,shuf,U,8,e,e,TRUE,1
CVOE_B,66,1,3,12,P 73,Number,N,TRUE,OE,q,1522,shuf,P,3,o,o,TRUE,1
CVOE_B,66,1,3,14,J 61,Number,Y,TRUE,OE,q,1326,shuf,J,1,o,o,TRUE,1
CVOE_B,66,1,3,15,D 51,Number,N,TRUE,OE,q,703,shuf,D,1,o,o,TRUE,1
CVOE_B,66,1,3,16,S 28,Number,N,FALSE,OE,p,748,shuf,S,8,e,e,TRUE,1
CVOE_B,66,1,3,20,E 05,Number,Y,FALSE,OE,p,1360,shuf,E,5,o,e,FALSE,0
CVOE_B,66,1,3,22,D 88,Number,Y,FALSE,OE,p,916,shuf,D,8,e,e,TRUE,1
CVOE_B,66,1,3,24,U 43,Number,Y,FALSE,OE,q,1051,shuf,U,3,o,o,TRUE,1
CVOE_B,66,1,3,25,H 10,Number,N,FALSE,OE,p,1822,shuf,H,0,e,e,TRUE,1
CVOE_B,66,1,3,28,H 54,Number,Y,FALSE,OE,p,947,shuf,H,4,e,e,TRUE,1
CVOE_B,66,1,3,29,E 99,Number,N,FALSE,OE,q,913,shuf,E,9,o,o,TRUE,1
CVOE_B,66,1,3,33,H 79,Number,Y,TRUE,OE,q,2211,shuf,H,9,o,o,TRUE,1
CVOE_B,66,1,3,34,J 60,Number,N,FALSE,OE,p,1287,shuf,J,0,e,e,TRUE,1
CVOE_B,66,1,3,36,P 11,Number,Y,TRUE,OE,q,1105,shuf,P,1,o,o,TRUE,1
CVOE_B,66,1,3,37,D 39,Number,N,TRUE,OE,q,966,shuf,D,9,o,o,TRUE,1
CVOE_B,66,1,3,38,E 90,Number,N,TRUE,OE,p,711,shuf,E,0,e,e,TRUE,1
CVOE_B,66,1,3,39,I 38,Number,N,TRUE,OE,p,829,shuf,I,8,e,e,TRUE,1
CVOE_B,66,1,3,41,D 41,Number,Y,TRUE,OE,q,1491,shuf,D,1,o,o,TRUE,1
CVOE_B,66,1,3,42,E 06,Number,N,TRUE,OE,p,911,shuf,E,6,e,e,TRUE,1
CVOE_B,66,1,3,43,A 27,Number,N,FALSE,OE,q,1157,shuf,A,7,o,o,TRUE,1
CVOE_B,66,1,3,47,P 05,Number,Y,TRUE,OE,q,1399,shuf,P,5,o,o,TRUE,1
CVOE_B,66,1,3,49,I 96,Number,Y,TRUE,OE,p,1246,shuf,I,6,e,e,TRUE,1
CVOE_B,66,1,3,50,A 88,Number,N,TRUE,OE,p,735,shuf,A,8,e,e,TRUE,1
CVOE_B,66,1,3,51,I 67,Number,N,FALSE,OE,q,866,shuf,I,7,o,o,TRUE,1
CVOE_B,66,1,3,52,D 40,Number,N,FALSE,OE,p,832,shuf,D,0,e,e,TRUE,1
CVOE_B,66,1,3,54,U 24,Number,Y,TRUE,OE,p,958,shuf,U,4,e,e,TRUE,1
CVOE_B,66,1,3,55,P 74,Number,N,FALSE,OE,p,815,shuf,P,4,e,e,TRUE,1
CVOE_B,66,1,3,56,E 70,Number,N,TRUE,OE,p,690,shuf,E,0,e,e,TRUE,1
CVOE_B,66,1,3,57,S 27,Number,N,TRUE,OE,q,717,shuf,S,7,o,o,TRUE,1
CVOE_B,66,1,3,61,D 74,Number,Y,FALSE,OE,p,1131,shuf,D,4,e,e,TRUE,1
CVOE_B,66,1,3,63,E 24,Number,Y,TRUE,OE,p,884,shuf,E,4,e,e,TRUE,1
CVOE_B,66,1,3,65,D 77,Number,Y,TRUE,OE,q,786,shuf,D,7,o,o,TRUE,1
CVOE_B,66,1,3,66,S 75,Number,N,TRUE,OE,q,791,shuf,S,5,o,o,TRUE,1
CVOE_B,66,1,3,69,A 38,Number,Y,TRUE,OE,p,693,shuf,A,8,e,e,TRUE,1
CVOE_B,66,1,3,71,S 51,Number,Y,TRUE,OE,q,1731,shuf,S,1,o,o,TRUE,1
CVOE_B,66,1,3,75,O 15,Number,Y,FALSE,OE,q,889,shuf,O,5,o,o,TRUE,1
CVOE_B,66,1,3,77,U 97,Number,Y,FALSE,OE,q,985,shuf,U,7,o,o,TRUE,1
CVOE_B,66,1,3,78,H 03,Number,N,TRUE,OE,q,984,shuf,H,3,o,o,TRUE,1
CVOE_B,66,1,3,82,H 81,Number,Y,TRUE,OE,q,1354,shuf,H,1,o,o,TRUE,1
CVOE_B,66,1,3,83,I 41,Number,N,FALSE,OE,q,635,shuf,I,1,o,o,TRUE,1
CVOE_B,66,1,3,85,O 17,Number,Y,FALSE,OE,q,1521,shuf,O,7,o,o,TRUE,1
CVOE_B,66,1,3,86,A 10,Number,N,TRUE,OE,p,1539,shuf,A,0,e,e,TRUE,1
CVOE_B,66,1,3,94,O 51,Number,Y,FALSE,OE,q,1068,shuf,O,1,o,o,TRUE,1
CVOE_B,66,1,3,95,J 26,Number,N,FALSE,OE,p,1330,shuf,J,6,e,e,TRUE,1
CVOE_B,66,1,3,97,U 85,Number,Y,FALSE,OE,q,1351,shuf,U,5,o,o,TRUE,1
CVOE_B,66,1,3,98,J 77,Number,N,TRUE,OE,q,1005,shuf,J,7,o,o,TRUE,1
CVOE_B,66,1,3,100,H 46,Number,Y,FALSE,OE,p,1232,shuf,H,6,e,e,TRUE,1
CVOE_B,66,1,3,101,D 04,Number,N,FALSE,OE,p,862,shuf,D,4,e,e,TRUE,1
CVOE_B,66,1,3,103,D 99,Number,Y,TRUE,OE,q,1409,shuf,D,9,o,o,TRUE,1
CVOE_B,66,1,3,107,O 84,Number,Y,TRUE,OE,p,937,shuf,O,4,e,e,TRUE,1
CVOE_B,66,1,3,108,A 78,Number,N,TRUE,OE,p,1372,shuf,A,8,e,e,TRUE,1
CVOE_B,66,1,3,109,S 05,Number,N,TRUE,OE,q,1096,shuf,S,5,o,o,TRUE,1
CVOE_B,66,1,3,112,U 15,Number,Y,FALSE,OE,q,1772,shuf,U,5,o,o,TRUE,1
CVOE_B,66,1,3,115,O 44,Number,Y,TRUE,OE,p,1452,shuf,O,4,e,e,TRUE,1
CVOE_B,66,1,3,119,S 22,Number,Y,FALSE,OE,p,1062,shuf,S,2,e,e,TRUE,1
CVOE_B,66,1,3,124,J 20,Number,Y,FALSE,OE,q,540,shuf,J,0,e,o,FALSE,0
CVOE_B,66,1,3,127,I 68,Number,Y,TRUE,OE,p,907,shuf,I,8,e,e,TRUE,1
CVOE_B,66,1,3,128,J 72,Number,N,FALSE,OE,q,1001,shuf,J,2,e,o,FALSE,0
CVOE_B,66,1,3,129,O 21,Number,N,FALSE,OE,q,1609,shuf,O,1,o,o,TRUE,1
CVOE_B,66,1,3,130,H 22,Number,N,FALSE,OE,p,765,shuf,H,2,e,e,TRUE,1
CVOE_B,66,1,4,1,A 44,Letter,N,TRUE,CV,p,1475,alt,A,4,v,v,TRUE,1
CVOE_B,66,1,4,2,D 94,Letter,N,FALSE,CV,q,1284,alt,D,4,c,c,TRUE,1
CVOE_B,66,1,4,5,I 64,Letter,Y,TRUE,CV,p,1139,alt,I,4,v,v,TRUE,1
CVOE_B,66,1,4,6,J 54,Letter,N,FALSE,CV,q,665,alt,J,4,c,c,TRUE,1
CVOE_B,66,1,4,9,S 34,Letter,Y,FALSE,CV,p,1008,alt,S,4,c,v,FALSE,0
CVOE_B,66,1,4,10,U 88,Letter,N,TRUE,CV,p,1420,alt,U,8,v,v,TRUE,1
CVOE_B,66,1,4,13,E 79,Letter,Y,FALSE,CV,p,688,alt,E,9,v,v,TRUE,1
CVOE_B,66,1,4,14,H 72,Letter,N,FALSE,CV,q,987,alt,H,2,c,c,TRUE,1
CVOE_B,66,1,4,17,O 03,Letter,Y,FALSE,CV,p,944,alt,O,3,v,v,TRUE,1
CVOE_B,66,1,4,18,P 75,Letter,N,TRUE,CV,q,742,alt,P,5,c,c,TRUE,1
CVOE_B,66,1,4,21,A 21,Letter,Y,FALSE,CV,p,1083,alt,A,1,v,v,TRUE,1
CVOE_B,66,1,4,22,D 18,Letter,N,FALSE,CV,q,883,alt,D,8,c,c,TRUE,1
CVOE_B,66,1,4,25,I 82,Letter,Y,TRUE,CV,p,1658,alt,I,2,v,v,TRUE,1
CVOE_B,66,1,4,26,J 78,Letter,N,FALSE,CV,q,702,alt,J,8,c,c,TRUE,1
CVOE_B,66,1,4,29,S 07,Letter,Y,TRUE,CV,q,1111,alt,S,7,c,c,TRUE,1
CVOE_B,66,1,4,30,U 36,Letter,N,TRUE,CV,p,685,alt,U,6,v,v,TRUE,1
CVOE_B,66,1,4,33,E 60,Letter,Y,TRUE,CV,p,1007,alt,E,0,v,v,TRUE,1
CVOE_B,66,1,4,34,H 83,Letter,N,TRUE,CV,q,922,alt,H,3,c,c,TRUE,1
CVOE_B,66,1,4,37,O 78,Letter,Y,TRUE,CV,p,1596,alt,O,8,v,v,TRUE,1
CVOE_B,66,1,4,38,P 09,Letter,N,TRUE,CV,q,1149,alt,P,9,c,c,TRUE,1
CVOE_B,66,1,4,41,A 31,Letter,Y,FALSE,CV,p,1300,alt,A,1,v,v,TRUE,1
CVOE_B,66,1,4,42,D 96,Letter,N,FALSE,CV,q,802,alt,D,6,c,c,TRUE,1
CVOE_B,66,1,4,45,I 15,Letter,Y,FALSE,CV,p,860,alt,I,5,v,v,TRUE,1
CVOE_B,66,1,4,46,J 07,Letter,N,TRUE,CV,q,1530,alt,J,7,c,c,TRUE,1
CVOE_B,66,1,4,49,S 37,Letter,Y,TRUE,CV,q,654,alt,S,7,c,c,TRUE,1
CVOE_B,66,1,4,50,U 61,Letter,N,FALSE,CV,p,713,alt,U,1,v,v,TRUE,1
CVOE_B,66,1,4,53,E 20,Letter,Y,TRUE,CV,p,1419,alt,E,0,v,v,TRUE,1
CVOE_B,66,1,4,54,H 86,Letter,N,FALSE,CV,q,1447,alt,H,6,c,c,TRUE,1
CVOE_B,66,1,4,57,O 13,Letter,Y,FALSE,CV,p,1299,alt,O,3,v,v,TRUE,1
CVOE_B,66,1,4,58,P 82,Letter,N,FALSE,CV,q,1198,alt,P,2,c,c,TRUE,1
CVOE_B,66,1,4,61,A 49,Letter,Y,FALSE,CV,q,1077,alt,A,9,v,c,FALSE,0
CVOE_B,66,1,4,62,D 91,Letter,N,TRUE,CV,q,1406,alt,D,1,c,c,TRUE,1
CVOE_B,66,1,4,65,I 45,Letter,Y,FALSE,CV,p,931,alt,I,5,v,v,TRUE,1
CVOE_B,66,1,4,66,J 70,Letter,N,FALSE,CV,q,1126,alt,J,0,c,c,TRUE,1
CVOE_B,66,1,4,69,S 93,Letter,Y,TRUE,CV,q,1197,alt,S,3,c,c,TRUE,1
CVOE_B,66,1,4,70,U 70,Letter,N,TRUE,CV,p,1614,alt,U,0,v,v,TRUE,1
CVOE_B,66,1,4,73,E 68,Letter,Y,TRUE,CV,p,1226,alt,E,8,v,v,TRUE,1
CVOE_B,66,1,4,74,H 17,Letter,N,TRUE,CV,q,672,alt,H,7,c,c,TRUE,1
CVOE_B,66,1,4,77,O 32,Letter,Y,TRUE,CV,p,2381,alt,O,2,v,v,TRUE,1
CVOE_B,66,1,4,78,P 95,Letter,N,TRUE,CV,q,643,alt,P,5,c,c,TRUE,1
CVOE_B,66,1,4,81,A 56,Letter,Y,TRUE,CV,p,746,alt,A,6,v,v,TRUE,1
CVOE_B,66,1,4,82,D 57,Letter,N,TRUE,CV,q,576,alt,D,7,c,c,TRUE,1
CVOE_B,66,1,4,85,I 35,Letter,Y,FALSE,CV,p,708,alt,I,5,v,v,TRUE,1
CVOE_B,66,1,4,86,J 03,Letter,N,TRUE,CV,q,1322,alt,J,3,c,c,TRUE,1
CVOE_B,66,1,4,89,S 77,Letter,Y,TRUE,CV,q,641,alt,S,7,c,c,TRUE,1
CVOE_B,66,1,4,90,U 05,Letter,N,FALSE,CV,p,1410,alt,U,5,v,v,TRUE,1
CVOE_B,66,1,4,93,E 02,Letter,Y,TRUE,CV,p,510,alt,E,2,v,v,TRUE,1
CVOE_B,66,1,4,94,H 68,Letter,N,FALSE,CV,q,596,alt,H,8,c,c,TRUE,1
CVOE_B,66,1,4,97,O 73,Letter,Y,FALSE,CV,q,914,alt,O,3,v,c,FALSE,0
CVOE_B,66,1,4,98,P 41,Letter,N,TRUE,CV,q,867,alt,P,1,c,c,TRUE,1
CVOE_B,66,1,4,101,A 09,Letter,Y,FALSE,CV,q,844,alt,A,9,v,c,FALSE,0
CVOE_B,66,1,4,102,D 92,Letter,N,FALSE,CV,p,869,alt,D,2,c,v,FALSE,0
CVOE_B,66,1,4,105,I 44,Letter,Y,TRUE,CV,p,516,alt,I,4,v,v,TRUE,1
CVOE_B,66,1,4,106,J 67,Letter,N,TRUE,CV,q,1756,alt,J,7,c,c,TRUE,1
CVOE_B,66,1,4,109,S 86,Letter,Y,FALSE,CV,p,1326,alt,S,6,c,v,FALSE,0
CVOE_B,66,1,4,110,U 35,Letter,N,FALSE,CV,q,929,alt,U,5,v,c,FALSE,0
CVOE_B,66,1,4,113,E 91,Letter,Y,FALSE,CV,p,1038,alt,E,1,v,v,TRUE,1
CVOE_B,66,1,4,114,H 54,Letter,N,FALSE,CV,q,1342,alt,H,4,c,c,TRUE,1
CVOE_B,66,1,4,117,O 19,Letter,Y,FALSE,CV,p,1763,alt,O,9,v,v,TRUE,1
CVOE_B,66,1,4,118,P 48,Letter,N,FALSE,CV,q,660,alt,P,8,c,c,TRUE,1
CVOE_B,66,1,4,3,E 75,Number,Y,FALSE,OE,q,1332,alt,E,5,o,o,TRUE,1
CVOE_B,66,1,4,4,H 81,Number,N,TRUE,OE,q,1776,alt,H,1,o,o,TRUE,1
CVOE_B,66,1,4,7,O 23,Number,Y,FALSE,OE,q,975,alt,O,3,o,o,TRUE,1
CVOE_B,66,1,4,8,P 05,Number,N,TRUE,OE,q,1306,alt,P,5,o,o,TRUE,1
CVOE_B,66,1,4,11,A 70,Number,Y,TRUE,OE,p,754,alt,A,0,e,e,TRUE,1
CVOE_B,66,1,4,12,D 12,Number,N,FALSE,OE,q,1186,alt,D,2,e,o,FALSE,0
CVOE_B,66,1,4,15,I 41,Number,Y,FALSE,OE,q,2121,alt,I,1,o,o,TRUE,1
CVOE_B,66,1,4,16,J 63,Number,N,TRUE,OE,q,1106,alt,J,3,o,o,TRUE,1
CVOE_B,66,1,4,19,S 61,Number,Y,TRUE,OE,q,980,alt,S,1,o,o,TRUE,1
CVOE_B,66,1,4,20,U 28,Number,N,TRUE,OE,p,1322,alt,U,8,e,e,TRUE,1
CVOE_B,66,1,4,23,E 35,Number,Y,FALSE,OE,q,876,alt,E,5,o,o,TRUE,1
CVOE_B,66,1,4,24,H 62,Number,N,FALSE,OE,p,1420,alt,H,2,e,e,TRUE,1
CVOE_B,66,1,4,27,O 12,Number,Y,TRUE,OE,p,1060,alt,O,2,e,e,TRUE,1
CVOE_B,66,1,4,28,P 13,Number,N,TRUE,OE,q,906,alt,P,3,o,o,TRUE,1
CVOE_B,66,1,4,31,A 96,Number,Y,TRUE,OE,p,1014,alt,A,6,e,e,TRUE,1
CVOE_B,66,1,4,32,D 04,Number,N,FALSE,OE,q,1305,alt,D,4,e,o,FALSE,0
CVOE_B,66,1,4,35,I 64,Number,Y,TRUE,OE,p,763,alt,I,4,e,e,TRUE,1
CVOE_B,66,1,4,36,J 76,Number,N,FALSE,OE,p,1155,alt,J,6,e,e,TRUE,1
CVOE_B,66,1,4,39,S 72,Number,Y,FALSE,OE,p,1195,alt,S,2,e,e,TRUE,1
CVOE_B,66,1,4,40,U 47,Number,N,FALSE,OE,q,964,alt,U,7,o,o,TRUE,1
CVOE_B,66,1,4,43,E 40,Number,Y,TRUE,OE,p,1043,alt,E,0,e,e,TRUE,1
CVOE_B,66,1,4,44,H 79,Number,N,TRUE,OE,q,963,alt,H,9,o,o,TRUE,1
CVOE_B,66,1,4,47,O 61,Number,Y,FALSE,OE,q,925,alt,O,1,o,o,TRUE,1
CVOE_B,66,1,4,48,P 58,Number,N,FALSE,OE,p,1006,alt,P,8,e,e,TRUE,1
CVOE_B,66,1,4,51,A 17,Number,Y,FALSE,OE,q,930,alt,A,7,o,o,TRUE,1
CVOE_B,66,1,4,52,D 85,Number,N,TRUE,OE,q,1549,alt,D,5,o,o,TRUE,1
CVOE_B,66,1,4,55,I 21,Number,Y,FALSE,OE,q,770,alt,I,1,o,o,TRUE,1
CVOE_B,66,1,4,56,J 29,Number,N,TRUE,OE,p,829,alt,J,9,o,e,FALSE,0
CVOE_B,66,1,4,59,S 72,Number,Y,FALSE,OE,p,847,alt,S,2,e,e,TRUE,1
CVOE_B,66,1,4,60,U 84,Number,N,TRUE,OE,p,898,alt,U,4,e,e,TRUE,1
CVOE_B,66,1,4,63,E 99,Number,Y,FALSE,OE,q,1137,alt,E,9,o,o,TRUE,1
CVOE_B,66,1,4,64,H 16,Number,N,FALSE,OE,p,1341,alt,H,6,e,e,TRUE,1
CVOE_B,66,1,4,67,O 22,Number,Y,TRUE,OE,p,927,alt,O,2,e,e,TRUE,1
CVOE_B,66,1,4,68,P 41,Number,N,TRUE,OE,q,778,alt,P,1,o,o,TRUE,1
CVOE_B,66,1,4,71,A 42,Number,Y,TRUE,OE,p,737,alt,A,2,e,e,TRUE,1
CVOE_B,66,1,4,72,D 85,Number,N,TRUE,OE,q,1060,alt,D,5,o,o,TRUE,1
CVOE_B,66,1,4,75,I 70,Number,Y,TRUE,OE,p,1654,alt,I,0,e,e,TRUE,1
CVOE_B,66,1,4,76,J 88,Number,N,FALSE,OE,p,818,alt,J,8,e,e,TRUE,1
CVOE_B,66,1,4,79,S 98,Number,Y,FALSE,OE,q,732,alt,S,8,e,o,FALSE,0
CVOE_B,66,1,4,80,U 37,Number,N,FALSE,OE,p,575,alt,U,7,o,e,FALSE,0
CVOE_B,66,1,4,83,E 93,Number,Y,FALSE,OE,p,651,alt,E,3,o,e,FALSE,0
CVOE_B,66,1,4,84,H 27,Number,N,TRUE,OE,q,1750,alt,H,7,o,o,TRUE,1
CVOE_B,66,1,4,87,O 28,Number,Y,TRUE,OE,p,931,alt,O,8,e,e,TRUE,1
CVOE_B,66,1,4,88,P 59,Number,N,TRUE,OE,q,1174,alt,P,9,o,o,TRUE,1
CVOE_B,66,1,4,91,A 56,Number,Y,TRUE,OE,p,637,alt,A,6,e,e,TRUE,1
CVOE_B,66,1,4,92,D 01,Number,N,TRUE,OE,q,597,alt,D,1,o,o,TRUE,1
CVOE_B,66,1,4,95,I 05,Number,Y,FALSE,OE,p,532,alt,I,5,o,e,FALSE,0
CVOE_B,66,1,4,96,J 55,Number,N,TRUE,OE,q,1015,alt,J,5,o,o,TRUE,1
CVOE_B,66,1,4,99,S 92,Number,Y,FALSE,OE,p,769,alt,S,2,e,e,TRUE,1
CVOE_B,66,1,4,100,U 34,Number,N,TRUE,OE,p,676,alt,U,4,e,e,TRUE,1
CVOE_B,66,1,4,103,E 48,Number,Y,TRUE,OE,p,675,alt,E,8,e,e,TRUE,1
CVOE_B,66,1,4,104,H 76,Number,N,FALSE,OE,p,563,alt,H,6,e,e,TRUE,1
CVOE_B,66,1,4,107,O 48,Number,Y,TRUE,OE,p,917,alt,O,8,e,e,TRUE,1
CVOE_B,66,1,4,108,P 22,Number,N,FALSE,OE,q,717,alt,P,2,e,o,FALSE,0
CVOE_B,66,1,4,111,A 91,Number,Y,FALSE,OE,q,1020,alt,A,1,o,o,TRUE,1
CVOE_B,66,1,4,112,D 78,Number,N,FALSE,OE,p,1098,alt,D,8,e,e,TRUE,1
CVOE_B,66,1,4,115,I 65,Number,Y,FALSE,OE,p,876,alt,I,5,o,e,FALSE,0
CVOE_B,66,1,4,116,J 52,Number,N,FALSE,OE,q,1469,alt,J,2,e,o,FALSE,0
CVOE_B,66,1,4,119,S 45,Number,Y,TRUE,OE,q,1930,alt,S,5,o,o,TRUE,1
CVOE_B,66,1,4,120,U 26,Number,N,TRUE,OE,p,2213,alt,U,6,e,e,TRUE,1
CVOE_C,67,1,1,11,A 24,,,TRUE,OE,p,853,oe,A,4,e,e,TRUE,1
CVOE_C,67,1,1,12,O 83,,,FALSE,OE,q,672,oe,O,3,o,o,TRUE,1
CVOE_C,67,1,1,13,H 55,,,TRUE,OE,q,678,oe,H,5,o,o,TRUE,1
CVOE_C,67,1,1,14,P 10,,,FALSE,OE,p,535,oe,P,0,e,e,TRUE,1
CVOE_C,67,1,1,15,D 30,,,FALSE,OE,p,514,oe,D,0,e,e,TRUE,1
CVOE_C,67,1,1,16,U 62,,,TRUE,OE,p,714,oe,U,2,e,e,TRUE,1
CVOE_C,67,1,1,17,P 95,,,TRUE,OE,q,515,oe,P,5,o,o,TRUE,1
CVOE_C,67,1,1,18,U 06,,,TRUE,OE,p,491,oe,U,6,e,e,TRUE,1
CVOE_C,67,1,1,19,E 75,,,FALSE,OE,q,494,oe,E,5,o,o,TRUE,1
CVOE_C,67,1,1,20,I 67,,,FALSE,OE,q,529,oe,I,7,o,o,TRUE,1
CVOE_C,67,1,1,21,S 13,,,TRUE,OE,q,476,oe,S,3,o,o,TRUE,1
CVOE_C,67,1,1,22,P 78,,,FALSE,OE,p,517,oe,P,8,e,e,TRUE,1
CVOE_C,67,1,1,23,I 15,,,FALSE,OE,q,517,oe,I,5,o,o,TRUE,1
CVOE_C,67,1,1,24,D 27,,,TRUE,OE,q,477,oe,D,7,o,o,TRUE,1
CVOE_C,67,1,1,25,O 94,,,TRUE,OE,p,470,oe,O,4,e,e,TRUE,1
CVOE_C,67,1,1,26,A 65,,,FALSE,OE,q,452,oe,A,5,o,o,TRUE,1
CVOE_C,67,1,1,27,I 42,,,TRUE,OE,p,543,oe,I,2,e,e,TRUE,1
CVOE_C,67,1,1,28,E 25,,,FALSE,OE,q,500,oe,E,5,o,o,TRUE,1
CVOE_C,67,1,1,29,H 49,,,TRUE,OE,q,634,oe,H,9,o,o,TRUE,1
CVOE_C,67,1,1,30,S 18,,,FALSE,OE,p,490,oe,S,8,e,e,TRUE,1
CVOE_C,67,1,1,31,H 51,,,TRUE,OE,q,446,oe,H,1,o,o,TRUE,1
CVOE_C,67,1,1,32,U 14,,,TRUE,OE,p,486,oe,U,4,e,e,TRUE,1
CVOE_C,67,1,1,33,E 02,,,TRUE,OE,p,454,oe,E,2,e,e,TRUE,1
CVOE_C,67,1,1,34,J 26,,,FALSE,OE,p,473,oe,J,6,e,e,TRUE,1
CVOE_C,67,1,1,35,D 24,,,FALSE,OE,p,527,oe,D,4,e,e,TRUE,1
CVOE_C,67,1,1,36,O 50,,,TRUE,OE,p,602,oe,O,0,e,e,TRUE,1
CVOE_C,67,1,1,37,U 16,,,TRUE,OE,p,490,oe,U,6,e,e,TRUE,1
CVOE_C,67,1,1,38,O 15,,,FALSE,OE,q,598,oe,O,5,o,o,TRUE,1
CVOE_C,67,1,1,39,D 32,,,FALSE,OE,p,526,oe,D,2,e,e,TRUE,1
CVOE_C,67,1,1,40,S 67,,,TRUE,OE,q,454,oe,S,7,o,o,TRUE,1
CVOE_C,67,1,1,41,J 74,,,FALSE,OE,p,433,oe,J,4,e,e,TRUE,1
CVOE_C,67,1,1,42,D 92,,,FALSE,OE,p,511,oe,D,2,e,e,TRUE,1
CVOE_C,67,1,1,43,A 65,,,FALSE,OE,q,461,oe,A,5,o,o,TRUE,1
CVOE_C,67,1,1,44,I 87,,,FALSE,OE,q,723,oe,I,7,o,o,TRUE,1
CVOE_C,67,1,1,45,H 61,,,TRUE,OE,q,635,oe,H,1,o,o,TRUE,1
CVOE_C,67,1,1,46,E 59,,,FALSE,OE,q,483,oe,E,9,o,o,TRUE,1
CVOE_C,67,1,1,47,I 33,,,FALSE,OE,q,468,oe,I,3,o,o,TRUE,1
CVOE_C,67,1,1,48,O 90,,,TRUE,OE,p,490,oe,O,0,e,e,TRUE,1
CVOE_C,67,1,1,49,U 51,,,FALSE,OE,q,485,oe,U,1,o,o,TRUE,1
CVOE_C,67,1,1,50,A 10,,,TRUE,OE,p,437,oe,A,0,e,e,TRUE,1
CVOE_C,67,1,1,51,E 50,,,TRUE,OE,p,445,oe,E,0,e,e,TRUE,1
CVOE_C,67,1,1,52,D 92,,,FALSE,OE,p,470,oe,D,2,e,e,TRUE,1
CVOE_C,67,1,1,53,E 60,,,TRUE,OE,p,539,oe,E,0,e,e,TRUE,1
CVOE_C,67,1,1,54,A 95,,,FALSE,OE,q,527,oe,A,5,o,o,TRUE,1
CVOE_C,67,1,1,55,E 64,,,TRUE,OE,p,479,oe,E,4,e,e,TRUE,1
CVOE_C,67,1,1,56,P 20,,,FALSE,OE,p,519,oe,P,0,e,e,TRUE,1
CVOE_C,67,1,1,57,S 06,,,FALSE,OE,p,456,oe,S,6,e,e,TRUE,1
CVOE_C,67,1,1,58,P 64,,,FALSE,OE,p,387,oe,P,4,e,e,TRUE,1
CVOE_C,67,1,1,59,U 70,,,TRUE,OE,p,704,oe,U,0,e,e,TRUE,1
CVOE_C,67,1,1,60,S 16,,,FALSE,OE,p,446,oe,S,6,e,e,TRUE,1
CVOE_C,67,1,1,61,E 35,,,FALSE,OE,q,503,oe,E,5,o,o,TRUE,1
CVOE_C,67,1,1,62,I 93,,,FALSE,OE,q,548,oe,I,3,o,o,TRUE,1
CVOE_C,67,1,1,63,D 63,,,TRUE,OE,q,538,oe,D,3,o,o,TRUE,1
CVOE_C,67,1,1,64,U 89,,,FALSE,OE,q,397,oe,U,9,o,o,TRUE,1
CVOE_C,67,1,1,65,E 91,,,FALSE,OE,q,805,oe,E,1,o,o,TRUE,1
CVOE_C,67,1,1,66,A 12,,,TRUE,OE,p,478,oe,A,2,e,e,TRUE,1
CVOE_C,67,1,1,67,P 56,,,FALSE,OE,p,590,oe,P,6,e,e,TRUE,1
CVOE_C,67,1,1,68,S 65,,,TRUE,OE,q,540,oe,S,5,o,o,TRUE,1
CVOE_C,67,1,1,69,P 07,,,TRUE,OE,q,575,oe,P,7,o,o,TRUE,1
CVOE_C,67,1,1,70,I 77,,,FALSE,OE,q,498,oe,I,7,o,o,TRUE,1
CVOE_C,67,1,1,71,J 19,,,TRUE,OE,q,549,oe,J,9,o,o,TRUE,1
CVOE_C,67,1,1,72,O 59,,,FALSE,OE,q,515,oe,O,9,o,o,TRUE,1
CVOE_C,67,1,1,73,J 15,,,TRUE,OE,q,611,oe,J,5,o,o,TRUE,1
CVOE_C,67,1,1,74,I 89,,,FALSE,OE,q,447,oe,I,9,o,o,TRUE,1
CVOE_C,67,1,1,75,O 97,,,FALSE,OE,q,399,oe,O,7,o,o,TRUE,1
CVOE_C,67,1,1,76,A 92,,,TRUE,OE,p,527,oe,A,2,e,e,TRUE,1
CVOE_C,67,1,1,77,J 90,,,FALSE,OE,p,450,oe,J,0,e,e,TRUE,1
CVOE_C,67,1,1,78,H 65,,,TRUE,OE,q,541,oe,H,5,o,o,TRUE,1
CVOE_C,67,1,1,79,H 17,,,TRUE,OE,q,435,oe,H,7,o,o,TRUE,1
CVOE_C,67,1,1,80,S 26,,,FALSE,OE,p,467,oe,S,6,e,e,TRUE,1
CVOE_C,67,1,1,81,D 56,,,FALSE,OE,p,473,oe,D,6,e,e,TRUE,1
CVOE_C,67,1,1,82,I 91,,,FALSE,OE,q,511,oe,I,1,o,o,TRUE,1
CVOE_C,67,1,1,83,J 11,,,TRUE,OE,q,541,oe,J,1,o,o,TRUE,1
CVOE_C,67,1,1,84,O 28,,,TRUE,OE,p,482,oe,O,8,e,e,TRUE,1
CVOE_C,67,1,1,85,H 29,,,TRUE,OE,q,523,oe,H,9,o,o,TRUE,1
CVOE_C,67,1,1,86,J 25,,,TRUE,OE,q,675,oe,J,5,o,o,TRUE,1
CVOE_C,67,1,1,87,A 73,,,FALSE,OE,q,404,oe,A,3,o,o,TRUE,1
CVOE_C,67,1,1,88,J 63,,,TRUE,OE,q,396,oe,J,3,o,o,TRUE,1
CVOE_C,67,1,1,89,U 84,,,TRUE,OE,p,508,oe,U,4,e,e,TRUE,1
CVOE_C,67,1,1,90,A 58,,,TRUE,OE,q,442,oe,A,8,e,o,FALSE,0
CVOE_C,67,1,1,91,S 43,,,TRUE,OE,q,698,oe,S,3,o,o,TRUE,1
CVOE_C,67,1,1,92,H 54,,,FALSE,OE,p,582,oe,H,4,e,e,TRUE,1
CVOE_C,67,1,1,93,D 4,,,FALSE,OE,p,483,oe,D,,o,e,FALSE,0
CVOE_C,67,1,1,94,J 75,,,TRUE,OE,q,476,oe,J,5,o,o,TRUE,1
CVOE_C,67,1,1,95,D 19,,,TRUE,OE,q,444,oe,D,9,o,o,TRUE,1
CVOE_C,67,1,1,96,J 38,,,FALSE,OE,p,508,oe,J,8,e,e,TRUE,1
CVOE_C,67,1,1,97,I 56,,,TRUE,OE,p,506,oe,I,6,e,e,TRUE,1
CVOE_C,67,1,1,98,P 87,,,TRUE,OE,q,712,oe,P,7,o,o,TRUE,1
CVOE_C,67,1,1,99,O 80,,,TRUE,OE,p,510,oe,O,0,e,e,TRUE,1
CVOE_C,67,1,1,100,U 60,,,TRUE,OE,p,635,oe,U,0,e,e,TRUE,1
CVOE_C,67,1,1,101,P 48,,,FALSE,OE,p,548,oe,P,8,e,e,TRUE,1
CVOE_C,67,1,1,102,H 64,,,FALSE,OE,p,386,oe,H,4,e,e,TRUE,1
CVOE_C,67,1,1,103,A 13,,,FALSE,OE,q,479,oe,A,3,o,o,TRUE,1
CVOE_C,67,1,1,104,H 68,,,FALSE,OE,p,520,oe,H,8,e,e,TRUE,1
CVOE_C,67,1,1,105,E 16,,,TRUE,OE,p,440,oe,E,6,e,e,TRUE,1
CVOE_C,67,1,1,106,S 71,,,TRUE,OE,q,472,oe,S,1,o,o,TRUE,1
CVOE_C,67,1,2,11,A 71,,,FALSE,CV,p,1127,cv,A,1,v,v,TRUE,1
CVOE_C,67,1,2,12,I 66,,,TRUE,CV,p,530,cv,I,6,v,v,TRUE,1
CVOE_C,67,1,2,13,S 30,,,FALSE,CV,q,509,cv,S,0,c,c,TRUE,1
CVOE_C,67,1,2,14,D 20,,,FALSE,CV,q,547,cv,D,0,c,c,TRUE,1
CVOE_C,67,1,2,15,I 31,,,FALSE,CV,p,537,cv,I,1,v,v,TRUE,1
CVOE_C,67,1,2,16,P 16,,,FALSE,CV,q,428,cv,P,6,c,c,TRUE,1
CVOE_C,67,1,2,17,A 49,,,FALSE,CV,p,458,cv,A,9,v,v,TRUE,1
CVOE_C,67,1,2,18,O 64,,,TRUE,CV,p,653,cv,O,4,v,v,TRUE,1
CVOE_C,67,1,2,19,D 02,,,FALSE,CV,q,488,cv,D,2,c,c,TRUE,1
CVOE_C,67,1,2,20,P 81,,,TRUE,CV,q,403,cv,P,1,c,c,TRUE,1
CVOE_C,67,1,2,21,J 58,,,FALSE,CV,q,411,cv,J,8,c,c,TRUE,1
CVOE_C,67,1,2,22,A 22,,,TRUE,CV,p,446,cv,A,2,v,v,TRUE,1
CVOE_C,67,1,2,23,J 72,,,FALSE,CV,q,503,cv,J,2,c,c,TRUE,1
CVOE_C,67,1,2,24,P 91,,,TRUE,CV,q,427,cv,P,1,c,c,TRUE,1
CVOE_C,67,1,2,25,E 19,,,FALSE,CV,p,506,cv,E,9,v,v,TRUE,1
CVOE_C,67,1,2,26,I 30,,,TRUE,CV,p,536,cv,I,0,v,v,TRUE,1
CVOE_C,67,1,2,27,D 91,,,TRUE,CV,q,411,cv,D,1,c,c,TRUE,1
CVOE_C,67,1,2,28,O 48,,,TRUE,CV,p,470,cv,O,8,v,v,TRUE,1
CVOE_C,67,1,2,29,A 89,,,FALSE,CV,p,564,cv,A,9,v,v,TRUE,1
CVOE_C,67,1,2,30,U 11,,,FALSE,CV,p,540,cv,U,1,v,v,TRUE,1
CVOE_C,67,1,2,31,I 76,,,TRUE,CV,p,495,cv,I,6,v,v,TRUE,1
CVOE_C,67,1,2,32,U 89,,,FALSE,CV,p,506,cv,U,9,v,v,TRUE,1
CVOE_C,67,1,2,33,D 63,,,TRUE,CV,q,528,cv,D,3,c,c,TRUE,1
CVOE_C,67,1,2,34,H 70,,,FALSE,CV,q,603,cv,H,0,c,c,TRUE,1
CVOE_C,67,1,2,35,D 48,,,FALSE,CV,q,403,cv,D,8,c,c,TRUE,1
CVOE_C,67,1,2,36,P 56,,,FALSE,CV,q,364,cv,P,6,c,c,TRUE,1
CVOE_C,67,1,2,37,O 77,,,FALSE,CV,p,476,cv,O,7,v,v,TRUE,1
CVOE_C,67,1,2,38,P 42,,,FALSE,CV,q,500,cv,P,2,c,c,TRUE,1
CVOE_C,67,1,2,39,H 22,,,FALSE,CV,q,463,cv,H,2,c,c,TRUE,1
CVOE_C,67,1,2,40,E 42,,,TRUE,CV,p,469,cv,E,2,v,v,TRUE,1
CVOE_C,67,1,2,41,J 28,,,FALSE,CV,q,419,cv,J,8,c,c,TRUE,1
CVOE_C,67,1,2,42,E 95,,,FALSE,CV,p,502,cv,E,5,v,v,TRUE,1
CVOE_C,67,1,2,43,S 63,,,TRUE,CV,q,396,cv,S,3,c,c,TRUE,1
CVOE_C,67,1,2,44,H 50,,,FALSE,CV,q,484,cv,H,0,c,c,TRUE,1
CVOE_C,67,1,2,45,S 33,,,TRUE,CV,q,316,cv,S,3,c,c,TRUE,1
CVOE_C,67,1,2,46,P 57,,,TRUE,CV,q,357,cv,P,7,c,c,TRUE,1
CVOE_C,67,1,2,47,E 23,,,FALSE,CV,p,437,cv,E,3,v,v,TRUE,1
CVOE_C,67,1,2,48,S 61,,,TRUE,CV,q,453,cv,S,1,c,c,TRUE,1
CVOE_C,67,1,2,49,U 67,,,FALSE,CV,p,424,cv,U,7,v,v,TRUE,1
CVOE_C,67,1,2,50,H 32,,,FALSE,CV,q,454,cv,H,2,c,c,TRUE,1
CVOE_C,67,1,2,51,U 50,,,TRUE,CV,p,361,cv,U,0,v,v,TRUE,1
CVOE_C,67,1,2,52,O 49,,,FALSE,CV,p,425,cv,O,9,v,v,TRUE,1
CVOE_C,67,1,2,53,U 32,,,TRUE,CV,p,351,cv,U,2,v,v,TRUE,1
CVOE_C,67,1,2,54,J 78,,,FALSE,CV,q,469,cv,J,8,c,c,TRUE,1
CVOE_C,67,1,2,55,S 54,,,FALSE,CV,q,443,cv,S,4,c,c,TRUE,1
CVOE_C,67,1,2,56,J 27,,,TRUE,CV,q,451,cv,J,7,c,c,TRUE,1
CVOE_C,67,1,2,57,S 06,,,FALSE,CV,q,454,cv,S,6,c,c,TRUE,1
CVOE_C,67,1,2,58,D 67,,,TRUE,CV,q,617,cv,D,7,c,c,TRUE,1
CVOE_C,67,1,2,59,A 79,,,FALSE,CV,p,524,cv,A,9,v,v,TRUE,1
CVOE_C,67,1,2,60,S 52,,,FALSE,CV,q,388,cv,S,2,c,c,TRUE,1
CVOE_C,67,1,2,61,U 16,,,TRUE,CV,p,458,cv,U,6,v,v,TRUE,1
CVOE_C,67,1,2,62,O 82,,,TRUE,CV,p,429,cv,O,2,v,v,TRUE,1
CVOE_C,67,1,2,63,H 87,,,TRUE,CV,q,571,cv,H,7,c,c,TRUE,1
CVOE_C,67,1,2,64,I 32,,,TRUE,CV,p,462,cv,I,2,v,v,TRUE,1
CVOE_C,67,1,2,65,U 37,,,FALSE,CV,p,452,cv,U,7,v,v,TRUE,1
CVOE_C,67,1,2,66,I 42,,,TRUE,CV,p,390,cv,I,2,v,v,TRUE,1
CVOE_C,67,1,2,67,D 65,,,TRUE,CV,q,531,cv,D,5,c,c,TRUE,1
CVOE_C,67,1,2,68,U 77,,,FALSE,CV,p,535,cv,U,7,v,v,TRUE,1
CVOE_C,67,1,2,69,E 12,,,TRUE,CV,p,555,cv,E,2,v,v,TRUE,1
CVOE_C,67,1,2,70,I 60,,,TRUE,CV,p,395,cv,I,0,v,v,TRUE,1
CVOE_C,67,1,2,71,J 36,,,FALSE,CV,q,491,cv,J,6,c,c,TRUE,1
CVOE_C,67,1,2,72,H 75,,,TRUE,CV,q,438,cv,H,5,c,c,TRUE,1
CVOE_C,67,1,2,73,I 50,,,TRUE,CV,p,527,cv,I,0,v,v,TRUE,1
CVOE_C,67,1,2,74,E 99,,,FALSE,CV,p,399,cv,E,9,v,v,TRUE,1
CVOE_C,67,1,2,75,A 86,,,TRUE,CV,p,438,cv,A,6,v,v,TRUE,1
CVOE_C,67,1,2,76,U 48,,,TRUE,CV,p,423,cv,U,8,v,v,TRUE,1
CVOE_C,67,1,2,77,E 01,,,FALSE,CV,p,422,cv,E,1,v,v,TRUE,1
CVOE_C,67,1,2,78,A 78,,,TRUE,CV,p,427,cv,A,8,v,v,TRUE,1
CVOE_C,67,1,2,79,P 60,,,FALSE,CV,q,536,cv,P,0,c,c,TRUE,1
CVOE_C,67,1,2,80,E 43,,,FALSE,CV,p,507,cv,E,3,v,v,TRUE,1
CVOE_C,67,1,2,81,D 69,,,TRUE,CV,q,490,cv,D,9,c,c,TRUE,1
CVOE_C,67,1,2,82,H 11,,,TRUE,CV,q,484,cv,H,1,c,c,TRUE,1
CVOE_C,67,1,2,83,P 43,,,TRUE,CV,q,533,cv,P,3,c,c,TRUE,1
CVOE_C,67,1,2,84,O 67,,,FALSE,CV,p,479,cv,O,7,v,v,TRUE,1
CVOE_C,67,1,2,85,S 91,,,FALSE,CV,q,377,cv,S,1,c,c,TRUE,1
CVOE_C,67,1,2,86,J 68,,,TRUE,CV,q,403,cv,J,8,c,c,TRUE,1
CVOE_C,67,1,2,87,S 47,,,FALSE,CV,q,412,cv,S,7,c,c,TRUE,1
CVOE_C,67,1,2,88,I 81,,,TRUE,CV,p,494,cv,I,1,v,v,TRUE,1
CVOE_C,67,1,2,89,J 39,,,FALSE,CV,q,417,cv,J,9,c,c,TRUE,1
CVOE_C,67,1,2,90,A 11,,,TRUE,CV,p,444,cv,A,1,v,v,TRUE,1
CVOE_C,67,1,2,91,O 76,,,FALSE,CV,p,644,cv,O,6,v,v,TRUE,1
CVOE_C,67,1,2,92,A 62,,,FALSE,CV,p,373,cv,A,2,v,v,TRUE,1
CVOE_C,67,1,2,93,O 27,,,TRUE,CV,p,425,cv,O,7,v,v,TRUE,1
CVOE_C,67,1,2,94,E 66,,,FALSE,CV,p,446,cv,E,6,v,v,TRUE,1
CVOE_C,67,1,2,95,J 62,,,TRUE,CV,q,494,cv,J,2,c,c,TRUE,1
CVOE_C,67,1,2,96,H 72,,,TRUE,CV,q,457,cv,H,2,c,c,TRUE,1
CVOE_C,67,1,2,97,E 49,,,TRUE,CV,p,476,cv,E,9,v,v,TRUE,1
CVOE_C,67,1,2,98,D 52,,,TRUE,CV,q,396,cv,D,2,c,c,TRUE,1
CVOE_C,67,1,2,99,H 62,,,TRUE,CV,q,461,cv,H,2,c,c,TRUE,1
CVOE_C,67,1,2,100,I 11,,,TRUE,CV,p,498,cv,I,1,v,v,TRUE,1
CVOE_C,67,1,2,101,A 98,,,FALSE,CV,p,421,cv,A,8,v,v,TRUE,1
CVOE_C,67,1,2,102,H 29,,,FALSE,CV,q,499,cv,H,9,c,c,TRUE,1
CVOE_C,67,1,2,103,E 83,,,TRUE,CV,p,438,cv,E,3,v,v,TRUE,1
CVOE_C,67,1,2,104,D 43,,,FALSE,CV,q,495,cv,D,3,c,c,TRUE,1
CVOE_C,67,1,2,105,P 45,,,TRUE,CV,q,450,cv,P,5,c,c,TRUE,1
CVOE_C,67,1,2,106,J 17,,,TRUE,CV,q,461,cv,J,7,c,c,TRUE,1
CVOE_C,67,1,3,11,A 44,Letter,N,TRUE,CV,p,2433,alt,A,4,v,v,TRUE,1
CVOE_C,67,1,3,12,D 94,Letter,N,FALSE,CV,q,1010,alt,D,4,c,c,TRUE,1
CVOE_C,67,1,3,15,I 64,Letter,Y,TRUE,CV,p,739,alt,I,4,v,v,TRUE,1
CVOE_C,67,1,3,16,J 54,Letter,N,FALSE,CV,q,911,alt,J,4,c,c,TRUE,1
CVOE_C,67,1,3,19,S 34,Letter,Y,FALSE,CV,q,843,alt,S,4,c,c,TRUE,1
CVOE_C,67,1,3,20,U 88,Letter,N,TRUE,CV,p,923,alt,U,8,v,v,TRUE,1
CVOE_C,67,1,3,23,E 79,Letter,Y,FALSE,CV,p,816,alt,E,9,v,v,TRUE,1
CVOE_C,67,1,3,24,H 72,Letter,N,FALSE,CV,q,795,alt,H,2,c,c,TRUE,1
CVOE_C,67,1,3,27,O 03,Letter,Y,FALSE,CV,p,1626,alt,O,3,v,v,TRUE,1
CVOE_C,67,1,3,28,P 75,Letter,N,TRUE,CV,q,864,alt,P,5,c,c,TRUE,1
CVOE_C,67,1,3,31,A 21,Letter,Y,FALSE,CV,p,794,alt,A,1,v,v,TRUE,1
CVOE_C,67,1,3,32,D 18,Letter,N,FALSE,CV,q,930,alt,D,8,c,c,TRUE,1
CVOE_C,67,1,3,35,I 82,Letter,Y,TRUE,CV,p,1260,alt,I,2,v,v,TRUE,1
CVOE_C,67,1,3,36,J 78,Letter,N,FALSE,CV,q,954,alt,J,8,c,c,TRUE,1
CVOE_C,67,1,3,39,S 07,Letter,Y,TRUE,CV,q,867,alt,S,7,c,c,TRUE,1
CVOE_C,67,1,3,40,U 36,Letter,N,TRUE,CV,p,1233,alt,U,6,v,v,TRUE,1
CVOE_C,67,1,3,43,E 60,Letter,Y,TRUE,CV,p,1219,alt,E,0,v,v,TRUE,1
CVOE_C,67,1,3,44,H 83,Letter,N,TRUE,CV,q,753,alt,H,3,c,c,TRUE,1
CVOE_C,67,1,3,47,O 78,Letter,Y,TRUE,CV,p,760,alt,O,8,v,v,TRUE,1
CVOE_C,67,1,3,48,P 09,Letter,N,TRUE,CV,q,985,alt,P,9,c,c,TRUE,1
CVOE_C,67,1,3,51,A 31,Letter,Y,FALSE,CV,p,1662,alt,A,1,v,v,TRUE,1
CVOE_C,67,1,3,52,D 96,Letter,N,FALSE,CV,q,844,alt,D,6,c,c,TRUE,1
CVOE_C,67,1,3,55,I 15,Letter,Y,FALSE,CV,p,1227,alt,I,5,v,v,TRUE,1
CVOE_C,67,1,3,56,J 07,Letter,N,TRUE,CV,q,1529,alt,J,7,c,c,TRUE,1
CVOE_C,67,1,3,59,S 37,Letter,Y,TRUE,CV,q,745,alt,S,7,c,c,TRUE,1
CVOE_C,67,1,3,60,U 61,Letter,N,FALSE,CV,p,1263,alt,U,1,v,v,TRUE,1
CVOE_C,67,1,3,63,E 20,Letter,Y,TRUE,CV,p,731,alt,E,0,v,v,TRUE,1
CVOE_C,67,1,3,64,H 86,Letter,N,FALSE,CV,q,870,alt,H,6,c,c,TRUE,1
CVOE_C,67,1,3,67,O 13,Letter,Y,FALSE,CV,p,1016,alt,O,3,v,v,TRUE,1
CVOE_C,67,1,3,68,P 82,Letter,N,FALSE,CV,q,1155,alt,P,2,c,c,TRUE,1
CVOE_C,67,1,3,71,A 49,Letter,Y,FALSE,CV,p,957,alt,A,9,v,v,TRUE,1
CVOE_C,67,1,3,72,D 91,Letter,N,TRUE,CV,q,885,alt,D,1,c,c,TRUE,1
CVOE_C,67,1,3,75,I 45,Letter,Y,FALSE,CV,p,956,alt,I,5,v,v,TRUE,1
CVOE_C,67,1,3,76,J 70,Letter,N,FALSE,CV,q,877,alt,J,0,c,c,TRUE,1
CVOE_C,67,1,3,79,S 93,Letter,Y,TRUE,CV,q,849,alt,S,3,c,c,TRUE,1
CVOE_C,67,1,3,80,U 70,Letter,N,TRUE,CV,p,933,alt,U,0,v,v,TRUE,1
CVOE_C,67,1,3,83,E 68,Letter,Y,TRUE,CV,p,1417,alt,E,8,v,v,TRUE,1
CVOE_C,67,1,3,84,H 17,Letter,N,TRUE,CV,q,1100,alt,H,7,c,c,TRUE,1
CVOE_C,67,1,3,87,O 32,Letter,Y,TRUE,CV,p,1062,alt,O,2,v,v,TRUE,1
CVOE_C,67,1,3,88,P 95,Letter,N,TRUE,CV,q,1132,alt,P,5,c,c,TRUE,1
CVOE_C,67,1,3,91,A 56,Letter,Y,TRUE,CV,p,1224,alt,A,6,v,v,TRUE,1
CVOE_C,67,1,3,92,D 57,Letter,N,TRUE,CV,q,838,alt,D,7,c,c,TRUE,1
CVOE_C,67,1,3,95,I 35,Letter,Y,FALSE,CV,p,856,alt,I,5,v,v,TRUE,1
CVOE_C,67,1,3,96,J 03,Letter,N,TRUE,CV,q,1267,alt,J,3,c,c,TRUE,1
CVOE_C,67,1,3,99,S 77,Letter,Y,TRUE,CV,q,863,alt,S,7,c,c,TRUE,1
CVOE_C,67,1,3,100,U 05,Letter,N,FALSE,CV,p,973,alt,U,5,v,v,TRUE,1
CVOE_C,67,1,3,103,E 02,Letter,Y,TRUE,CV,p,1218,alt,E,2,v,v,TRUE,1
CVOE_C,67,1,3,104,H 68,Letter,N,FALSE,CV,q,829,alt,H,8,c,c,TRUE,1
CVOE_C,67,1,3,107,O 73,Letter,Y,FALSE,CV,p,1044,alt,O,3,v,v,TRUE,1
CVOE_C,67,1,3,108,P 41,Letter,N,TRUE,CV,q,837,alt,P,1,c,c,TRUE,1
CVOE_C,67,1,3,111,A 09,Letter,Y,FALSE,CV,p,916,alt,A,9,v,v,TRUE,1
CVOE_C,67,1,3,112,D 92,Letter,N,FALSE,CV,q,900,alt,D,2,c,c,TRUE,1
CVOE_C,67,1,3,115,I 44,Letter,Y,TRUE,CV,p,846,alt,I,4,v,v,TRUE,1
CVOE_C,67,1,3,116,J 67,Letter,N,TRUE,CV,q,982,alt,J,7,c,c,TRUE,1
CVOE_C,67,1,3,119,S 86,Letter,Y,FALSE,CV,q,797,alt,S,6,c,c,TRUE,1
CVOE_C,67,1,3,120,U 35,Letter,N,FALSE,CV,p,1926,alt,U,5,v,v,TRUE,1
CVOE_C,67,1,3,123,E 91,Letter,Y,FALSE,CV,p,1075,alt,E,1,v,v,TRUE,1
CVOE_C,67,1,3,124,H 54,Letter,N,FALSE,CV,q,899,alt,H,4,c,c,TRUE,1
CVOE_C,67,1,3,127,O 19,Letter,Y,FALSE,CV,p,1034,alt,O,9,v,v,TRUE,1
CVOE_C,67,1,3,128,P 48,Letter,N,FALSE,CV,q,963,alt,P,8,c,c,TRUE,1
CVOE_C,67,1,3,13,E 75,Number,Y,FALSE,OE,q,909,alt,E,5,o,o,TRUE,1
CVOE_C,67,1,3,14,H 81,Number,N,TRUE,OE,q,1115,alt,H,1,o,o,TRUE,1
CVOE_C,67,1,3,17,O 23,Number,Y,FALSE,OE,q,884,alt,O,3,o,o,TRUE,1
CVOE_C,67,1,3,18,P 05,Number,N,TRUE,OE,q,1101,alt,P,5,o,o,TRUE,1
CVOE_C,67,1,3,21,A 70,Number,Y,TRUE,OE,p,908,alt,A,0,e,e,TRUE,1
CVOE_C,67,1,3,22,D 12,Number,N,FALSE,OE,p,906,alt,D,2,e,e,TRUE,1
CVOE_C,67,1,3,25,I 41,Number,Y,FALSE,OE,q,875,alt,I,1,o,o,TRUE,1
CVOE_C,67,1,3,26,J 63,Number,N,TRUE,OE,q,780,alt,J,3,o,o,TRUE,1
CVOE_C,67,1,3,29,S 61,Number,Y,TRUE,OE,q,814,alt,S,1,o,o,TRUE,1
CVOE_C,67,1,3,30,U 28,Number,N,TRUE,OE,p,873,alt,U,8,e,e,TRUE,1
CVOE_C,67,1,3,33,E 35,Number,Y,FALSE,OE,q,917,alt,E,5,o,o,TRUE,1
CVOE_C,67,1,3,34,H 62,Number,N,FALSE,OE,p,1022,alt,H,2,e,e,TRUE,1
CVOE_C,67,1,3,37,O 12,Number,Y,TRUE,OE,p,938,alt,O,2,e,e,TRUE,1
CVOE_C,67,1,3,38,P 13,Number,N,TRUE,OE,q,982,alt,P,3,o,o,TRUE,1
CVOE_C,67,1,3,41,A 96,Number,Y,TRUE,OE,p,1506,alt,A,6,e,e,TRUE,1
CVOE_C,67,1,3,42,D 04,Number,N,FALSE,OE,p,1048,alt,D,4,e,e,TRUE,1
CVOE_C,67,1,3,45,I 64,Number,Y,TRUE,OE,p,778,alt,I,4,e,e,TRUE,1
CVOE_C,67,1,3,46,J 76,Number,N,FALSE,OE,p,853,alt,J,6,e,e,TRUE,1
CVOE_C,67,1,3,49,S 72,Number,Y,FALSE,OE,p,2735,alt,S,2,e,e,TRUE,1
CVOE_C,67,1,3,50,U 47,Number,N,FALSE,OE,q,779,alt,U,7,o,o,TRUE,1
CVOE_C,67,1,3,53,E 40,Number,Y,TRUE,OE,p,828,alt,E,0,e,e,TRUE,1
CVOE_C,67,1,3,54,H 79,Number,N,TRUE,OE,q,1194,alt,H,9,o,o,TRUE,1
CVOE_C,67,1,3,57,O 61,Number,Y,FALSE,OE,q,1220,alt,O,1,o,o,TRUE,1
CVOE_C,67,1,3,58,P 58,Number,N,FALSE,OE,p,2226,alt,P,8,e,e,TRUE,1
CVOE_C,67,1,3,61,A 17,Number,Y,FALSE,OE,q,1093,alt,A,7,o,o,TRUE,1
CVOE_C,67,1,3,62,D 85,Number,N,TRUE,OE,q,968,alt,D,5,o,o,TRUE,1
CVOE_C,67,1,3,65,I 21,Number,Y,FALSE,OE,q,948,alt,I,1,o,o,TRUE,1
CVOE_C,67,1,3,66,J 29,Number,N,TRUE,OE,q,946,alt,J,9,o,o,TRUE,1
CVOE_C,67,1,3,69,S 72,Number,Y,FALSE,OE,p,1084,alt,S,2,e,e,TRUE,1
CVOE_C,67,1,3,70,U 84,Number,N,TRUE,OE,p,956,alt,U,4,e,e,TRUE,1
CVOE_C,67,1,3,73,E 99,Number,Y,FALSE,OE,q,846,alt,E,9,o,o,TRUE,1
CVOE_C,67,1,3,74,H 16,Number,N,FALSE,OE,p,871,alt,H,6,e,e,TRUE,1
CVOE_C,67,1,3,77,O 22,Number,Y,TRUE,OE,p,942,alt,O,2,e,e,TRUE,1
CVOE_C,67,1,3,78,P 41,Number,N,TRUE,OE,q,947,alt,P,1,o,o,TRUE,1
CVOE_C,67,1,3,81,A 42,Number,Y,TRUE,OE,p,808,alt,A,2,e,e,TRUE,1
CVOE_C,67,1,3,82,D 85,Number,N,TRUE,OE,q,707,alt,D,5,o,o,TRUE,1
CVOE_C,67,1,3,85,I 70,Number,Y,TRUE,OE,p,898,alt,I,0,e,e,TRUE,1
CVOE_C,67,1,3,86,J 88,Number,N,FALSE,OE,p,837,alt,J,8,e,e,TRUE,1
CVOE_C,67,1,3,89,S 98,Number,Y,FALSE,OE,p,895,alt,S,8,e,e,TRUE,1
CVOE_C,67,1,3,90,U 37,Number,N,FALSE,OE,q,706,alt,U,7,o,o,TRUE,1
CVOE_C,67,1,3,93,E 93,Number,Y,FALSE,OE,q,967,alt,E,3,o,o,TRUE,1
CVOE_C,67,1,3,94,H 27,Number,N,TRUE,OE,q,946,alt,H,7,o,o,TRUE,1
CVOE_C,67,1,3,97,O 28,Number,Y,TRUE,OE,p,937,alt,O,8,e,e,TRUE,1
CVOE_C,67,1,3,98,P 59,Number,N,TRUE,OE,q,852,alt,P,9,o,o,TRUE,1
CVOE_C,67,1,3,101,A 56,Number,Y,TRUE,OE,p,1280,alt,A,6,e,e,TRUE,1
CVOE_C,67,1,3,102,D 01,Number,N,TRUE,OE,q,1041,alt,D,1,o,o,TRUE,1
CVOE_C,67,1,3,105,I 05,Number,Y,FALSE,OE,q,1219,alt,I,5,o,o,TRUE,1
CVOE_C,67,1,3,106,J 55,Number,N,TRUE,OE,q,910,alt,J,5,o,o,TRUE,1
CVOE_C,67,1,3,109,S 92,Number,Y,FALSE,OE,p,1181,alt,S,2,e,e,TRUE,1
CVOE_C,67,1,3,110,U 34,Number,N,TRUE,OE,p,875,alt,U,4,e,e,TRUE,1
CVOE_C,67,1,3,113,E 48,Number,Y,TRUE,OE,p,746,alt,E,8,e,e,TRUE,1
CVOE_C,67,1,3,114,H 76,Number,N,FALSE,OE,p,952,alt,H,6,e,e,TRUE,1
CVOE_C,67,1,3,117,O 48,Number,Y,TRUE,OE,p,740,alt,O,8,e,e,TRUE,1
CVOE_C,67,1,3,118,P 22,Number,N,FALSE,OE,p,1010,alt,P,2,e,e,TRUE,1
CVOE_C,67,1,3,121,A 91,Number,Y,FALSE,OE,q,1057,alt,A,1,o,o,TRUE,1
CVOE_C,67,1,3,122,D 78,Number,N,FALSE,OE,p,1069,alt,D,8,e,e,TRUE,1
CVOE_C,67,1,3,125,I 65,Number,Y,FALSE,OE,q,878,alt,I,5,o,o,TRUE,1
CVOE_C,67,1,3,126,J 52,Number,N,FALSE,OE,p,767,alt,J,2,e,e,TRUE,1
CVOE_C,67,1,3,129,S 45,Number,Y,TRUE,OE,q,1051,alt,S,5,o,o,TRUE,1
CVOE_C,67,1,3,130,U 26,Number,N,TRUE,OE,p,959,alt,U,6,e,e,TRUE,1
CVOE_C,67,1,4,3,U 95,Letter,Y,FALSE,CV,p,1124,shuf,U,5,v,v,TRUE,1
CVOE_C,67,1,4,7,A 56,Letter,Y,TRUE,CV,p,1483,shuf,A,6,v,v,TRUE,1
CVOE_C,67,1,4,8,H 78,Letter,N,FALSE,CV,q,716,shuf,H,8,c,c,TRUE,1
CVOE_C,67,1,4,9,P 92,Letter,N,FALSE,CV,q,1069,shuf,P,2,c,c,TRUE,1
CVOE_C,67,1,4,11,P 57,Letter,Y,TRUE,CV,q,1307,shuf,P,7,c,c,TRUE,1
CVOE_C,67,1,4,13,O 89,Letter,Y,FALSE,CV,p,909,shuf,O,9,v,v,TRUE,1
CVOE_C,67,1,4,16,S 07,Letter,Y,TRUE,CV,q,953,shuf,S,7,c,c,TRUE,1
CVOE_C,67,1,4,17,J 10,Letter,N,FALSE,CV,q,1153,shuf,J,0,c,c,TRUE,1
CVOE_C,67,1,4,20,J 36,Letter,Y,FALSE,CV,q,862,shuf,J,6,c,c,TRUE,1
CVOE_C,67,1,4,21,I 94,Letter,N,TRUE,CV,p,1516,shuf,I,4,v,v,TRUE,1
CVOE_C,67,1,4,22,A 82,Letter,N,TRUE,CV,p,1236,shuf,A,2,v,v,TRUE,1
CVOE_C,67,1,4,25,S 28,Letter,Y,FALSE,CV,q,1057,shuf,S,8,c,c,TRUE,1
CVOE_C,67,1,4,30,S 35,Letter,Y,TRUE,CV,q,692,shuf,S,5,c,c,TRUE,1
CVOE_C,67,1,4,34,U 95,Letter,Y,FALSE,CV,p,1046,shuf,U,5,v,v,TRUE,1
CVOE_C,67,1,4,35,A 53,Letter,N,FALSE,CV,p,750,shuf,A,3,v,v,TRUE,1
CVOE_C,67,1,4,36,E 43,Letter,N,FALSE,CV,p,732,shuf,E,3,v,v,TRUE,1
CVOE_C,67,1,4,38,O 19,Letter,Y,FALSE,CV,p,962,shuf,O,9,v,v,TRUE,1
CVOE_C,67,1,4,43,P 79,Letter,Y,TRUE,CV,q,845,shuf,P,9,c,c,TRUE,1
CVOE_C,67,1,4,48,E 54,Letter,Y,TRUE,CV,p,735,shuf,E,4,v,v,TRUE,1
CVOE_C,67,1,4,49,A 53,Letter,N,FALSE,CV,p,619,shuf,A,3,v,v,TRUE,1
CVOE_C,67,1,4,50,P 34,Letter,N,FALSE,CV,q,662,shuf,P,4,c,c,TRUE,1
CVOE_C,67,1,4,52,A 03,Letter,Y,FALSE,CV,p,956,shuf,A,3,v,v,TRUE,1
CVOE_C,67,1,4,54,I 58,Letter,Y,TRUE,CV,q,1088,shuf,I,8,v,c,FALSE,0
CVOE_C,67,1,4,57,I 20,Letter,Y,TRUE,CV,p,1773,shuf,I,0,v,v,TRUE,1
CVOE_C,67,1,4,58,J 52,Letter,N,FALSE,CV,q,688,shuf,J,2,c,c,TRUE,1
CVOE_C,67,1,4,60,I 60,Letter,Y,TRUE,CV,p,1372,shuf,I,0,v,v,TRUE,1
CVOE_C,67,1,4,62,D 63,Letter,Y,TRUE,CV,q,1434,shuf,D,3,c,c,TRUE,1
CVOE_C,67,1,4,63,U 27,Letter,N,FALSE,CV,p,987,shuf,U,7,v,v,TRUE,1
CVOE_C,67,1,4,64,J 77,Letter,N,TRUE,CV,q,665,shuf,J,7,c,c,TRUE,1
CVOE_C,67,1,4,66,J 20,Letter,Y,FALSE,CV,q,1189,shuf,J,0,c,c,TRUE,1
CVOE_C,67,1,4,69,O 04,Letter,Y,TRUE,CV,p,767,shuf,O,4,v,v,TRUE,1
CVOE_C,67,1,4,70,E 10,Letter,N,TRUE,CV,p,634,shuf,E,0,v,v,TRUE,1
CVOE_C,67,1,4,71,I 52,Letter,N,TRUE,CV,p,603,shuf,I,2,v,v,TRUE,1
CVOE_C,67,1,4,74,U 19,Letter,Y,FALSE,CV,p,1063,shuf,U,9,v,v,TRUE,1
CVOE_C,67,1,4,77,P 93,Letter,Y,TRUE,CV,q,918,shuf,P,3,c,c,TRUE,1
CVOE_C,67,1,4,78,E 59,Letter,N,FALSE,CV,p,550,shuf,E,9,v,v,TRUE,1
CVOE_C,67,1,4,79,O 53,Letter,N,FALSE,CV,p,524,shuf,O,3,v,v,TRUE,1
CVOE_C,67,1,4,80,A 96,Letter,N,TRUE,CV,p,532,shuf,A,6,v,v,TRUE,1
CVOE_C,67,1,4,81,H 36,Letter,Y,FALSE,CV,q,735,shuf,H,6,c,c,TRUE,1
CVOE_C,67,1,4,82,A 63,Letter,N,FALSE,CV,p,739,shuf,A,3,v,v,TRUE,1
CVOE_C,67,1,4,83,I 38,Letter,N,TRUE,CV,p,630,shuf,I,8,v,v,TRUE,1
CVOE_C,67,1,4,86,S 34,Letter,Y,FALSE,CV,q,1149,shuf,S,4,c,c,TRUE,1
CVOE_C,67,1,4,89,I 73,Letter,Y,FALSE,CV,q,924,shuf,I,3,v,c,FALSE,0
CVOE_C,67,1,4,92,P 72,Letter,Y,FALSE,CV,q,629,shuf,P,2,c,c,TRUE,1
CVOE_C,67,1,4,94,U 25,Letter,Y,FALSE,CV,q,860,shuf,U,5,v,c,FALSE,0
CVOE_C,67,1,4,95,O 32,Letter,N,TRUE,CV,q,1311,shuf,O,2,v,c,FALSE,0
CVOE_C,67,1,4,96,E 80,Letter,N,TRUE,CV,p,1461,shuf,E,0,v,v,TRUE,1
CVOE_C,67,1,4,100,U 35,Letter,Y,FALSE,CV,p,1084,shuf,U,5,v,v,TRUE,1
CVOE_C,67,1,4,101,H 14,Letter,N,FALSE,CV,q,685,shuf,H,4,c,c,TRUE,1
CVOE_C,67,1,4,103,E 36,Letter,Y,TRUE,CV,p,683,shuf,E,6,v,v,TRUE,1
CVOE_C,67,1,4,104,P 70,Letter,N,FALSE,CV,q,668,shuf,P,0,c,c,TRUE,1
CVOE_C,67,1,4,106,S 41,Letter,Y,TRUE,CV,q,709,shuf,S,1,c,c,TRUE,1
CVOE_C,67,1,4,107,D 83,Letter,N,TRUE,CV,q,714,shuf,D,3,c,c,TRUE,1
CVOE_C,67,1,4,108,J 39,Letter,N,TRUE,CV,q,539,shuf,J,9,c,c,TRUE,1
CVOE_C,67,1,4,110,D 89,Letter,Y,TRUE,CV,q,599,shuf,D,9,c,c,TRUE,1
CVOE_C,67,1,4,111,P 87,Letter,N,TRUE,CV,q,783,shuf,P,7,c,c,TRUE,1
CVOE_C,67,1,4,112,H 42,Letter,N,FALSE,CV,q,757,shuf,H,2,c,c,TRUE,1
CVOE_C,67,1,4,113,S 49,Letter,N,TRUE,CV,q,533,shuf,S,9,c,c,TRUE,1
CVOE_C,67,1,4,115,O 19,Letter,Y,FALSE,CV,p,838,shuf,O,9,v,v,TRUE,1
CVOE_C,67,1,4,116,H 50,Letter,N,FALSE,CV,q,671,shuf,H,0,c,c,TRUE,1
CVOE_C,67,1,4,1,U 38,Number,N,TRUE,OE,p,2413,shuf,U,8,e,e,TRUE,1
CVOE_C,67,1,4,2,P 73,Number,N,TRUE,OE,q,889,shuf,P,3,o,o,TRUE,1
CVOE_C,67,1,4,4,J 61,Number,Y,TRUE,OE,q,1212,shuf,J,1,o,o,TRUE,1
CVOE_C,67,1,4,5,D 51,Number,N,TRUE,OE,q,912,shuf,D,1,o,o,TRUE,1
CVOE_C,67,1,4,6,S 28,Number,N,FALSE,OE,p,1030,shuf,S,8,e,e,TRUE,1
CVOE_C,67,1,4,10,E 05,Number,Y,FALSE,OE,q,1083,shuf,E,5,o,o,TRUE,1
CVOE_C,67,1,4,12,D 88,Number,Y,FALSE,OE,p,937,shuf,D,8,e,e,TRUE,1
CVOE_C,67,1,4,14,U 43,Number,Y,FALSE,OE,q,818,shuf,U,3,o,o,TRUE,1
CVOE_C,67,1,4,15,H 10,Number,N,FALSE,OE,p,1214,shuf,H,0,e,e,TRUE,1
CVOE_C,67,1,4,18,H 54,Number,Y,FALSE,OE,p,842,shuf,H,4,e,e,TRUE,1
CVOE_C,67,1,4,19,E 99,Number,N,FALSE,OE,q,731,shuf,E,9,o,o,TRUE,1
CVOE_C,67,1,4,23,H 79,Number,Y,TRUE,OE,q,813,shuf,H,9,o,o,TRUE,1
CVOE_C,67,1,4,24,J 60,Number,N,FALSE,OE,p,1160,shuf,J,0,e,e,TRUE,1
CVOE_C,67,1,4,26,P 11,Number,Y,TRUE,OE,q,772,shuf,P,1,o,o,TRUE,1
CVOE_C,67,1,4,27,D 39,Number,N,TRUE,OE,q,655,shuf,D,9,o,o,TRUE,1
CVOE_C,67,1,4,28,E 90,Number,N,TRUE,OE,p,818,shuf,E,0,e,e,TRUE,1
CVOE_C,67,1,4,29,I 38,Number,N,TRUE,OE,p,942,shuf,I,8,e,e,TRUE,1
CVOE_C,67,1,4,31,D 41,Number,Y,TRUE,OE,q,983,shuf,D,1,o,o,TRUE,1
CVOE_C,67,1,4,32,E 06,Number,N,TRUE,OE,p,853,shuf,E,6,e,e,TRUE,1
CVOE_C,67,1,4,33,A 27,Number,N,FALSE,OE,q,904,shuf,A,7,o,o,TRUE,1
CVOE_C,67,1,4,37,P 05,Number,Y,TRUE,OE,q,735,shuf,P,5,o,o,TRUE,1
CVOE_C,67,1,4,39,I 96,Number,Y,TRUE,OE,p,987,shuf,I,6,e,e,TRUE,1
CVOE_C,67,1,4,40,A 88,Number,N,TRUE,OE,p,841,shuf,A,8,e,e,TRUE,1
CVOE_C,67,1,4,41,I 67,Number,N,FALSE,OE,q,793,shuf,I,7,o,o,TRUE,1
CVOE_C,67,1,4,42,D 40,Number,N,FALSE,OE,p,778,shuf,D,0,e,e,TRUE,1
CVOE_C,67,1,4,44,U 24,Number,Y,TRUE,OE,p,790,shuf,U,4,e,e,TRUE,1
CVOE_C,67,1,4,45,P 74,Number,N,FALSE,OE,p,827,shuf,P,4,e,e,TRUE,1
CVOE_C,67,1,4,46,E 70,Number,N,TRUE,OE,p,817,shuf,E,0,e,e,TRUE,1
CVOE_C,67,1,4,47,S 27,Number,N,TRUE,OE,q,652,shuf,S,7,o,o,TRUE,1
CVOE_C,67,1,4,51,D 74,Number,Y,FALSE,OE,p,724,shuf,D,4,e,e,TRUE,1
CVOE_C,67,1,4,53,E 24,Number,Y,TRUE,OE,p,973,shuf,E,4,e,e,TRUE,1
CVOE_C,67,1,4,55,D 77,Number,Y,TRUE,OE,q,2011,shuf,D,7,o,o,TRUE,1
CVOE_C,67,1,4,56,S 75,Number,N,TRUE,OE,q,903,shuf,S,5,o,o,TRUE,1
CVOE_C,67,1,4,59,A 38,Number,Y,TRUE,OE,p,715,shuf,A,8,e,e,TRUE,1
CVOE_C,67,1,4,61,S 51,Number,Y,TRUE,OE,q,927,shuf,S,1,o,o,TRUE,1
CVOE_C,67,1,4,65,O 15,Number,Y,FALSE,OE,q,1303,shuf,O,5,o,o,TRUE,1
CVOE_C,67,1,4,67,U 97,Number,Y,FALSE,OE,q,891,shuf,U,7,o,o,TRUE,1
CVOE_C,67,1,4,68,H 03,Number,N,TRUE,OE,q,1758,shuf,H,3,o,o,TRUE,1
CVOE_C,67,1,4,72,H 81,Number,Y,TRUE,OE,q,1187,shuf,H,1,o,o,TRUE,1
CVOE_C,67,1,4,73,I 41,Number,N,FALSE,OE,q,745,shuf,I,1,o,o,TRUE,1
CVOE_C,67,1,4,75,O 17,Number,Y,FALSE,OE,q,765,shuf,O,7,o,o,TRUE,1
CVOE_C,67,1,4,76,A 10,Number,N,TRUE,OE,p,917,shuf,A,0,e,e,TRUE,1
CVOE_C,67,1,4,84,O 51,Number,Y,FALSE,OE,q,988,shuf,O,1,o,o,TRUE,1
CVOE_C,67,1,4,85,J 26,Number,N,FALSE,OE,p,729,shuf,J,6,e,e,TRUE,1
CVOE_C,67,1,4,87,U 85,Number,Y,FALSE,OE,q,779,shuf,U,5,o,o,TRUE,1
CVOE_C,67,1,4,88,J 77,Number,N,TRUE,OE,q,662,shuf,J,7,o,o,TRUE,1
CVOE_C,67,1,4,90,H 46,Number,Y,FALSE,OE,p,1636,shuf,H,6,e,e,TRUE,1
CVOE_C,67,1,4,91,D 04,Number,N,FALSE,OE,p,637,shuf,D,4,e,e,TRUE,1
CVOE_C,67,1,4,93,D 99,Number,Y,TRUE,OE,q,763,shuf,D,9,o,o,TRUE,1
CVOE_C,67,1,4,97,O 84,Number,Y,TRUE,OE,p,747,shuf,O,4,e,e,TRUE,1
CVOE_C,67,1,4,98,A 78,Number,N,TRUE,OE,p,689,shuf,A,8,e,e,TRUE,1
CVOE_C,67,1,4,99,S 05,Number,N,TRUE,OE,q,716,shuf,S,5,o,o,TRUE,1
CVOE_C,67,1,4,102,U 15,Number,Y,FALSE,OE,q,941,shuf,U,5,o,o,TRUE,1
CVOE_C,67,1,4,105,O 44,Number,Y,TRUE,OE,p,690,shuf,O,4,e,e,TRUE,1
CVOE_C,67,1,4,109,S 22,Number,Y,FALSE,OE,p,838,shuf,S,2,e,e,TRUE,1
CVOE_C,67,1,4,114,J 20,Number,Y,FALSE,OE,p,912,shuf,J,0,e,e,TRUE,1
CVOE_C,67,1,4,117,I 68,Number,Y,TRUE,OE,p,693,shuf,I,8,e,e,TRUE,1
CVOE_C,67,1,4,118,J 72,Number,N,FALSE,OE,p,712,shuf,J,2,e,e,TRUE,1
CVOE_C,67,1,4,119,O 21,Number,N,FALSE,OE,p,677,shuf,O,1,o,e,FALSE,0
CVOE_C,67,1,4,120,H 22,Number,N,FALSE,OE,p,734,shuf,H,2,e,e,TRUE,1
CVOE updated,69,1,1,11,A 71,,,FALSE,CV,p,871,cv,A,1,v,v,TRUE,1
CVOE updated,69,1,1,12,I 66,,,TRUE,CV,p,645,cv,I,6,v,v,TRUE,1
CVOE updated,69,1,1,13,S 30,,,FALSE,CV,q,550,cv,S,0,c,c,TRUE,1
CVOE updated,69,1,1,14,D 20,,,FALSE,CV,q,555,cv,D,0,c,c,TRUE,1
CVOE updated,69,1,1,15,I 31,,,FALSE,CV,p,572,cv,I,1,v,v,TRUE,1
CVOE updated,69,1,1,16,P 16,,,FALSE,CV,q,1087,cv,P,6,c,c,TRUE,1
CVOE updated,69,1,1,17,A 49,,,FALSE,CV,p,634,cv,A,9,v,v,TRUE,1
CVOE updated,69,1,1,18,O 64,,,TRUE,CV,p,611,cv,O,4,v,v,TRUE,1
CVOE updated,69,1,1,19,D 02,,,FALSE,CV,q,510,cv,D,2,c,c,TRUE,1
CVOE updated,69,1,1,20,P 81,,,TRUE,CV,q,556,cv,P,1,c,c,TRUE,1
CVOE updated,69,1,1,21,J 58,,,FALSE,CV,q,652,cv,J,8,c,c,TRUE,1
CVOE updated,69,1,1,22,A 22,,,TRUE,CV,p,551,cv,A,2,v,v,TRUE,1
CVOE updated,69,1,1,23,J 72,,,FALSE,CV,q,653,cv,J,2,c,c,TRUE,1
CVOE updated,69,1,1,24,P 91,,,TRUE,CV,q,656,cv,P,1,c,c,TRUE,1
CVOE updated,69,1,1,25,E 19,,,FALSE,CV,p,563,cv,E,9,v,v,TRUE,1
CVOE updated,69,1,1,26,I 30,,,TRUE,CV,p,443,cv,I,0,v,v,TRUE,1
CVOE updated,69,1,1,27,D 91,,,TRUE,CV,q,380,cv,D,1,c,c,TRUE,1
CVOE updated,69,1,1,28,O 48,,,TRUE,CV,p,583,cv,O,8,v,v,TRUE,1
CVOE updated,69,1,1,29,A 89,,,FALSE,CV,p,525,cv,A,9,v,v,TRUE,1
CVOE updated,69,1,1,30,U 11,,,FALSE,CV,p,469,cv,U,1,v,v,TRUE,1
CVOE updated,69,1,1,31,I 76,,,TRUE,CV,p,483,cv,I,6,v,v,TRUE,1
CVOE updated,69,1,1,32,U 89,,,FALSE,CV,p,411,cv,U,9,v,v,TRUE,1
CVOE updated,69,1,1,33,D 63,,,TRUE,CV,q,406,cv,D,3,c,c,TRUE,1
CVOE updated,69,1,1,34,H 70,,,FALSE,CV,q,470,cv,H,0,c,c,TRUE,1
CVOE updated,69,1,1,35,D 48,,,FALSE,CV,q,388,cv,D,8,c,c,TRUE,1
CVOE updated,69,1,1,36,P 56,,,FALSE,CV,q,546,cv,P,6,c,c,TRUE,1
CVOE updated,69,1,1,37,O 77,,,FALSE,CV,p,488,cv,O,7,v,v,TRUE,1
CVOE updated,69,1,1,38,P 42,,,FALSE,CV,q,443,cv,P,2,c,c,TRUE,1
CVOE updated,69,1,1,39,H 22,,,FALSE,CV,q,459,cv,H,2,c,c,TRUE,1
CVOE updated,69,1,1,40,E 42,,,TRUE,CV,q,374,cv,E,2,v,c,FALSE,0
CVOE updated,69,1,1,41,J 28,,,FALSE,CV,q,593,cv,J,8,c,c,TRUE,1
CVOE updated,69,1,1,42,E 95,,,FALSE,CV,p,519,cv,E,5,v,v,TRUE,1
CVOE updated,69,1,1,43,S 63,,,TRUE,CV,q,455,cv,S,3,c,c,TRUE,1
CVOE updated,69,1,1,44,H 50,,,FALSE,CV,q,450,cv,H,0,c,c,TRUE,1
CVOE updated,69,1,1,45,S 33,,,TRUE,CV,q,397,cv,S,3,c,c,TRUE,1
CVOE updated,69,1,1,46,P 57,,,TRUE,CV,q,382,cv,P,7,c,c,TRUE,1
CVOE updated,69,1,1,47,E 23,,,FALSE,CV,p,395,cv,E,3,v,v,TRUE,1
CVOE updated,69,1,1,48,S 61,,,TRUE,CV,q,388,cv,S,1,c,c,TRUE,1
CVOE updated,69,1,1,49,U 67,,,FALSE,CV,p,417,cv,U,7,v,v,TRUE,1
CVOE updated,69,1,1,50,H 32,,,FALSE,CV,q,396,cv,H,2,c,c,TRUE,1
CVOE updated,69,1,1,51,U 50,,,TRUE,CV,p,509,cv,U,0,v,v,TRUE,1
CVOE updated,69,1,1,52,O 49,,,FALSE,CV,p,402,cv,O,9,v,v,TRUE,1
CVOE updated,69,1,1,53,U 32,,,TRUE,CV,p,435,cv,U,2,v,v,TRUE,1
CVOE updated,69,1,1,54,J 78,,,FALSE,CV,p,355,cv,J,8,c,v,FALSE,0
CVOE updated,69,1,1,55,S 54,,,FALSE,CV,q,547,cv,S,4,c,c,TRUE,1
CVOE updated,69,1,1,56,J 27,,,TRUE,CV,q,617,cv,J,7,c,c,TRUE,1
CVOE updated,69,1,1,57,S 06,,,FALSE,CV,q,636,cv,S,6,c,c,TRUE,1
CVOE updated,69,1,1,58,D 67,,,TRUE,CV,q,517,cv,D,7,c,c,TRUE,1
CVOE updated,69,1,1,59,A 79,,,FALSE,CV,p,469,cv,A,9,v,v,TRUE,1
CVOE updated,69,1,1,60,S 52,,,FALSE,CV,q,467,cv,S,2,c,c,TRUE,1
CVOE updated,69,1,1,61,U 16,,,TRUE,CV,p,504,cv,U,6,v,v,TRUE,1
CVOE updated,69,1,1,62,O 82,,,TRUE,CV,p,494,cv,O,2,v,v,TRUE,1
CVOE updated,69,1,1,63,H 87,,,TRUE,CV,q,433,cv,H,7,c,c,TRUE,1
CVOE updated,69,1,1,64,I 32,,,TRUE,CV,p,482,cv,I,2,v,v,TRUE,1
CVOE updated,69,1,1,65,U 37,,,FALSE,CV,p,458,cv,U,7,v,v,TRUE,1
CVOE updated,69,1,1,66,I 42,,,TRUE,CV,p,469,cv,I,2,v,v,TRUE,1
CVOE updated,69,1,1,67,D 65,,,TRUE,CV,q,467,cv,D,5,c,c,TRUE,1
CVOE updated,69,1,1,68,U 77,,,FALSE,CV,p,456,cv,U,7,v,v,TRUE,1
CVOE updated,69,1,1,69,E 12,,,TRUE,CV,p,443,cv,E,2,v,v,TRUE,1
CVOE updated,69,1,1,70,I 60,,,TRUE,CV,p,460,cv,I,0,v,v,TRUE,1
CVOE updated,69,1,1,71,J 36,,,FALSE,CV,q,519,cv,J,6,c,c,TRUE,1
CVOE updated,69,1,1,72,H 75,,,TRUE,CV,q,503,cv,H,5,c,c,TRUE,1
CVOE updated,69,1,1,73,I 50,,,TRUE,CV,p,469,cv,I,0,v,v,TRUE,1
CVOE updated,69,1,1,74,E 99,,,FALSE,CV,q,595,cv,E,9,v,c,FALSE,0
CVOE updated,69,1,1,75,A 86,,,TRUE,CV,p,627,cv,A,6,v,v,TRUE,1
CVOE updated,69,1,1,76,U 48,,,TRUE,CV,p,513,cv,U,8,v,v,TRUE,1
CVOE updated,69,1,1,77,E 01,,,FALSE,CV,p,1327,cv,E,1,v,v,TRUE,1
CVOE updated,69,1,1,78,A 78,,,TRUE,CV,p,554,cv,A,8,v,v,TRUE,1
CVOE updated,69,1,1,79,P 60,,,FALSE,CV,q,730,cv,P,0,c,c,TRUE,1
CVOE updated,69,1,1,80,E 43,,,FALSE,CV,p,702,cv,E,3,v,v,TRUE,1
CVOE updated,69,1,1,81,D 69,,,TRUE,CV,q,499,cv,D,9,c,c,TRUE,1
CVOE updated,69,1,1,82,H 11,,,TRUE,CV,q,446,cv,H,1,c,c,TRUE,1
CVOE updated,69,1,1,83,P 43,,,TRUE,CV,q,599,cv,P,3,c,c,TRUE,1
CVOE updated,69,1,1,84,O 67,,,FALSE,CV,p,503,cv,O,7,v,v,TRUE,1
CVOE updated,69,1,1,85,S 91,,,FALSE,CV,q,573,cv,S,1,c,c,TRUE,1
CVOE updated,69,1,1,86,J 68,,,TRUE,CV,q,416,cv,J,8,c,c,TRUE,1
CVOE updated,69,1,1,87,S 47,,,FALSE,CV,q,627,cv,S,7,c,c,TRUE,1
CVOE updated,69,1,1,88,I 81,,,TRUE,CV,p,609,cv,I,1,v,v,TRUE,1
CVOE updated,69,1,1,89,J 39,,,FALSE,CV,q,972,cv,J,9,c,c,TRUE,1
CVOE updated,69,1,1,90,A 11,,,TRUE,CV,p,511,cv,A,1,v,v,TRUE,1
CVOE updated,69,1,1,91,O 76,,,FALSE,CV,p,405,cv,O,6,v,v,TRUE,1
CVOE updated,69,1,1,92,A 62,,,FALSE,CV,p,437,cv,A,2,v,v,TRUE,1
CVOE updated,69,1,1,93,O 27,,,TRUE,CV,p,422,cv,O,7,v,v,TRUE,1
CVOE updated,69,1,1,94,E 66,,,FALSE,CV,p,539,cv,E,6,v,v,TRUE,1
CVOE updated,69,1,1,95,J 62,,,TRUE,CV,q,478,cv,J,2,c,c,TRUE,1
CVOE updated,69,1,1,96,H 72,,,TRUE,CV,q,455,cv,H,2,c,c,TRUE,1
CVOE updated,69,1,1,97,E 49,,,TRUE,CV,p,498,cv,E,9,v,v,TRUE,1
CVOE updated,69,1,1,98,D 52,,,TRUE,CV,q,573,cv,D,2,c,c,TRUE,1
CVOE updated,69,1,1,99,H 62,,,TRUE,CV,q,464,cv,H,2,c,c,TRUE,1
CVOE updated,69,1,1,100,I 11,,,TRUE,CV,p,494,cv,I,1,v,v,TRUE,1
CVOE updated,69,1,1,101,A 98,,,FALSE,CV,p,657,cv,A,8,v,v,TRUE,1
CVOE updated,69,1,1,102,H 29,,,FALSE,CV,q,500,cv,H,9,c,c,TRUE,1
CVOE updated,69,1,1,103,E 83,,,TRUE,CV,p,505,cv,E,3,v,v,TRUE,1
CVOE updated,69,1,1,104,D 43,,,FALSE,CV,q,391,cv,D,3,c,c,TRUE,1
CVOE updated,69,1,1,105,P 45,,,TRUE,CV,q,445,cv,P,5,c,c,TRUE,1
CVOE updated,69,1,1,106,J 17,,,TRUE,CV,q,461,cv,J,7,c,c,TRUE,1
CVOE updated,69,1,2,11,A 24,,,TRUE,OE,p,719,oe,A,4,e,e,TRUE,1
CVOE updated,69,1,2,12,O 83,,,FALSE,OE,q,488,oe,O,3,o,o,TRUE,1
CVOE updated,69,1,2,13,H 55,,,TRUE,OE,q,475,oe,H,5,o,o,TRUE,1
CVOE updated,69,1,2,14,P 10,,,FALSE,OE,p,483,oe,P,0,e,e,TRUE,1
CVOE updated,69,1,2,15,D 30,,,FALSE,OE,p,644,oe,D,0,e,e,TRUE,1
CVOE updated,69,1,2,16,U 62,,,TRUE,OE,p,556,oe,U,2,e,e,TRUE,1
CVOE updated,69,1,2,17,P 95,,,TRUE,OE,q,444,oe,P,5,o,o,TRUE,1
CVOE updated,69,1,2,18,U 06,,,TRUE,OE,p,573,oe,U,6,e,e,TRUE,1
CVOE updated,69,1,2,19,E 75,,,FALSE,OE,q,728,oe,E,5,o,o,TRUE,1
CVOE updated,69,1,2,20,I 67,,,FALSE,OE,q,675,oe,I,7,o,o,TRUE,1
CVOE updated,69,1,2,21,S 13,,,TRUE,OE,q,547,oe,S,3,o,o,TRUE,1
CVOE updated,69,1,2,22,P 78,,,FALSE,OE,p,473,oe,P,8,e,e,TRUE,1
CVOE updated,69,1,2,23,I 15,,,FALSE,OE,q,418,oe,I,5,o,o,TRUE,1
CVOE updated,69,1,2,24,D 27,,,TRUE,OE,q,397,oe,D,7,o,o,TRUE,1
CVOE updated,69,1,2,25,O 94,,,TRUE,OE,p,437,oe,O,4,e,e,TRUE,1
CVOE updated,69,1,2,26,A 65,,,FALSE,OE,q,573,oe,A,5,o,o,TRUE,1
CVOE updated,69,1,2,27,I 42,,,TRUE,OE,p,432,oe,I,2,e,e,TRUE,1
CVOE updated,69,1,2,28,E 25,,,FALSE,OE,q,430,oe,E,5,o,o,TRUE,1
CVOE updated,69,1,2,29,H 49,,,TRUE,OE,q,468,oe,H,9,o,o,TRUE,1
CVOE updated,69,1,2,30,S 18,,,FALSE,OE,p,426,oe,S,8,e,e,TRUE,1
CVOE updated,69,1,2,31,H 51,,,TRUE,OE,q,967,oe,H,1,o,o,TRUE,1
CVOE updated,69,1,2,32,U 14,,,TRUE,OE,p,634,oe,U,4,e,e,TRUE,1
CVOE updated,69,1,2,33,E 02,,,TRUE,OE,p,627,oe,E,2,e,e,TRUE,1
CVOE updated,69,1,2,34,J 26,,,FALSE,OE,p,601,oe,J,6,e,e,TRUE,1
CVOE updated,69,1,2,35,D 24,,,FALSE,OE,p,393,oe,D,4,e,e,TRUE,1
CVOE updated,69,1,2,36,O 50,,,TRUE,OE,p,607,oe,O,0,e,e,TRUE,1
CVOE updated,69,1,2,37,U 16,,,TRUE,OE,p,514,oe,U,6,e,e,TRUE,1
CVOE updated,69,1,2,38,O 15,,,FALSE,OE,q,570,oe,O,5,o,o,TRUE,1
CVOE updated,69,1,2,39,D 32,,,FALSE,OE,p,757,oe,D,2,e,e,TRUE,1
CVOE updated,69,1,2,40,S 67,,,TRUE,OE,q,462,oe,S,7,o,o,TRUE,1
CVOE updated,69,1,2,41,J 74,,,FALSE,OE,p,500,oe,J,4,e,e,TRUE,1
CVOE updated,69,1,2,42,D 92,,,FALSE,OE,p,519,oe,D,2,e,e,TRUE,1
CVOE updated,69,1,2,43,A 65,,,FALSE,OE,q,503,oe,A,5,o,o,TRUE,1
CVOE updated,69,1,2,44,I 87,,,FALSE,OE,q,573,oe,I,7,o,o,TRUE,1
CVOE updated,69,1,2,45,H 61,,,TRUE,OE,q,712,oe,H,1,o,o,TRUE,1
CVOE updated,69,1,2,46,E 59,,,FALSE,OE,q,590,oe,E,9,o,o,TRUE,1
CVOE updated,69,1,2,47,I 33,,,FALSE,OE,q,507,oe,I,3,o,o,TRUE,1
CVOE updated,69,1,2,48,O 90,,,TRUE,OE,p,481,oe,O,0,e,e,TRUE,1
CVOE updated,69,1,2,49,U 51,,,FALSE,OE,q,545,oe,U,1,o,o,TRUE,1
CVOE updated,69,1,2,50,A 10,,,TRUE,OE,p,703,oe,A,0,e,e,TRUE,1
CVOE updated,69,1,2,51,E 50,,,TRUE,OE,p,613,oe,E,0,e,e,TRUE,1
CVOE updated,69,1,2,52,D 92,,,FALSE,OE,p,624,oe,D,2,e,e,TRUE,1
CVOE updated,69,1,2,53,E 60,,,TRUE,OE,p,478,oe,E,0,e,e,TRUE,1
CVOE updated,69,1,2,54,A 95,,,FALSE,OE,q,478,oe,A,5,o,o,TRUE,1
CVOE updated,69,1,2,55,E 64,,,TRUE,OE,p,855,oe,E,4,e,e,TRUE,1
CVOE updated,69,1,2,56,P 20,,,FALSE,OE,p,522,oe,P,0,e,e,TRUE,1
CVOE updated,69,1,2,57,S 06,,,FALSE,OE,p,562,oe,S,6,e,e,TRUE,1
CVOE updated,69,1,2,58,P 64,,,FALSE,OE,p,427,oe,P,4,e,e,TRUE,1
CVOE updated,69,1,2,59,U 70,,,TRUE,OE,p,480,oe,U,0,e,e,TRUE,1
CVOE updated,69,1,2,60,S 16,,,FALSE,OE,p,505,oe,S,6,e,e,TRUE,1
CVOE updated,69,1,2,61,E 35,,,FALSE,OE,q,502,oe,E,5,o,o,TRUE,1
CVOE updated,69,1,2,62,I 93,,,FALSE,OE,q,556,oe,I,3,o,o,TRUE,1
CVOE updated,69,1,2,63,D 63,,,TRUE,OE,q,493,oe,D,3,o,o,TRUE,1
CVOE updated,69,1,2,64,U 89,,,FALSE,OE,q,408,oe,U,9,o,o,TRUE,1
CVOE updated,69,1,2,65,E 91,,,FALSE,OE,q,499,oe,E,1,o,o,TRUE,1
CVOE updated,69,1,2,66,A 12,,,TRUE,OE,p,695,oe,A,2,e,e,TRUE,1
CVOE updated,69,1,2,67,P 56,,,FALSE,OE,p,561,oe,P,6,e,e,TRUE,1
CVOE updated,69,1,2,68,S 65,,,TRUE,OE,q,489,oe,S,5,o,o,TRUE,1
CVOE updated,69,1,2,69,P 07,,,TRUE,OE,q,724,oe,P,7,o,o,TRUE,1
CVOE updated,69,1,2,70,I 77,,,FALSE,OE,q,605,oe,I,7,o,o,TRUE,1
CVOE updated,69,1,2,71,J 19,,,TRUE,OE,q,429,oe,J,9,o,o,TRUE,1
CVOE updated,69,1,2,72,O 59,,,FALSE,OE,q,435,oe,O,9,o,o,TRUE,1
CVOE updated,69,1,2,73,J 15,,,TRUE,OE,q,459,oe,J,5,o,o,TRUE,1
CVOE updated,69,1,2,74,I 89,,,FALSE,OE,q,446,oe,I,9,o,o,TRUE,1
CVOE updated,69,1,2,75,O 97,,,FALSE,OE,q,567,oe,O,7,o,o,TRUE,1
CVOE updated,69,1,2,76,A 92,,,TRUE,OE,p,474,oe,A,2,e,e,TRUE,1
CVOE updated,69,1,2,77,J 90,,,FALSE,OE,p,474,oe,J,0,e,e,TRUE,1
CVOE updated,69,1,2,78,H 65,,,TRUE,OE,q,442,oe,H,5,o,o,TRUE,1
CVOE updated,69,1,2,79,H 17,,,TRUE,OE,q,467,oe,H,7,o,o,TRUE,1
CVOE updated,69,1,2,80,S 26,,,FALSE,OE,p,433,oe,S,6,e,e,TRUE,1
CVOE updated,69,1,2,81,D 56,,,FALSE,OE,p,510,oe,D,6,e,e,TRUE,1
CVOE updated,69,1,2,82,I 91,,,FALSE,OE,q,612,oe,I,1,o,o,TRUE,1
CVOE updated,69,1,2,83,J 11,,,TRUE,OE,p,487,oe,J,1,o,e,FALSE,0
CVOE updated,69,1,2,84,O 28,,,TRUE,OE,p,474,oe,O,8,e,e,TRUE,1
CVOE updated,69,1,2,85,H 29,,,TRUE,OE,q,474,oe,H,9,o,o,TRUE,1
CVOE updated,69,1,2,86,J 25,,,TRUE,OE,q,483,oe,J,5,o,o,TRUE,1
CVOE updated,69,1,2,87,A 73,,,FALSE,OE,q,427,oe,A,3,o,o,TRUE,1
CVOE updated,69,1,2,88,J 63,,,TRUE,OE,q,545,oe,J,3,o,o,TRUE,1
CVOE updated,69,1,2,89,U 84,,,TRUE,OE,p,503,oe,U,4,e,e,TRUE,1
CVOE updated,69,1,2,90,A 58,,,TRUE,OE,p,652,oe,A,8,e,e,TRUE,1
CVOE updated,69,1,2,91,S 43,,,TRUE,OE,q,487,oe,S,3,o,o,TRUE,1
CVOE updated,69,1,2,92,H 54,,,FALSE,OE,p,971,oe,H,4,e,e,TRUE,1
CVOE updated,69,1,2,93,D 4,,,FALSE,OE,p,806,oe,D,,o,e,FALSE,0
CVOE updated,69,1,2,94,J 75,,,TRUE,OE,q,558,oe,J,5,o,o,TRUE,1
CVOE updated,69,1,2,95,D 19,,,TRUE,OE,q,655,oe,D,9,o,o,TRUE,1
CVOE updated,69,1,2,96,J 38,,,FALSE,OE,p,434,oe,J,8,e,e,TRUE,1
CVOE updated,69,1,2,97,I 56,,,TRUE,OE,p,466,oe,I,6,e,e,TRUE,1
CVOE updated,69,1,2,98,P 87,,,TRUE,OE,q,496,oe,P,7,o,o,TRUE,1
CVOE updated,69,1,2,99,O 80,,,TRUE,OE,p,555,oe,O,0,e,e,TRUE,1
CVOE updated,69,1,2,100,U 60,,,TRUE,OE,p,355,oe,U,0,e,e,TRUE,1
CVOE updated,69,1,2,101,P 48,,,FALSE,OE,p,452,oe,P,8,e,e,TRUE,1
CVOE updated,69,1,2,102,H 64,,,FALSE,OE,p,415,oe,H,4,e,e,TRUE,1
CVOE updated,69,1,2,103,A 13,,,FALSE,OE,q,402,oe,A,3,o,o,TRUE,1
CVOE updated,69,1,2,104,H 68,,,FALSE,OE,p,562,oe,H,8,e,e,TRUE,1
CVOE updated,69,1,2,105,E 16,,,TRUE,OE,p,538,oe,E,6,e,e,TRUE,1
CVOE updated,69,1,2,106,S 71,,,TRUE,OE,q,518,oe,S,1,o,o,TRUE,1
CVOE updated,69,1,3,11,A 44,Letter,N,TRUE,CV,p,1682,alt,A,4,v,v,TRUE,1
CVOE updated,69,1,3,12,D 94,Letter,N,FALSE,CV,q,819,alt,D,4,c,c,TRUE,1
CVOE updated,69,1,3,15,I 64,Letter,Y,TRUE,CV,p,1172,alt,I,4,v,v,TRUE,1
CVOE updated,69,1,3,16,J 54,Letter,N,FALSE,CV,q,728,alt,J,4,c,c,TRUE,1
CVOE updated,69,1,3,19,S 34,Letter,Y,FALSE,CV,q,750,alt,S,4,c,c,TRUE,1
CVOE updated,69,1,3,20,U 88,Letter,N,TRUE,CV,p,780,alt,U,8,v,v,TRUE,1
CVOE updated,69,1,3,23,E 79,Letter,Y,FALSE,CV,p,2070,alt,E,9,v,v,TRUE,1
CVOE updated,69,1,3,24,H 72,Letter,N,FALSE,CV,q,1404,alt,H,2,c,c,TRUE,1
CVOE updated,69,1,3,27,O 03,Letter,Y,FALSE,CV,p,1537,alt,O,3,v,v,TRUE,1
CVOE updated,69,1,3,28,P 75,Letter,N,TRUE,CV,q,1181,alt,P,5,c,c,TRUE,1
CVOE updated,69,1,3,31,A 21,Letter,Y,FALSE,CV,q,764,alt,A,1,v,c,FALSE,0
CVOE updated,69,1,3,32,D 18,Letter,N,FALSE,CV,q,868,alt,D,8,c,c,TRUE,1
CVOE updated,69,1,3,35,I 82,Letter,Y,TRUE,CV,p,1131,alt,I,2,v,v,TRUE,1
CVOE updated,69,1,3,36,J 78,Letter,N,FALSE,CV,q,1287,alt,J,8,c,c,TRUE,1
CVOE updated,69,1,3,39,S 07,Letter,Y,TRUE,CV,q,934,alt,S,7,c,c,TRUE,1
CVOE updated,69,1,3,40,U 36,Letter,N,TRUE,CV,p,777,alt,U,6,v,v,TRUE,1
CVOE updated,69,1,3,43,E 60,Letter,Y,TRUE,CV,p,1158,alt,E,0,v,v,TRUE,1
CVOE updated,69,1,3,44,H 83,Letter,N,TRUE,CV,q,2014,alt,H,3,c,c,TRUE,1
CVOE updated,69,1,3,47,O 78,Letter,Y,TRUE,CV,p,1304,alt,O,8,v,v,TRUE,1
CVOE updated,69,1,3,48,P 09,Letter,N,TRUE,CV,q,1006,alt,P,9,c,c,TRUE,1
CVOE updated,69,1,3,51,A 31,Letter,Y,FALSE,CV,p,1454,alt,A,1,v,v,TRUE,1
CVOE updated,69,1,3,52,D 96,Letter,N,FALSE,CV,q,1585,alt,D,6,c,c,TRUE,1
CVOE updated,69,1,3,55,I 15,Letter,Y,FALSE,CV,p,2030,alt,I,5,v,v,TRUE,1
CVOE updated,69,1,3,56,J 07,Letter,N,TRUE,CV,q,1692,alt,J,7,c,c,TRUE,1
CVOE updated,69,1,3,59,S 37,Letter,Y,TRUE,CV,q,809,alt,S,7,c,c,TRUE,1
CVOE updated,69,1,3,60,U 61,Letter,N,FALSE,CV,p,1316,alt,U,1,v,v,TRUE,1
CVOE updated,69,1,3,63,E 20,Letter,Y,TRUE,CV,p,1692,alt,E,0,v,v,TRUE,1
CVOE updated,69,1,3,64,H 86,Letter,N,FALSE,CV,q,1359,alt,H,6,c,c,TRUE,1
CVOE updated,69,1,3,67,O 13,Letter,Y,FALSE,CV,p,808,alt,O,3,v,v,TRUE,1
CVOE updated,69,1,3,68,P 82,Letter,N,FALSE,CV,q,1298,alt,P,2,c,c,TRUE,1
CVOE updated,69,1,3,71,A 49,Letter,Y,FALSE,CV,p,1217,alt,A,9,v,v,TRUE,1
CVOE updated,69,1,3,72,D 91,Letter,N,TRUE,CV,q,813,alt,D,1,c,c,TRUE,1
CVOE updated,69,1,3,75,I 45,Letter,Y,FALSE,CV,p,1019,alt,I,5,v,v,TRUE,1
CVOE updated,69,1,3,76,J 70,Letter,N,FALSE,CV,q,1513,alt,J,0,c,c,TRUE,1
CVOE updated,69,1,3,79,S 93,Letter,Y,TRUE,CV,q,1438,alt,S,3,c,c,TRUE,1
CVOE updated,69,1,3,80,U 70,Letter,N,TRUE,CV,p,1679,alt,U,0,v,v,TRUE,1
CVOE updated,69,1,3,83,E 68,Letter,Y,TRUE,CV,p,1228,alt,E,8,v,v,TRUE,1
CVOE updated,69,1,3,84,H 17,Letter,N,TRUE,CV,q,1394,alt,H,7,c,c,TRUE,1
CVOE updated,69,1,3,87,O 32,Letter,Y,TRUE,CV,p,1516,alt,O,2,v,v,TRUE,1
CVOE updated,69,1,3,88,P 95,Letter,N,TRUE,CV,q,893,alt,P,5,c,c,TRUE,1
CVOE updated,69,1,3,91,A 56,Letter,Y,TRUE,CV,p,1039,alt,A,6,v,v,TRUE,1
CVOE updated,69,1,3,92,D 57,Letter,N,TRUE,CV,q,937,alt,D,7,c,c,TRUE,1
CVOE updated,69,1,3,95,I 35,Letter,Y,FALSE,CV,p,1101,alt,I,5,v,v,TRUE,1
CVOE updated,69,1,3,96,J 03,Letter,N,TRUE,CV,q,692,alt,J,3,c,c,TRUE,1
CVOE updated,69,1,3,99,S 77,Letter,Y,TRUE,CV,q,834,alt,S,7,c,c,TRUE,1
CVOE updated,69,1,3,100,U 05,Letter,N,FALSE,CV,p,787,alt,U,5,v,v,TRUE,1
CVOE updated,69,1,3,103,E 02,Letter,Y,TRUE,CV,p,681,alt,E,2,v,v,TRUE,1
CVOE updated,69,1,3,104,H 68,Letter,N,FALSE,CV,q,1075,alt,H,8,c,c,TRUE,1
CVOE updated,69,1,3,107,O 73,Letter,Y,FALSE,CV,p,1855,alt,O,3,v,v,TRUE,1
CVOE updated,69,1,3,108,P 41,Letter,N,TRUE,CV,q,1194,alt,P,1,c,c,TRUE,1
CVOE updated,69,1,3,111,A 09,Letter,Y,FALSE,CV,p,994,alt,A,9,v,v,TRUE,1
CVOE updated,69,1,3,112,D 92,Letter,N,FALSE,CV,q,827,alt,D,2,c,c,TRUE,1
CVOE updated,69,1,3,115,I 44,Letter,Y,TRUE,CV,p,802,alt,I,4,v,v,TRUE,1
CVOE updated,69,1,3,116,J 67,Letter,N,TRUE,CV,q,1010,alt,J,7,c,c,TRUE,1
CVOE updated,69,1,3,119,S 86,Letter,Y,FALSE,CV,q,855,alt,S,6,c,c,TRUE,1
CVOE updated,69,1,3,120,U 35,Letter,N,FALSE,CV,p,890,alt,U,5,v,v,TRUE,1
CVOE updated,69,1,3,123,E 91,Letter,Y,FALSE,CV,q,1092,alt,E,1,v,c,FALSE,0
CVOE updated,69,1,3,124,H 54,Letter,N,FALSE,CV,q,1151,alt,H,4,c,c,TRUE,1
CVOE updated,69,1,3,127,O 19,Letter,Y,FALSE,CV,p,763,alt,O,9,v,v,TRUE,1
CVOE updated,69,1,3,128,P 48,Letter,N,FALSE,CV,q,1028,alt,P,8,c,c,TRUE,1
CVOE updated,69,1,3,13,E 75,Number,Y,FALSE,OE,q,1006,alt,E,5,o,o,TRUE,1
CVOE updated,69,1,3,14,H 81,Number,N,TRUE,OE,q,711,alt,H,1,o,o,TRUE,1
CVOE updated,69,1,3,17,O 23,Number,Y,FALSE,OE,q,731,alt,O,3,o,o,TRUE,1
CVOE updated,69,1,3,18,P 05,Number,N,TRUE,OE,q,886,alt,P,5,o,o,TRUE,1
CVOE updated,69,1,3,21,A 70,Number,Y,TRUE,OE,p,1082,alt,A,0,e,e,TRUE,1
CVOE updated,69,1,3,22,D 12,Number,N,FALSE,OE,q,691,alt,D,2,e,o,FALSE,0
CVOE updated,69,1,3,25,I 41,Number,Y,FALSE,OE,q,1829,alt,I,1,o,o,TRUE,1
CVOE updated,69,1,3,26,J 63,Number,N,TRUE,OE,q,1259,alt,J,3,o,o,TRUE,1
CVOE updated,69,1,3,29,S 61,Number,Y,TRUE,OE,q,1058,alt,S,1,o,o,TRUE,1
CVOE updated,69,1,3,30,U 28,Number,N,TRUE,OE,p,1022,alt,U,8,e,e,TRUE,1
CVOE updated,69,1,3,33,E 35,Number,Y,FALSE,OE,q,1475,alt,E,5,o,o,TRUE,1
CVOE updated,69,1,3,34,H 62,Number,N,FALSE,OE,p,1243,alt,H,2,e,e,TRUE,1
CVOE updated,69,1,3,37,O 12,Number,Y,TRUE,OE,p,1066,alt,O,2,e,e,TRUE,1
CVOE updated,69,1,3,38,P 13,Number,N,TRUE,OE,q,1153,alt,P,3,o,o,TRUE,1
CVOE updated,69,1,3,41,A 96,Number,Y,TRUE,OE,p,988,alt,A,6,e,e,TRUE,1
CVOE updated,69,1,3,42,D 04,Number,N,FALSE,OE,p,938,alt,D,4,e,e,TRUE,1
CVOE updated,69,1,3,45,I 64,Number,Y,TRUE,OE,p,922,alt,I,4,e,e,TRUE,1
CVOE updated,69,1,3,46,J 76,Number,N,FALSE,OE,p,1466,alt,J,6,e,e,TRUE,1
CVOE updated,69,1,3,49,S 72,Number,Y,FALSE,OE,p,1170,alt,S,2,e,e,TRUE,1
CVOE updated,69,1,3,50,U 47,Number,N,FALSE,OE,q,1005,alt,U,7,o,o,TRUE,1
CVOE updated,69,1,3,53,E 40,Number,Y,TRUE,OE,p,1183,alt,E,0,e,e,TRUE,1
CVOE updated,69,1,3,54,H 79,Number,N,TRUE,OE,q,838,alt,H,9,o,o,TRUE,1
CVOE updated,69,1,3,57,O 61,Number,Y,FALSE,OE,q,1191,alt,O,1,o,o,TRUE,1
CVOE updated,69,1,3,58,P 58,Number,N,FALSE,OE,p,1453,alt,P,8,e,e,TRUE,1
CVOE updated,69,1,3,61,A 17,Number,Y,FALSE,OE,q,1413,alt,A,7,o,o,TRUE,1
CVOE updated,69,1,3,62,D 85,Number,N,TRUE,OE,q,1416,alt,D,5,o,o,TRUE,1
CVOE updated,69,1,3,65,I 21,Number,Y,FALSE,OE,q,1632,alt,I,1,o,o,TRUE,1
CVOE updated,69,1,3,66,J 29,Number,N,TRUE,OE,q,1318,alt,J,9,o,o,TRUE,1
CVOE updated,69,1,3,69,S 72,Number,Y,FALSE,OE,p,1005,alt,S,2,e,e,TRUE,1
CVOE updated,69,1,3,70,U 84,Number,N,TRUE,OE,p,1174,alt,U,4,e,e,TRUE,1
CVOE updated,69,1,3,73,E 99,Number,Y,FALSE,OE,q,1080,alt,E,9,o,o,TRUE,1
CVOE updated,69,1,3,74,H 16,Number,N,FALSE,OE,p,968,alt,H,6,e,e,TRUE,1
CVOE updated,69,1,3,77,O 22,Number,Y,TRUE,OE,p,1194,alt,O,2,e,e,TRUE,1
CVOE updated,69,1,3,78,P 41,Number,N,TRUE,OE,q,1139,alt,P,1,o,o,TRUE,1
CVOE updated,69,1,3,81,A 42,Number,Y,TRUE,OE,p,1304,alt,A,2,e,e,TRUE,1
CVOE updated,69,1,3,82,D 85,Number,N,TRUE,OE,q,1630,alt,D,5,o,o,TRUE,1
CVOE updated,69,1,3,85,I 70,Number,Y,TRUE,OE,p,1627,alt,I,0,e,e,TRUE,1
CVOE updated,69,1,3,86,J 88,Number,N,FALSE,OE,p,1098,alt,J,8,e,e,TRUE,1
CVOE updated,69,1,3,89,S 98,Number,Y,FALSE,OE,p,1456,alt,S,8,e,e,TRUE,1
CVOE updated,69,1,3,90,U 37,Number,N,FALSE,OE,q,2371,alt,U,7,o,o,TRUE,1
CVOE updated,69,1,3,93,E 93,Number,Y,FALSE,OE,q,3187,alt,E,3,o,o,TRUE,1
CVOE updated,69,1,3,94,H 27,Number,N,TRUE,OE,q,1219,alt,H,7,o,o,TRUE,1
CVOE updated,69,1,3,97,O 28,Number,Y,TRUE,OE,p,831,alt,O,8,e,e,TRUE,1
CVOE updated,69,1,3,98,P 59,Number,N,TRUE,OE,q,941,alt,P,9,o,o,TRUE,1
CVOE updated,69,1,3,101,A 56,Number,Y,TRUE,OE,p,1009,alt,A,6,e,e,TRUE,1
CVOE updated,69,1,3,102,D 01,Number,N,TRUE,OE,q,860,alt,D,1,o,o,TRUE,1
CVOE updated,69,1,3,105,I 05,Number,Y,FALSE,OE,p,738,alt,I,5,o,e,FALSE,0
CVOE updated,69,1,3,106,J 55,Number,N,TRUE,OE,q,1238,alt,J,5,o,o,TRUE,1
CVOE updated,69,1,3,109,S 92,Number,Y,FALSE,OE,p,1795,alt,S,2,e,e,TRUE,1
CVOE updated,69,1,3,110,U 34,Number,N,TRUE,OE,p,980,alt,U,4,e,e,TRUE,1
CVOE updated,69,1,3,113,E 48,Number,Y,TRUE,OE,p,808,alt,E,8,e,e,TRUE,1
CVOE updated,69,1,3,114,H 76,Number,N,FALSE,OE,p,1028,alt,H,6,e,e,TRUE,1
CVOE updated,69,1,3,117,O 48,Number,Y,TRUE,OE,p,965,alt,O,8,e,e,TRUE,1
CVOE updated,69,1,3,118,P 22,Number,N,FALSE,OE,p,918,alt,P,2,e,e,TRUE,1
CVOE updated,69,1,3,121,A 91,Number,Y,FALSE,OE,q,1165,alt,A,1,o,o,TRUE,1
CVOE updated,69,1,3,122,D 78,Number,N,FALSE,OE,p,1270,alt,D,8,e,e,TRUE,1
CVOE updated,69,1,3,125,I 65,Number,Y,FALSE,OE,q,989,alt,I,5,o,o,TRUE,1
CVOE updated,69,1,3,126,J 52,Number,N,FALSE,OE,p,1003,alt,J,2,e,e,TRUE,1
CVOE updated,69,1,3,129,S 45,Number,Y,TRUE,OE,q,1938,alt,S,5,o,o,TRUE,1
CVOE updated,69,1,3,130,U 26,Number,N,TRUE,OE,p,1541,alt,U,6,e,e,TRUE,1
CVOE updated,69,1,4,3,U 95,Letter,Y,FALSE,CV,p,1432,shuf,U,5,v,v,TRUE,1
CVOE updated,69,1,4,7,A 56,Letter,Y,TRUE,CV,p,1032,shuf,A,6,v,v,TRUE,1
CVOE updated,69,1,4,8,H 78,Letter,N,FALSE,CV,q,1190,shuf,H,8,c,c,TRUE,1
CVOE updated,69,1,4,9,P 92,Letter,N,FALSE,CV,q,1068,shuf,P,2,c,c,TRUE,1
CVOE updated,69,1,4,11,P 57,Letter,Y,TRUE,CV,q,883,shuf,P,7,c,c,TRUE,1
CVOE updated,69,1,4,13,O 89,Letter,Y,FALSE,CV,q,1372,shuf,O,9,v,c,FALSE,0
CVOE updated,69,1,4,16,S 07,Letter,Y,TRUE,CV,q,1246,shuf,S,7,c,c,TRUE,1
CVOE updated,69,1,4,17,J 10,Letter,N,FALSE,CV,q,1430,shuf,J,0,c,c,TRUE,1
CVOE updated,69,1,4,20,J 36,Letter,Y,FALSE,CV,q,1459,shuf,J,6,c,c,TRUE,1
CVOE updated,69,1,4,21,I 94,Letter,N,TRUE,CV,p,1270,shuf,I,4,v,v,TRUE,1
CVOE updated,69,1,4,22,A 82,Letter,N,TRUE,CV,p,1533,shuf,A,2,v,v,TRUE,1
CVOE updated,69,1,4,25,S 28,Letter,Y,FALSE,CV,q,1028,shuf,S,8,c,c,TRUE,1
CVOE updated,69,1,4,30,S 35,Letter,Y,TRUE,CV,q,791,shuf,S,5,c,c,TRUE,1
CVOE updated,69,1,4,34,U 95,Letter,Y,FALSE,CV,p,1206,shuf,U,5,v,v,TRUE,1
CVOE updated,69,1,4,35,A 53,Letter,N,FALSE,CV,p,1079,shuf,A,3,v,v,TRUE,1
CVOE updated,69,1,4,36,E 43,Letter,N,FALSE,CV,p,807,shuf,E,3,v,v,TRUE,1
CVOE updated,69,1,4,38,O 19,Letter,Y,FALSE,CV,p,790,shuf,O,9,v,v,TRUE,1
CVOE updated,69,1,4,43,P 79,Letter,Y,TRUE,CV,q,851,shuf,P,9,c,c,TRUE,1
CVOE updated,69,1,4,48,E 54,Letter,Y,TRUE,CV,p,931,shuf,E,4,v,v,TRUE,1
CVOE updated,69,1,4,49,A 53,Letter,N,FALSE,CV,p,991,shuf,A,3,v,v,TRUE,1
CVOE updated,69,1,4,50,P 34,Letter,N,FALSE,CV,q,724,shuf,P,4,c,c,TRUE,1
CVOE updated,69,1,4,52,A 03,Letter,Y,FALSE,CV,p,1347,shuf,A,3,v,v,TRUE,1
CVOE updated,69,1,4,54,I 58,Letter,Y,TRUE,CV,p,1321,shuf,I,8,v,v,TRUE,1
CVOE updated,69,1,4,57,I 20,Letter,Y,TRUE,CV,p,1011,shuf,I,0,v,v,TRUE,1
CVOE updated,69,1,4,58,J 52,Letter,N,FALSE,CV,q,1414,shuf,J,2,c,c,TRUE,1
CVOE updated,69,1,4,60,I 60,Letter,Y,TRUE,CV,p,1690,shuf,I,0,v,v,TRUE,1
CVOE updated,69,1,4,62,D 63,Letter,Y,TRUE,CV,q,886,shuf,D,3,c,c,TRUE,1
CVOE updated,69,1,4,63,U 27,Letter,N,FALSE,CV,p,1127,shuf,U,7,v,v,TRUE,1
CVOE updated,69,1,4,64,J 77,Letter,N,TRUE,CV,q,810,shuf,J,7,c,c,TRUE,1
CVOE updated,69,1,4,66,J 20,Letter,Y,FALSE,CV,q,1062,shuf,J,0,c,c,TRUE,1
CVOE updated,69,1,4,69,O 04,Letter,Y,TRUE,CV,p,1245,shuf,O,4,v,v,TRUE,1
CVOE updated,69,1,4,70,E 10,Letter,N,TRUE,CV,p,814,shuf,E,0,v,v,TRUE,1
CVOE updated,69,1,4,71,I 52,Letter,N,TRUE,CV,p,713,shuf,I,2,v,v,TRUE,1
CVOE updated,69,1,4,74,U 19,Letter,Y,FALSE,CV,p,821,shuf,U,9,v,v,TRUE,1
CVOE updated,69,1,4,77,P 93,Letter,Y,TRUE,CV,q,660,shuf,P,3,c,c,TRUE,1
CVOE updated,69,1,4,78,E 59,Letter,N,FALSE,CV,p,1047,shuf,E,9,v,v,TRUE,1
CVOE updated,69,1,4,79,O 53,Letter,N,FALSE,CV,p,1003,shuf,O,3,v,v,TRUE,1
CVOE updated,69,1,4,80,A 96,Letter,N,TRUE,CV,p,803,shuf,A,6,v,v,TRUE,1
CVOE updated,69,1,4,81,H 36,Letter,Y,FALSE,CV,q,692,shuf,H,6,c,c,TRUE,1
CVOE updated,69,1,4,82,A 63,Letter,N,FALSE,CV,p,719,shuf,A,3,v,v,TRUE,1
CVOE updated,69,1,4,83,I 38,Letter,N,TRUE,CV,p,815,shuf,I,8,v,v,TRUE,1
CVOE updated,69,1,4,86,S 34,Letter,Y,FALSE,CV,q,1385,shuf,S,4,c,c,TRUE,1
CVOE updated,69,1,4,89,I 73,Letter,Y,FALSE,CV,p,709,shuf,I,3,v,v,TRUE,1
CVOE updated,69,1,4,92,P 72,Letter,Y,FALSE,CV,q,1375,shuf,P,2,c,c,TRUE,1
CVOE updated,69,1,4,94,U 25,Letter,Y,FALSE,CV,p,1518,shuf,U,5,v,v,TRUE,1
CVOE updated,69,1,4,95,O 32,Letter,N,TRUE,CV,p,1975,shuf,O,2,v,v,TRUE,1
CVOE updated,69,1,4,96,E 80,Letter,N,TRUE,CV,p,1042,shuf,E,0,v,v,TRUE,1
CVOE updated,69,1,4,100,U 35,Letter,Y,FALSE,CV,p,962,shuf,U,5,v,v,TRUE,1
CVOE updated,69,1,4,101,H 14,Letter,N,FALSE,CV,q,1203,shuf,H,4,c,c,TRUE,1
CVOE updated,69,1,4,103,E 36,Letter,Y,TRUE,CV,p,2351,shuf,E,6,v,v,TRUE,1
CVOE updated,69,1,4,104,P 70,Letter,N,FALSE,CV,q,861,shuf,P,0,c,c,TRUE,1
CVOE updated,69,1,4,106,S 41,Letter,Y,TRUE,CV,q,1011,shuf,S,1,c,c,TRUE,1
CVOE updated,69,1,4,107,D 83,Letter,N,TRUE,CV,q,1111,shuf,D,3,c,c,TRUE,1
CVOE updated,69,1,4,108,J 39,Letter,N,TRUE,CV,q,1029,shuf,J,9,c,c,TRUE,1
CVOE updated,69,1,4,110,D 89,Letter,Y,TRUE,CV,q,1251,shuf,D,9,c,c,TRUE,1
CVOE updated,69,1,4,111,P 87,Letter,N,TRUE,CV,q,774,shuf,P,7,c,c,TRUE,1
CVOE updated,69,1,4,112,H 42,Letter,N,FALSE,CV,q,858,shuf,H,2,c,c,TRUE,1
CVOE updated,69,1,4,113,S 49,Letter,N,TRUE,CV,q,725,shuf,S,9,c,c,TRUE,1
CVOE updated,69,1,4,115,O 19,Letter,Y,FALSE,CV,p,923,shuf,O,9,v,v,TRUE,1
CVOE updated,69,1,4,116,H 50,Letter,N,FALSE,CV,q,1348,shuf,H,0,c,c,TRUE,1
CVOE updated,69,1,4,1,U 38,Number,N,TRUE,OE,p,999,shuf,U,8,e,e,TRUE,1
CVOE updated,69,1,4,2,P 73,Number,N,TRUE,OE,p,880,shuf,P,3,o,e,FALSE,0
CVOE updated,69,1,4,4,J 61,Number,Y,TRUE,OE,q,1038,shuf,J,1,o,o,TRUE,1
CVOE updated,69,1,4,5,D 51,Number,N,TRUE,OE,q,1055,shuf,D,1,o,o,TRUE,1
CVOE updated,69,1,4,6,S 28,Number,N,FALSE,OE,p,826,shuf,S,8,e,e,TRUE,1
CVOE updated,69,1,4,10,E 05,Number,Y,FALSE,OE,q,2002,shuf,E,5,o,o,TRUE,1
CVOE updated,69,1,4,12,D 88,Number,Y,FALSE,OE,p,803,shuf,D,8,e,e,TRUE,1
CVOE updated,69,1,4,14,U 43,Number,Y,FALSE,OE,q,1151,shuf,U,3,o,o,TRUE,1
CVOE updated,69,1,4,15,H 10,Number,N,FALSE,OE,p,1117,shuf,H,0,e,e,TRUE,1
CVOE updated,69,1,4,18,H 54,Number,Y,FALSE,OE,p,821,shuf,H,4,e,e,TRUE,1
CVOE updated,69,1,4,19,E 99,Number,N,FALSE,OE,q,1314,shuf,E,9,o,o,TRUE,1
CVOE updated,69,1,4,23,H 79,Number,Y,TRUE,OE,q,984,shuf,H,9,o,o,TRUE,1
CVOE updated,69,1,4,24,J 60,Number,N,FALSE,OE,p,822,shuf,J,0,e,e,TRUE,1
CVOE updated,69,1,4,26,P 11,Number,Y,TRUE,OE,q,754,shuf,P,1,o,o,TRUE,1
CVOE updated,69,1,4,27,D 39,Number,N,TRUE,OE,q,1194,shuf,D,9,o,o,TRUE,1
CVOE updated,69,1,4,28,E 90,Number,N,TRUE,OE,p,1019,shuf,E,0,e,e,TRUE,1
CVOE updated,69,1,4,29,I 38,Number,N,TRUE,OE,p,878,shuf,I,8,e,e,TRUE,1
CVOE updated,69,1,4,31,D 41,Number,Y,TRUE,OE,q,916,shuf,D,1,o,o,TRUE,1
CVOE updated,69,1,4,32,E 06,Number,N,TRUE,OE,p,933,shuf,E,6,e,e,TRUE,1
CVOE updated,69,1,4,33,A 27,Number,N,FALSE,OE,q,1384,shuf,A,7,o,o,TRUE,1
CVOE updated,69,1,4,37,P 05,Number,Y,TRUE,OE,q,899,shuf,P,5,o,o,TRUE,1
CVOE updated,69,1,4,39,I 96,Number,Y,TRUE,OE,p,1036,shuf,I,6,e,e,TRUE,1
CVOE updated,69,1,4,40,A 88,Number,N,TRUE,OE,p,908,shuf,A,8,e,e,TRUE,1
CVOE updated,69,1,4,41,I 67,Number,N,FALSE,OE,q,698,shuf,I,7,o,o,TRUE,1
CVOE updated,69,1,4,42,D 40,Number,N,FALSE,OE,p,781,shuf,D,0,e,e,TRUE,1
CVOE updated,69,1,4,44,U 24,Number,Y,TRUE,OE,p,822,shuf,U,4,e,e,TRUE,1
CVOE updated,69,1,4,45,P 74,Number,N,FALSE,OE,p,1524,shuf,P,4,e,e,TRUE,1
CVOE updated,69,1,4,46,E 70,Number,N,TRUE,OE,p,965,shuf,E,0,e,e,TRUE,1
CVOE updated,69,1,4,47,S 27,Number,N,TRUE,OE,q,781,shuf,S,7,o,o,TRUE,1
CVOE updated,69,1,4,51,D 74,Number,Y,FALSE,OE,p,1269,shuf,D,4,e,e,TRUE,1
CVOE updated,69,1,4,53,E 24,Number,Y,TRUE,OE,p,881,shuf,E,4,e,e,TRUE,1
CVOE updated,69,1,4,55,D 77,Number,Y,TRUE,OE,q,778,shuf,D,7,o,o,TRUE,1
CVOE updated,69,1,4,56,S 75,Number,N,TRUE,OE,q,789,shuf,S,5,o,o,TRUE,1
CVOE updated,69,1,4,59,A 38,Number,Y,TRUE,OE,p,994,shuf,A,8,e,e,TRUE,1
CVOE updated,69,1,4,61,S 51,Number,Y,TRUE,OE,q,926,shuf,S,1,o,o,TRUE,1
CVOE updated,69,1,4,65,O 15,Number,Y,FALSE,OE,q,1085,shuf,O,5,o,o,TRUE,1
CVOE updated,69,1,4,67,U 97,Number,Y,FALSE,OE,q,884,shuf,U,7,o,o,TRUE,1
CVOE updated,69,1,4,68,H 03,Number,N,TRUE,OE,q,997,shuf,H,3,o,o,TRUE,1
CVOE updated,69,1,4,72,H 81,Number,Y,TRUE,OE,q,831,shuf,H,1,o,o,TRUE,1
CVOE updated,69,1,4,73,I 41,Number,N,FALSE,OE,q,1165,shuf,I,1,o,o,TRUE,1
CVOE updated,69,1,4,75,O 17,Number,Y,FALSE,OE,q,779,shuf,O,7,o,o,TRUE,1
CVOE updated,69,1,4,76,A 10,Number,N,TRUE,OE,p,1022,shuf,A,0,e,e,TRUE,1
CVOE updated,69,1,4,84,O 51,Number,Y,FALSE,OE,q,826,shuf,O,1,o,o,TRUE,1
CVOE updated,69,1,4,85,J 26,Number,N,FALSE,OE,q,920,shuf,J,6,e,o,FALSE,0
CVOE updated,69,1,4,87,U 85,Number,Y,FALSE,OE,q,959,shuf,U,5,o,o,TRUE,1
CVOE updated,69,1,4,88,J 77,Number,N,TRUE,OE,q,1151,shuf,J,7,o,o,TRUE,1
CVOE updated,69,1,4,90,H 46,Number,Y,FALSE,OE,p,1187,shuf,H,6,e,e,TRUE,1
CVOE updated,69,1,4,91,D 04,Number,N,FALSE,OE,p,1105,shuf,D,4,e,e,TRUE,1
CVOE updated,69,1,4,93,D 99,Number,Y,TRUE,OE,q,1258,shuf,D,9,o,o,TRUE,1
CVOE updated,69,1,4,97,O 84,Number,Y,TRUE,OE,p,1139,shuf,O,4,e,e,TRUE,1
CVOE updated,69,1,4,98,A 78,Number,N,TRUE,OE,p,1374,shuf,A,8,e,e,TRUE,1
CVOE updated,69,1,4,99,S 05,Number,N,TRUE,OE,q,1073,shuf,S,5,o,o,TRUE,1
CVOE updated,69,1,4,102,U 15,Number,Y,FALSE,OE,q,1019,shuf,U,5,o,o,TRUE,1
CVOE updated,69,1,4,105,O 44,Number,Y,TRUE,OE,p,763,shuf,O,4,e,e,TRUE,1
CVOE updated,69,1,4,109,S 22,Number,Y,FALSE,OE,p,1114,shuf,S,2,e,e,TRUE,1
CVOE updated,69,1,4,114,J 20,Number,Y,FALSE,OE,p,741,shuf,J,0,e,e,TRUE,1
CVOE updated,69,1,4,117,I 68,Number,Y,TRUE,OE,p,1210,shuf,I,8,e,e,TRUE,1
CVOE updated,69,1,4,118,J 72,Number,N,FALSE,OE,p,1181,shuf,J,2,e,e,TRUE,1
CVOE updated,69,1,4,119,O 21,Number,N,FALSE,OE,q,1619,shuf,O,1,o,o,TRUE,1
CVOE updated,69,1,4,120,H 22,Number,N,FALSE,OE,p,974,shuf,H,2,e,e,TRUE,1
CVOE_B,70,1,1,11,A 24,,,TRUE,OE,p,826,oe,A,4,e,e,TRUE,1
CVOE_B,70,1,1,12,O 83,,,FALSE,OE,q,473,oe,O,3,o,o,TRUE,1
CVOE_B,70,1,1,13,H 55,,,TRUE,OE,q,519,oe,H,5,o,o,TRUE,1
CVOE_B,70,1,1,14,P 10,,,FALSE,OE,p,446,oe,P,0,e,e,TRUE,1
CVOE_B,70,1,1,15,D 30,,,FALSE,OE,p,433,oe,D,0,e,e,TRUE,1
CVOE_B,70,1,1,16,U 62,,,TRUE,OE,p,491,oe,U,2,e,e,TRUE,1
CVOE_B,70,1,1,17,P 95,,,TRUE,OE,q,406,oe,P,5,o,o,TRUE,1
CVOE_B,70,1,1,18,U 06,,,TRUE,OE,p,526,oe,U,6,e,e,TRUE,1
CVOE_B,70,1,1,19,E 75,,,FALSE,OE,q,406,oe,E,5,o,o,TRUE,1
CVOE_B,70,1,1,20,I 67,,,FALSE,OE,q,614,oe,I,7,o,o,TRUE,1
CVOE_B,70,1,1,21,S 13,,,TRUE,OE,q,521,oe,S,3,o,o,TRUE,1
CVOE_B,70,1,1,22,P 78,,,FALSE,OE,p,409,oe,P,8,e,e,TRUE,1
CVOE_B,70,1,1,23,I 15,,,FALSE,OE,q,404,oe,I,5,o,o,TRUE,1
CVOE_B,70,1,1,24,D 27,,,TRUE,OE,q,374,oe,D,7,o,o,TRUE,1
CVOE_B,70,1,1,25,O 94,,,TRUE,OE,p,416,oe,O,4,e,e,TRUE,1
CVOE_B,70,1,1,26,A 65,,,FALSE,OE,q,428,oe,A,5,o,o,TRUE,1
CVOE_B,70,1,1,27,I 42,,,TRUE,OE,p,433,oe,I,2,e,e,TRUE,1
CVOE_B,70,1,1,28,E 25,,,FALSE,OE,q,591,oe,E,5,o,o,TRUE,1
CVOE_B,70,1,1,29,H 49,,,TRUE,OE,q,460,oe,H,9,o,o,TRUE,1
CVOE_B,70,1,1,30,S 18,,,FALSE,OE,p,483,oe,S,8,e,e,TRUE,1
CVOE_B,70,1,1,31,H 51,,,TRUE,OE,q,458,oe,H,1,o,o,TRUE,1
CVOE_B,70,1,1,32,U 14,,,TRUE,OE,p,461,oe,U,4,e,e,TRUE,1
CVOE_B,70,1,1,33,E 02,,,TRUE,OE,q,468,oe,E,2,e,o,FALSE,0
CVOE_B,70,1,1,34,J 26,,,FALSE,OE,p,921,oe,J,6,e,e,TRUE,1
CVOE_B,70,1,1,35,D 24,,,FALSE,OE,p,481,oe,D,4,e,e,TRUE,1
CVOE_B,70,1,1,36,O 50,,,TRUE,OE,p,841,oe,O,0,e,e,TRUE,1
CVOE_B,70,1,1,37,U 16,,,TRUE,OE,p,594,oe,U,6,e,e,TRUE,1
CVOE_B,70,1,1,38,O 15,,,FALSE,OE,q,531,oe,O,5,o,o,TRUE,1
CVOE_B,70,1,1,39,D 32,,,FALSE,OE,p,550,oe,D,2,e,e,TRUE,1
CVOE_B,70,1,1,40,S 67,,,TRUE,OE,q,771,oe,S,7,o,o,TRUE,1
CVOE_B,70,1,1,41,J 74,,,FALSE,OE,p,486,oe,J,4,e,e,TRUE,1
CVOE_B,70,1,1,42,D 92,,,FALSE,OE,p,442,oe,D,2,e,e,TRUE,1
CVOE_B,70,1,1,43,A 65,,,FALSE,OE,q,467,oe,A,5,o,o,TRUE,1
CVOE_B,70,1,1,44,I 87,,,FALSE,OE,q,423,oe,I,7,o,o,TRUE,1
CVOE_B,70,1,1,45,H 61,,,TRUE,OE,q,613,oe,H,1,o,o,TRUE,1
CVOE_B,70,1,1,46,E 59,,,FALSE,OE,q,889,oe,E,9,o,o,TRUE,1
CVOE_B,70,1,1,47,I 33,,,FALSE,OE,q,660,oe,I,3,o,o,TRUE,1
CVOE_B,70,1,1,48,O 90,,,TRUE,OE,p,562,oe,O,0,e,e,TRUE,1
CVOE_B,70,1,1,49,U 51,,,FALSE,OE,p,363,oe,U,1,o,e,FALSE,0
CVOE_B,70,1,1,50,A 10,,,TRUE,OE,p,578,oe,A,0,e,e,TRUE,1
CVOE_B,70,1,1,51,E 50,,,TRUE,OE,p,526,oe,E,0,e,e,TRUE,1
CVOE_B,70,1,1,52,D 92,,,FALSE,OE,p,462,oe,D,2,e,e,TRUE,1
CVOE_B,70,1,1,53,E 60,,,TRUE,OE,p,531,oe,E,0,e,e,TRUE,1
CVOE_B,70,1,1,54,A 95,,,FALSE,OE,q,462,oe,A,5,o,o,TRUE,1
CVOE_B,70,1,1,55,E 64,,,TRUE,OE,p,549,oe,E,4,e,e,TRUE,1
CVOE_B,70,1,1,56,P 20,,,FALSE,OE,q,691,oe,P,0,e,o,FALSE,0
CVOE_B,70,1,1,57,S 06,,,FALSE,OE,p,877,oe,S,6,e,e,TRUE,1
CVOE_B,70,1,1,58,P 64,,,FALSE,OE,p,734,oe,P,4,e,e,TRUE,1
CVOE_B,70,1,1,59,U 70,,,TRUE,OE,p,609,oe,U,0,e,e,TRUE,1
CVOE_B,70,1,1,60,S 16,,,FALSE,OE,p,461,oe,S,6,e,e,TRUE,1
CVOE_B,70,1,1,61,E 35,,,FALSE,OE,q,514,oe,E,5,o,o,TRUE,1
CVOE_B,70,1,1,62,I 93,,,FALSE,OE,q,547,oe,I,3,o,o,TRUE,1
CVOE_B,70,1,1,63,D 63,,,TRUE,OE,q,384,oe,D,3,o,o,TRUE,1
CVOE_B,70,1,1,64,U 89,,,FALSE,OE,q,454,oe,U,9,o,o,TRUE,1
CVOE_B,70,1,1,65,E 91,,,FALSE,OE,q,537,oe,E,1,o,o,TRUE,1
CVOE_B,70,1,1,66,A 12,,,TRUE,OE,p,468,oe,A,2,e,e,TRUE,1
CVOE_B,70,1,1,67,P 56,,,FALSE,OE,p,521,oe,P,6,e,e,TRUE,1
CVOE_B,70,1,1,68,S 65,,,TRUE,OE,q,490,oe,S,5,o,o,TRUE,1
CVOE_B,70,1,1,69,P 07,,,TRUE,OE,q,589,oe,P,7,o,o,TRUE,1
CVOE_B,70,1,1,70,I 77,,,FALSE,OE,q,403,oe,I,7,o,o,TRUE,1
CVOE_B,70,1,1,71,J 19,,,TRUE,OE,q,419,oe,J,9,o,o,TRUE,1
CVOE_B,70,1,1,72,O 59,,,FALSE,OE,q,326,oe,O,9,o,o,TRUE,1
CVOE_B,70,1,1,73,J 15,,,TRUE,OE,q,503,oe,J,5,o,o,TRUE,1
CVOE_B,70,1,1,74,I 89,,,FALSE,OE,q,476,oe,I,9,o,o,TRUE,1
CVOE_B,70,1,1,75,O 97,,,FALSE,OE,q,469,oe,O,7,o,o,TRUE,1
CVOE_B,70,1,1,76,A 92,,,TRUE,OE,p,603,oe,A,2,e,e,TRUE,1
CVOE_B,70,1,1,77,J 90,,,FALSE,OE,p,451,oe,J,0,e,e,TRUE,1
CVOE_B,70,1,1,78,H 65,,,TRUE,OE,q,430,oe,H,5,o,o,TRUE,1
CVOE_B,70,1,1,79,H 17,,,TRUE,OE,q,676,oe,H,7,o,o,TRUE,1
CVOE_B,70,1,1,80,S 26,,,FALSE,OE,p,659,oe,S,6,e,e,TRUE,1
CVOE_B,70,1,1,81,D 56,,,FALSE,OE,p,511,oe,D,6,e,e,TRUE,1
CVOE_B,70,1,1,82,I 91,,,FALSE,OE,q,516,oe,I,1,o,o,TRUE,1
CVOE_B,70,1,1,83,J 11,,,TRUE,OE,q,437,oe,J,1,o,o,TRUE,1
CVOE_B,70,1,1,84,O 28,,,TRUE,OE,p,574,oe,O,8,e,e,TRUE,1
CVOE_B,70,1,1,85,H 29,,,TRUE,OE,q,433,oe,H,9,o,o,TRUE,1
CVOE_B,70,1,1,86,J 25,,,TRUE,OE,q,511,oe,J,5,o,o,TRUE,1
CVOE_B,70,1,1,87,A 73,,,FALSE,OE,q,468,oe,A,3,o,o,TRUE,1
CVOE_B,70,1,1,88,J 63,,,TRUE,OE,q,394,oe,J,3,o,o,TRUE,1
CVOE_B,70,1,1,89,U 84,,,TRUE,OE,q,330,oe,U,4,e,o,FALSE,0
CVOE_B,70,1,1,90,A 58,,,TRUE,OE,p,709,oe,A,8,e,e,TRUE,1
CVOE_B,70,1,1,91,S 43,,,TRUE,OE,q,627,oe,S,3,o,o,TRUE,1
CVOE_B,70,1,1,92,H 54,,,FALSE,OE,p,537,oe,H,4,e,e,TRUE,1
CVOE_B,70,1,1,93,D 4,,,FALSE,OE,p,436,oe,D,,o,e,FALSE,0
CVOE_B,70,1,1,94,J 75,,,TRUE,OE,q,604,oe,J,5,o,o,TRUE,1
CVOE_B,70,1,1,95,D 19,,,TRUE,OE,q,493,oe,D,9,o,o,TRUE,1
CVOE_B,70,1,1,96,J 38,,,FALSE,OE,p,464,oe,J,8,e,e,TRUE,1
CVOE_B,70,1,1,97,I 56,,,TRUE,OE,q,454,oe,I,6,e,o,FALSE,0
CVOE_B,70,1,1,98,P 87,,,TRUE,OE,q,593,oe,P,7,o,o,TRUE,1
CVOE_B,70,1,1,99,O 80,,,TRUE,OE,p,614,oe,O,0,e,e,TRUE,1
CVOE_B,70,1,1,100,U 60,,,TRUE,OE,p,393,oe,U,0,e,e,TRUE,1
CVOE_B,70,1,1,101,P 48,,,FALSE,OE,p,575,oe,P,8,e,e,TRUE,1
CVOE_B,70,1,1,102,H 64,,,FALSE,OE,p,562,oe,H,4,e,e,TRUE,1
CVOE_B,70,1,1,103,A 13,,,FALSE,OE,q,475,oe,A,3,o,o,TRUE,1
CVOE_B,70,1,1,104,H 68,,,FALSE,OE,p,803,oe,H,8,e,e,TRUE,1
CVOE_B,70,1,1,105,E 16,,,TRUE,OE,p,523,oe,E,6,e,e,TRUE,1
CVOE_B,70,1,1,106,S 71,,,TRUE,OE,q,564,oe,S,1,o,o,TRUE,1
CVOE_B,70,1,2,11,A 71,,,FALSE,CV,p,1522,cv,A,1,v,v,TRUE,1
CVOE_B,70,1,2,12,I 66,,,TRUE,CV,p,1299,cv,I,6,v,v,TRUE,1
CVOE_B,70,1,2,13,S 30,,,FALSE,CV,q,510,cv,S,0,c,c,TRUE,1
CVOE_B,70,1,2,14,D 20,,,FALSE,CV,q,700,cv,D,0,c,c,TRUE,1
CVOE_B,70,1,2,15,I 31,,,FALSE,CV,q,831,cv,I,1,v,c,FALSE,0
CVOE_B,70,1,2,16,P 16,,,FALSE,CV,q,509,cv,P,6,c,c,TRUE,1
CVOE_B,70,1,2,17,A 49,,,FALSE,CV,p,427,cv,A,9,v,v,TRUE,1
CVOE_B,70,1,2,18,O 64,,,TRUE,CV,p,400,cv,O,4,v,v,TRUE,1
CVOE_B,70,1,2,19,D 02,,,FALSE,CV,q,577,cv,D,2,c,c,TRUE,1
CVOE_B,70,1,2,20,P 81,,,TRUE,CV,q,460,cv,P,1,c,c,TRUE,1
CVOE_B,70,1,2,21,J 58,,,FALSE,CV,q,423,cv,J,8,c,c,TRUE,1
CVOE_B,70,1,2,22,A 22,,,TRUE,CV,p,500,cv,A,2,v,v,TRUE,1
CVOE_B,70,1,2,23,J 72,,,FALSE,CV,q,410,cv,J,2,c,c,TRUE,1
CVOE_B,70,1,2,24,P 91,,,TRUE,CV,q,533,cv,P,1,c,c,TRUE,1
CVOE_B,70,1,2,25,E 19,,,FALSE,CV,p,456,cv,E,9,v,v,TRUE,1
CVOE_B,70,1,2,26,I 30,,,TRUE,CV,p,659,cv,I,0,v,v,TRUE,1
CVOE_B,70,1,2,27,D 91,,,TRUE,CV,q,638,cv,D,1,c,c,TRUE,1
CVOE_B,70,1,2,28,O 48,,,TRUE,CV,p,471,cv,O,8,v,v,TRUE,1
CVOE_B,70,1,2,29,A 89,,,FALSE,CV,p,421,cv,A,9,v,v,TRUE,1
CVOE_B,70,1,2,30,U 11,,,FALSE,CV,p,450,cv,U,1,v,v,TRUE,1
CVOE_B,70,1,2,31,I 76,,,TRUE,CV,p,461,cv,I,6,v,v,TRUE,1
CVOE_B,70,1,2,32,U 89,,,FALSE,CV,p,427,cv,U,9,v,v,TRUE,1
CVOE_B,70,1,2,33,D 63,,,TRUE,CV,q,393,cv,D,3,c,c,TRUE,1
CVOE_B,70,1,2,34,H 70,,,FALSE,CV,q,390,cv,H,0,c,c,TRUE,1
CVOE_B,70,1,2,35,D 48,,,FALSE,CV,q,332,cv,D,8,c,c,TRUE,1
CVOE_B,70,1,2,36,P 56,,,FALSE,CV,q,455,cv,P,6,c,c,TRUE,1
CVOE_B,70,1,2,37,O 77,,,FALSE,CV,p,634,cv,O,7,v,v,TRUE,1
CVOE_B,70,1,2,38,P 42,,,FALSE,CV,q,610,cv,P,2,c,c,TRUE,1
CVOE_B,70,1,2,39,H 22,,,FALSE,CV,q,486,cv,H,2,c,c,TRUE,1
CVOE_B,70,1,2,40,E 42,,,TRUE,CV,q,350,cv,E,2,v,c,FALSE,0
CVOE_B,70,1,2,41,J 28,,,FALSE,CV,q,380,cv,J,8,c,c,TRUE,1
CVOE_B,70,1,2,42,E 95,,,FALSE,CV,p,415,cv,E,5,v,v,TRUE,1
CVOE_B,70,1,2,43,S 63,,,TRUE,CV,q,378,cv,S,3,c,c,TRUE,1
CVOE_B,70,1,2,44,H 50,,,FALSE,CV,q,389,cv,H,0,c,c,TRUE,1
CVOE_B,70,1,2,45,S 33,,,TRUE,CV,q,330,cv,S,3,c,c,TRUE,1
CVOE_B,70,1,2,46,P 57,,,TRUE,CV,q,317,cv,P,7,c,c,TRUE,1
CVOE_B,70,1,2,47,E 23,,,FALSE,CV,p,374,cv,E,3,v,v,TRUE,1
CVOE_B,70,1,2,48,S 61,,,TRUE,CV,q,361,cv,S,1,c,c,TRUE,1
CVOE_B,70,1,2,49,U 67,,,FALSE,CV,p,569,cv,U,7,v,v,TRUE,1
CVOE_B,70,1,2,50,H 32,,,FALSE,CV,q,340,cv,H,2,c,c,TRUE,1
CVOE_B,70,1,2,51,U 50,,,TRUE,CV,p,431,cv,U,0,v,v,TRUE,1
CVOE_B,70,1,2,52,O 49,,,FALSE,CV,p,453,cv,O,9,v,v,TRUE,1
CVOE_B,70,1,2,53,U 32,,,TRUE,CV,p,352,cv,U,2,v,v,TRUE,1
CVOE_B,70,1,2,54,J 78,,,FALSE,CV,q,405,cv,J,8,c,c,TRUE,1
CVOE_B,70,1,2,55,S 54,,,FALSE,CV,q,366,cv,S,4,c,c,TRUE,1
CVOE_B,70,1,2,56,J 27,,,TRUE,CV,q,334,cv,J,7,c,c,TRUE,1
CVOE_B,70,1,2,57,S 06,,,FALSE,CV,q,313,cv,S,6,c,c,TRUE,1
CVOE_B,70,1,2,58,D 67,,,TRUE,CV,q,383,cv,D,7,c,c,TRUE,1
CVOE_B,70,1,2,59,A 79,,,FALSE,CV,p,372,cv,A,9,v,v,TRUE,1
CVOE_B,70,1,2,60,S 52,,,FALSE,CV,q,351,cv,S,2,c,c,TRUE,1
CVOE_B,70,1,2,61,U 16,,,TRUE,CV,p,541,cv,U,6,v,v,TRUE,1
CVOE_B,70,1,2,62,O 82,,,TRUE,CV,p,523,cv,O,2,v,v,TRUE,1
CVOE_B,70,1,2,63,H 87,,,TRUE,CV,q,403,cv,H,7,c,c,TRUE,1
CVOE_B,70,1,2,64,I 32,,,TRUE,CV,q,484,cv,I,2,v,c,FALSE,0
CVOE_B,70,1,2,65,U 37,,,FALSE,CV,p,556,cv,U,7,v,v,TRUE,1
CVOE_B,70,1,2,66,I 42,,,TRUE,CV,p,908,cv,I,2,v,v,TRUE,1
CVOE_B,70,1,2,67,D 65,,,TRUE,CV,q,522,cv,D,5,c,c,TRUE,1
CVOE_B,70,1,2,68,U 77,,,FALSE,CV,p,459,cv,U,7,v,v,TRUE,1
CVOE_B,70,1,2,69,E 12,,,TRUE,CV,p,678,cv,E,2,v,v,TRUE,1
CVOE_B,70,1,2,70,I 60,,,TRUE,CV,p,454,cv,I,0,v,v,TRUE,1
CVOE_B,70,1,2,71,J 36,,,FALSE,CV,p,385,cv,J,6,c,v,FALSE,0
CVOE_B,70,1,2,72,H 75,,,TRUE,CV,q,503,cv,H,5,c,c,TRUE,1
CVOE_B,70,1,2,73,I 50,,,TRUE,CV,p,533,cv,I,0,v,v,TRUE,1
CVOE_B,70,1,2,74,E 99,,,FALSE,CV,p,576,cv,E,9,v,v,TRUE,1
CVOE_B,70,1,2,75,A 86,,,TRUE,CV,p,1507,cv,A,6,v,v,TRUE,1
CVOE_B,70,1,2,76,U 48,,,TRUE,CV,p,425,cv,U,8,v,v,TRUE,1
CVOE_B,70,1,2,77,E 01,,,FALSE,CV,p,479,cv,E,1,v,v,TRUE,1
CVOE_B,70,1,2,78,A 78,,,TRUE,CV,p,447,cv,A,8,v,v,TRUE,1
CVOE_B,70,1,2,79,P 60,,,FALSE,CV,q,503,cv,P,0,c,c,TRUE,1
CVOE_B,70,1,2,80,E 43,,,FALSE,CV,p,509,cv,E,3,v,v,TRUE,1
CVOE_B,70,1,2,81,D 69,,,TRUE,CV,q,587,cv,D,9,c,c,TRUE,1
CVOE_B,70,1,2,82,H 11,,,TRUE,CV,q,648,cv,H,1,c,c,TRUE,1
CVOE_B,70,1,2,83,P 43,,,TRUE,CV,q,412,cv,P,3,c,c,TRUE,1
CVOE_B,70,1,2,84,O 67,,,FALSE,CV,p,559,cv,O,7,v,v,TRUE,1
CVOE_B,70,1,2,85,S 91,,,FALSE,CV,q,495,cv,S,1,c,c,TRUE,1
CVOE_B,70,1,2,86,J 68,,,TRUE,CV,q,522,cv,J,8,c,c,TRUE,1
CVOE_B,70,1,2,87,S 47,,,FALSE,CV,q,362,cv,S,7,c,c,TRUE,1
CVOE_B,70,1,2,88,I 81,,,TRUE,CV,p,571,cv,I,1,v,v,TRUE,1
CVOE_B,70,1,2,89,J 39,,,FALSE,CV,q,454,cv,J,9,c,c,TRUE,1
CVOE_B,70,1,2,90,A 11,,,TRUE,CV,p,593,cv,A,1,v,v,TRUE,1
CVOE_B,70,1,2,91,O 76,,,FALSE,CV,p,423,cv,O,6,v,v,TRUE,1
CVOE_B,70,1,2,92,A 62,,,FALSE,CV,p,324,cv,A,2,v,v,TRUE,1
CVOE_B,70,1,2,93,O 27,,,TRUE,CV,p,325,cv,O,7,v,v,TRUE,1
CVOE_B,70,1,2,94,E 66,,,FALSE,CV,p,381,cv,E,6,v,v,TRUE,1
CVOE_B,70,1,2,95,J 62,,,TRUE,CV,q,395,cv,J,2,c,c,TRUE,1
CVOE_B,70,1,2,96,H 72,,,TRUE,CV,q,419,cv,H,2,c,c,TRUE,1
CVOE_B,70,1,2,97,E 49,,,TRUE,CV,p,390,cv,E,9,v,v,TRUE,1
CVOE_B,70,1,2,98,D 52,,,TRUE,CV,q,420,cv,D,2,c,c,TRUE,1
CVOE_B,70,1,2,99,H 62,,,TRUE,CV,q,431,cv,H,2,c,c,TRUE,1
CVOE_B,70,1,2,100,I 11,,,TRUE,CV,q,364,cv,I,1,v,c,FALSE,0
CVOE_B,70,1,2,101,A 98,,,FALSE,CV,p,469,cv,A,8,v,v,TRUE,1
CVOE_B,70,1,2,102,H 29,,,FALSE,CV,q,643,cv,H,9,c,c,TRUE,1
CVOE_B,70,1,2,103,E 83,,,TRUE,CV,p,387,cv,E,3,v,v,TRUE,1
CVOE_B,70,1,2,104,D 43,,,FALSE,CV,q,409,cv,D,3,c,c,TRUE,1
CVOE_B,70,1,2,105,P 45,,,TRUE,CV,q,468,cv,P,5,c,c,TRUE,1
CVOE_B,70,1,2,106,J 17,,,TRUE,CV,q,537,cv,J,7,c,c,TRUE,1
CVOE_B,70,1,3,13,U 95,Letter,Y,FALSE,CV,p,1639,shuf,U,5,v,v,TRUE,1
CVOE_B,70,1,3,17,A 56,Letter,Y,TRUE,CV,p,1329,shuf,A,6,v,v,TRUE,1
CVOE_B,70,1,3,18,H 78,Letter,N,FALSE,CV,q,805,shuf,H,8,c,c,TRUE,1
CVOE_B,70,1,3,19,P 92,Letter,N,FALSE,CV,q,661,shuf,P,2,c,c,TRUE,1
CVOE_B,70,1,3,21,P 57,Letter,Y,TRUE,CV,q,686,shuf,P,7,c,c,TRUE,1
CVOE_B,70,1,3,23,O 89,Letter,Y,FALSE,CV,p,1543,shuf,O,9,v,v,TRUE,1
CVOE_B,70,1,3,26,S 07,Letter,Y,TRUE,CV,q,932,shuf,S,7,c,c,TRUE,1
CVOE_B,70,1,3,27,J 10,Letter,N,FALSE,CV,q,855,shuf,J,0,c,c,TRUE,1
CVOE_B,70,1,3,30,J 36,Letter,Y,FALSE,CV,q,595,shuf,J,6,c,c,TRUE,1
CVOE_B,70,1,3,31,I 94,Letter,N,TRUE,CV,p,748,shuf,I,4,v,v,TRUE,1
CVOE_B,70,1,3,32,A 82,Letter,N,TRUE,CV,p,705,shuf,A,2,v,v,TRUE,1
CVOE_B,70,1,3,35,S 28,Letter,Y,FALSE,CV,q,1403,shuf,S,8,c,c,TRUE,1
CVOE_B,70,1,3,40,S 35,Letter,Y,TRUE,CV,q,806,shuf,S,5,c,c,TRUE,1
CVOE_B,70,1,3,44,U 95,Letter,Y,FALSE,CV,p,1378,shuf,U,5,v,v,TRUE,1
CVOE_B,70,1,3,45,A 53,Letter,N,FALSE,CV,p,774,shuf,A,3,v,v,TRUE,1
CVOE_B,70,1,3,46,E 43,Letter,N,FALSE,CV,p,657,shuf,E,3,v,v,TRUE,1
CVOE_B,70,1,3,48,O 19,Letter,Y,FALSE,CV,p,1058,shuf,O,9,v,v,TRUE,1
CVOE_B,70,1,3,53,P 79,Letter,Y,TRUE,CV,q,856,shuf,P,9,c,c,TRUE,1
CVOE_B,70,1,3,58,E 54,Letter,Y,TRUE,CV,q,1127,shuf,E,4,v,c,FALSE,0
CVOE_B,70,1,3,59,A 53,Letter,N,FALSE,CV,p,1131,shuf,A,3,v,v,TRUE,1
CVOE_B,70,1,3,60,P 34,Letter,N,FALSE,CV,q,734,shuf,P,4,c,c,TRUE,1
CVOE_B,70,1,3,62,A 03,Letter,Y,FALSE,CV,p,989,shuf,A,3,v,v,TRUE,1
CVOE_B,70,1,3,64,I 58,Letter,Y,TRUE,CV,p,1395,shuf,I,8,v,v,TRUE,1
CVOE_B,70,1,3,67,I 20,Letter,Y,TRUE,CV,p,1578,shuf,I,0,v,v,TRUE,1
CVOE_B,70,1,3,68,J 52,Letter,N,FALSE,CV,q,718,shuf,J,2,c,c,TRUE,1
CVOE_B,70,1,3,70,I 60,Letter,Y,TRUE,CV,p,1743,shuf,I,0,v,v,TRUE,1
CVOE_B,70,1,3,72,D 63,Letter,Y,TRUE,CV,q,1324,shuf,D,3,c,c,TRUE,1
CVOE_B,70,1,3,73,U 27,Letter,N,FALSE,CV,q,1229,shuf,U,7,v,c,FALSE,0
CVOE_B,70,1,3,74,J 77,Letter,N,TRUE,CV,q,603,shuf,J,7,c,c,TRUE,1
CVOE_B,70,1,3,76,J 20,Letter,Y,FALSE,CV,q,1228,shuf,J,0,c,c,TRUE,1
CVOE_B,70,1,3,79,O 04,Letter,Y,TRUE,CV,p,1382,shuf,O,4,v,v,TRUE,1
CVOE_B,70,1,3,80,E 10,Letter,N,TRUE,CV,p,748,shuf,E,0,v,v,TRUE,1
CVOE_B,70,1,3,81,I 52,Letter,N,TRUE,CV,p,690,shuf,I,2,v,v,TRUE,1
CVOE_B,70,1,3,84,U 19,Letter,Y,FALSE,CV,p,814,shuf,U,9,v,v,TRUE,1
CVOE_B,70,1,3,87,P 93,Letter,Y,TRUE,CV,q,821,shuf,P,3,c,c,TRUE,1
CVOE_B,70,1,3,88,E 59,Letter,N,FALSE,CV,p,795,shuf,E,9,v,v,TRUE,1
CVOE_B,70,1,3,89,O 53,Letter,N,FALSE,CV,p,811,shuf,O,3,v,v,TRUE,1
CVOE_B,70,1,3,90,A 96,Letter,N,TRUE,CV,p,574,shuf,A,6,v,v,TRUE,1
CVOE_B,70,1,3,91,H 36,Letter,Y,FALSE,CV,q,721,shuf,H,6,c,c,TRUE,1
CVOE_B,70,1,3,92,A 63,Letter,N,FALSE,CV,p,618,shuf,A,3,v,v,TRUE,1
CVOE_B,70,1,3,93,I 38,Letter,N,TRUE,CV,q,621,shuf,I,8,v,c,FALSE,0
CVOE_B,70,1,3,96,S 34,Letter,Y,FALSE,CV,q,977,shuf,S,4,c,c,TRUE,1
CVOE_B,70,1,3,99,I 73,Letter,Y,FALSE,CV,p,1107,shuf,I,3,v,v,TRUE,1
CVOE_B,70,1,3,102,P 72,Letter,Y,FALSE,CV,q,660,shuf,P,2,c,c,TRUE,1
CVOE_B,70,1,3,104,U 25,Letter,Y,FALSE,CV,p,1005,shuf,U,5,v,v,TRUE,1
CVOE_B,70,1,3,105,O 32,Letter,N,TRUE,CV,p,494,shuf,O,2,v,v,TRUE,1
CVOE_B,70,1,3,106,E 80,Letter,N,TRUE,CV,p,513,shuf,E,0,v,v,TRUE,1
CVOE_B,70,1,3,110,U 35,Letter,Y,FALSE,CV,p,961,shuf,U,5,v,v,TRUE,1
CVOE_B,70,1,3,111,H 14,Letter,N,FALSE,CV,q,2522,shuf,H,4,c,c,TRUE,1
CVOE_B,70,1,3,113,E 36,Letter,Y,TRUE,CV,p,1164,shuf,E,6,v,v,TRUE,1
CVOE_B,70,1,3,114,P 70,Letter,N,FALSE,CV,q,804,shuf,P,0,c,c,TRUE,1
CVOE_B,70,1,3,116,S 41,Letter,Y,TRUE,CV,q,789,shuf,S,1,c,c,TRUE,1
CVOE_B,70,1,3,117,D 83,Letter,N,TRUE,CV,p,835,shuf,D,3,c,v,FALSE,0
CVOE_B,70,1,3,118,J 39,Letter,N,TRUE,CV,q,660,shuf,J,9,c,c,TRUE,1
CVOE_B,70,1,3,120,D 89,Letter,Y,TRUE,CV,q,895,shuf,D,9,c,c,TRUE,1
CVOE_B,70,1,3,121,P 87,Letter,N,TRUE,CV,q,563,shuf,P,7,c,c,TRUE,1
CVOE_B,70,1,3,122,H 42,Letter,N,FALSE,CV,q,707,shuf,H,2,c,c,TRUE,1
CVOE_B,70,1,3,123,S 49,Letter,N,TRUE,CV,q,545,shuf,S,9,c,c,TRUE,1
CVOE_B,70,1,3,125,O 19,Letter,Y,FALSE,CV,q,1986,shuf,O,9,v,c,FALSE,0
CVOE_B,70,1,3,126,H 50,Letter,N,FALSE,CV,q,560,shuf,H,0,c,c,TRUE,1
CVOE_B,70,1,3,11,U 38,Number,N,TRUE,OE,p,2149,shuf,U,8,e,e,TRUE,1
CVOE_B,70,1,3,12,P 73,Number,N,TRUE,OE,q,780,shuf,P,3,o,o,TRUE,1
CVOE_B,70,1,3,14,J 61,Number,Y,TRUE,OE,q,928,shuf,J,1,o,o,TRUE,1
CVOE_B,70,1,3,15,D 51,Number,N,TRUE,OE,q,1011,shuf,D,1,o,o,TRUE,1
CVOE_B,70,1,3,16,S 28,Number,N,FALSE,OE,q,694,shuf,S,8,e,o,FALSE,0
CVOE_B,70,1,3,20,E 05,Number,Y,FALSE,OE,q,1051,shuf,E,5,o,o,TRUE,1
CVOE_B,70,1,3,22,D 88,Number,Y,FALSE,OE,q,807,shuf,D,8,e,o,FALSE,0
CVOE_B,70,1,3,24,U 43,Number,Y,FALSE,OE,q,1005,shuf,U,3,o,o,TRUE,1
CVOE_B,70,1,3,25,H 10,Number,N,FALSE,OE,p,750,shuf,H,0,e,e,TRUE,1
CVOE_B,70,1,3,28,H 54,Number,Y,FALSE,OE,p,1186,shuf,H,4,e,e,TRUE,1
CVOE_B,70,1,3,29,E 99,Number,N,FALSE,OE,q,736,shuf,E,9,o,o,TRUE,1
CVOE_B,70,1,3,33,H 79,Number,Y,TRUE,OE,q,1279,shuf,H,9,o,o,TRUE,1
CVOE_B,70,1,3,34,J 60,Number,N,FALSE,OE,p,688,shuf,J,0,e,e,TRUE,1
CVOE_B,70,1,3,36,P 11,Number,Y,TRUE,OE,q,948,shuf,P,1,o,o,TRUE,1
CVOE_B,70,1,3,37,D 39,Number,N,TRUE,OE,q,1098,shuf,D,9,o,o,TRUE,1
CVOE_B,70,1,3,38,E 90,Number,N,TRUE,OE,p,669,shuf,E,0,e,e,TRUE,1
CVOE_B,70,1,3,39,I 38,Number,N,TRUE,OE,p,699,shuf,I,8,e,e,TRUE,1
CVOE_B,70,1,3,41,D 41,Number,Y,TRUE,OE,q,742,shuf,D,1,o,o,TRUE,1
CVOE_B,70,1,3,42,E 06,Number,N,TRUE,OE,p,748,shuf,E,6,e,e,TRUE,1
CVOE_B,70,1,3,43,A 27,Number,N,FALSE,OE,q,802,shuf,A,7,o,o,TRUE,1
CVOE_B,70,1,3,47,P 05,Number,Y,TRUE,OE,q,1100,shuf,P,5,o,o,TRUE,1
CVOE_B,70,1,3,49,I 96,Number,Y,TRUE,OE,q,901,shuf,I,6,e,o,FALSE,0
CVOE_B,70,1,3,50,A 88,Number,N,TRUE,OE,p,1443,shuf,A,8,e,e,TRUE,1
CVOE_B,70,1,3,51,I 67,Number,N,FALSE,OE,q,732,shuf,I,7,o,o,TRUE,1
CVOE_B,70,1,3,52,D 40,Number,N,FALSE,OE,p,719,shuf,D,0,e,e,TRUE,1
CVOE_B,70,1,3,54,U 24,Number,Y,TRUE,OE,p,795,shuf,U,4,e,e,TRUE,1
CVOE_B,70,1,3,55,P 74,Number,N,FALSE,OE,p,859,shuf,P,4,e,e,TRUE,1
CVOE_B,70,1,3,56,E 70,Number,N,TRUE,OE,p,678,shuf,E,0,e,e,TRUE,1
CVOE_B,70,1,3,57,S 27,Number,N,TRUE,OE,q,719,shuf,S,7,o,o,TRUE,1
CVOE_B,70,1,3,61,D 74,Number,Y,FALSE,OE,p,1529,shuf,D,4,e,e,TRUE,1
CVOE_B,70,1,3,63,E 24,Number,Y,TRUE,OE,p,834,shuf,E,4,e,e,TRUE,1
CVOE_B,70,1,3,65,D 77,Number,Y,TRUE,OE,q,1412,shuf,D,7,o,o,TRUE,1
CVOE_B,70,1,3,66,S 75,Number,N,TRUE,OE,q,1335,shuf,S,5,o,o,TRUE,1
CVOE_B,70,1,3,69,A 38,Number,Y,TRUE,OE,p,1278,shuf,A,8,e,e,TRUE,1
CVOE_B,70,1,3,71,S 51,Number,Y,TRUE,OE,q,3141,shuf,S,1,o,o,TRUE,1
CVOE_B,70,1,3,75,O 15,Number,Y,FALSE,OE,q,955,shuf,O,5,o,o,TRUE,1
CVOE_B,70,1,3,77,U 97,Number,Y,FALSE,OE,q,1274,shuf,U,7,o,o,TRUE,1
CVOE_B,70,1,3,78,H 03,Number,N,TRUE,OE,q,1530,shuf,H,3,o,o,TRUE,1
