ExperimentName,Subject,Group,Block,Trial,STIM,TASK,Switch,Congruent,CVOE,Response,KEY,RT,Match,score
CVOE updated,5,1,1,11,A 71,,,FALSE,CV,p,p,2144,TRUE,1
CVOE updated,5,1,1,12,I 66,,,TRUE,CV,q,p,783,FALSE,0
CVOE updated,5,1,1,13,S 30,,,FALSE,CV,q,q,636,TRUE,1
CVOE updated,5,1,1,14,D 20,,,FALSE,CV,q,q,1261,TRUE,1
CVOE updated,5,1,1,15,I 31,,,FALSE,CV,p,p,611,TRUE,1
CVOE updated,5,1,1,16,P 16,,,FALSE,CV,q,q,574,TRUE,1
CVOE updated,5,1,1,17,A 49,,,FALSE,CV,p,p,777,TRUE,1
CVOE updated,5,1,1,18,O 64,,,TRUE,CV,p,p,420,TRUE,1
CVOE updated,5,1,1,19,D 02,,,FALSE,CV,q,q,466,TRUE,1
CVOE updated,5,1,1,20,P 81,,,TRUE,CV,q,q,904,TRUE,1
CVOE updated,5,1,1,21,J 58,,,FALSE,CV,q,q,693,TRUE,1
CVOE updated,5,1,1,22,A 22,,,TRUE,CV,p,p,633,TRUE,1
CVOE updated,5,1,1,23,J 72,,,FALSE,CV,q,q,582,TRUE,1
CVOE updated,5,1,1,24,P 91,,,TRUE,CV,q,q,868,TRUE,1
CVOE updated,5,1,1,25,E 19,,,FALSE,CV,p,p,642,TRUE,1
CVOE updated,5,1,1,26,I 30,,,TRUE,CV,q,p,602,FALSE,0
CVOE updated,5,1,1,27,D 91,,,TRUE,CV,q,q,587,TRUE,1
CVOE updated,5,1,1,28,O 48,,,TRUE,CV,p,p,441,TRUE,1
CVOE updated,5,1,1,29,A 89,,,FALSE,CV,p,p,921,TRUE,1
CVOE updated,5,1,1,30,U 11,,,FALSE,CV,p,p,826,TRUE,1
CVOE updated,5,1,1,31,I 76,,,TRUE,CV,q,p,1015,FALSE,0
CVOE updated,5,1,1,32,U 89,,,FALSE,CV,p,p,827,TRUE,1
CVOE updated,5,1,1,33,D 63,,,TRUE,CV,q,q,960,TRUE,1
CVOE updated,5,1,1,34,H 70,,,FALSE,CV,q,q,689,TRUE,1
CVOE updated,5,1,1,35,D 48,,,FALSE,CV,q,q,732,TRUE,1
CVOE updated,5,1,1,36,P 56,,,FALSE,CV,q,q,895,TRUE,1
CVOE updated,5,1,1,37,O 77,,,FALSE,CV,p,p,658,TRUE,1
CVOE updated,5,1,1,38,P 42,,,FALSE,CV,q,q,766,TRUE,1
CVOE updated,5,1,1,39,H 22,,,FALSE,CV,q,q,870,TRUE,1
CVOE updated,5,1,1,40,E 42,,,TRUE,CV,p,p,716,TRUE,1
CVOE updated,5,1,1,41,J 28,,,FALSE,CV,q,q,588,TRUE,1
CVOE updated,5,1,1,42,E 95,,,FALSE,CV,p,p,506,TRUE,1
CVOE updated,5,1,1,43,S 63,,,TRUE,CV,q,q,640,TRUE,1
CVOE updated,5,1,1,44,H 50,,,FALSE,CV,q,q,1032,TRUE,1
CVOE updated,5,1,1,45,S 33,,,TRUE,CV,q,q,470,TRUE,1
CVOE updated,5,1,1,46,P 57,,,TRUE,CV,q,q,836,TRUE,1
CVOE updated,5,1,1,47,E 23,,,FALSE,CV,p,p,828,TRUE,1
CVOE updated,5,1,1,48,S 61,,,TRUE,CV,q,q,1066,TRUE,1
CVOE updated,5,1,1,49,U 67,,,FALSE,CV,p,p,528,TRUE,1
CVOE updated,5,1,1,50,H 32,,,FALSE,CV,q,q,547,TRUE,1
CVOE updated,5,1,1,51,U 50,,,TRUE,CV,p,p,609,TRUE,1
CVOE updated,5,1,1,52,O 49,,,FALSE,CV,p,p,452,TRUE,1
CVOE updated,5,1,1,53,U 32,,,TRUE,CV,p,p,479,TRUE,1
CVOE updated,5,1,1,54,J 78,,,FALSE,CV,q,q,560,TRUE,1
CVOE updated,5,1,1,55,S 54,,,FALSE,CV,q,q,504,TRUE,1
CVOE updated,5,1,1,56,J 27,,,TRUE,CV,q,q,638,TRUE,1
CVOE updated,5,1,1,57,S 06,,,FALSE,CV,q,q,470,TRUE,1
CVOE updated,5,1,1,58,D 67,,,TRUE,CV,q,q,644,TRUE,1
CVOE updated,5,1,1,59,A 79,,,FALSE,CV,p,p,580,TRUE,1
CVOE updated,5,1,1,60,S 52,,,FALSE,CV,q,q,466,TRUE,1
CVOE updated,5,1,1,61,U 16,,,TRUE,CV,p,p,912,TRUE,1
CVOE updated,5,1,1,62,O 82,,,TRUE,CV,p,p,670,TRUE,1
CVOE updated,5,1,1,63,H 87,,,TRUE,CV,q,q,547,TRUE,1
CVOE updated,5,1,1,64,I 32,,,TRUE,CV,p,p,881,TRUE,1
CVOE updated,5,1,1,65,U 37,,,FALSE,CV,p,p,562,TRUE,1
CVOE updated,5,1,1,66,I 42,,,TRUE,CV,p,p,946,TRUE,1
CVOE updated,5,1,1,67,D 65,,,TRUE,CV,q,q,416,TRUE,1
CVOE updated,5,1,1,68,U 77,,,FALSE,CV,p,p,491,TRUE,1
CVOE updated,5,1,1,69,E 12,,,TRUE,CV,q,p,590,FALSE,0
CVOE updated,5,1,1,70,I 60,,,TRUE,CV,p,p,964,TRUE,1
CVOE updated,5,1,1,71,J 36,,,FALSE,CV,q,q,1332,TRUE,1
CVOE updated,5,1,1,72,H 75,,,TRUE,CV,q,q,1288,TRUE,1
CVOE updated,5,1,1,73,I 50,,,TRUE,CV,q,p,555,FALSE,0
CVOE updated,5,1,1,74,E 99,,,FALSE,CV,p,p,956,TRUE,1
CVOE updated,5,1,1,75,A 86,,,TRUE,CV,q,p,716,FALSE,0
CVOE updated,5,1,1,76,U 48,,,TRUE,CV,p,p,533,TRUE,1
CVOE updated,5,1,1,77,E 01,,,FALSE,CV,p,p,656,TRUE,1
CVOE updated,5,1,1,78,A 78,,,TRUE,CV,q,p,731,FALSE,0
CVOE updated,5,1,1,79,P 60,,,FALSE,CV,q,q,598,TRUE,1
CVOE updated,5,1,1,80,E 43,,,FALSE,CV,p,p,958,TRUE,1
CVOE updated,5,1,1,81,D 69,,,TRUE,CV,q,q,559,TRUE,1
CVOE updated,5,1,1,82,H 11,,,TRUE,CV,q,q,895,TRUE,1
CVOE updated,5,1,1,83,P 43,,,TRUE,CV,q,q,619,TRUE,1
CVOE updated,5,1,1,84,O 67,,,FALSE,CV,p,p,1134,TRUE,1
CVOE updated,5,1,1,85,S 91,,,FALSE,CV,q,q,505,TRUE,1
CVOE updated,5,1,1,86,J 68,,,TRUE,CV,q,q,647,TRUE,1
CVOE updated,5,1,1,87,S 47,,,FALSE,CV,q,q,762,TRUE,1
CVOE updated,5,1,1,88,I 81,,,TRUE,CV,p,p,690,TRUE,1
CVOE updated,5,1,1,89,J 39,,,FALSE,CV,q,q,621,TRUE,1
CVOE updated,5,1,1,90,A 11,,,TRUE,CV,p,p,811,TRUE,1
CVOE updated,5,1,1,91,O 76,,,FALSE,CV,p,p,510,TRUE,1
CVOE updated,5,1,1,92,A 62,,,FALSE,CV,p,p,1260,TRUE,1
CVOE updated,5,1,1,93,O 27,,,TRUE,CV,p,p,466,TRUE,1
CVOE updated,5,1,1,94,E 66,,,FALSE,CV,q,p,552,FALSE,0
CVOE updated,5,1,1,95,J 62,,,TRUE,CV,q,q,774,TRUE,1
CVOE updated,5,1,1,96,H 72,,,TRUE,CV,q,q,609,TRUE,1
CVOE updated,5,1,1,97,E 49,,,TRUE,CV,p,p,948,TRUE,1
CVOE updated,5,1,1,98,D 52,,,TRUE,CV,q,q,466,TRUE,1
CVOE updated,5,1,1,99,H 62,,,TRUE,CV,q,q,551,TRUE,1
CVOE updated,5,1,1,100,I 11,,,TRUE,CV,p,p,637,TRUE,1
CVOE updated,5,1,1,101,A 98,,,FALSE,CV,p,p,1494,TRUE,1
CVOE updated,5,1,1,102,H 29,,,FALSE,CV,q,q,1457,TRUE,1
CVOE updated,5,1,1,103,E 83,,,TRUE,CV,p,p,596,TRUE,1
CVOE updated,5,1,1,104,D 43,,,FALSE,CV,q,q,501,TRUE,1
CVOE updated,5,1,1,105,P 45,,,TRUE,CV,q,q,491,TRUE,1
CVOE updated,5,1,1,106,J 17,,,TRUE,CV,q,q,462,TRUE,1
CVOE updated,5,1,2,11,A 24,,,TRUE,OE,p,p,879,TRUE,1
CVOE updated,5,1,2,12,O 83,,,FALSE,OE,q,q,495,TRUE,1
CVOE updated,5,1,2,13,H 55,,,TRUE,OE,q,q,626,TRUE,1
CVOE updated,5,1,2,14,P 10,,,FALSE,OE,p,p,960,TRUE,1
CVOE updated,5,1,2,15,D 30,,,FALSE,OE,p,p,872,TRUE,1
CVOE updated,5,1,2,16,U 62,,,TRUE,OE,p,p,1646,TRUE,1
CVOE updated,5,1,2,17,P 95,,,TRUE,OE,q,q,626,TRUE,1
CVOE updated,5,1,2,18,U 06,,,TRUE,OE,p,p,592,TRUE,1
CVOE updated,5,1,2,19,E 75,,,FALSE,OE,q,q,533,TRUE,1
CVOE updated,5,1,2,20,I 67,,,FALSE,OE,q,q,1128,TRUE,1
CVOE updated,5,1,2,21,S 13,,,TRUE,OE,q,q,1620,TRUE,1
CVOE updated,5,1,2,22,P 78,,,FALSE,OE,p,p,578,TRUE,1
CVOE updated,5,1,2,23,I 15,,,FALSE,OE,q,q,1461,TRUE,1
CVOE updated,5,1,2,24,D 27,,,TRUE,OE,q,q,659,TRUE,1
CVOE updated,5,1,2,25,O 94,,,TRUE,OE,p,p,838,TRUE,1
CVOE updated,5,1,2,26,A 65,,,FALSE,OE,q,q,519,TRUE,1
CVOE updated,5,1,2,27,I 42,,,TRUE,OE,p,p,607,TRUE,1
CVOE updated,5,1,2,28,E 25,,,FALSE,OE,q,q,530,TRUE,1
CVOE updated,5,1,2,29,H 49,,,TRUE,OE,q,q,557,TRUE,1
CVOE updated,5,1,2,30,S 18,,,FALSE,OE,p,p,558,TRUE,1
CVOE updated,5,1,2,31,H 51,,,TRUE,OE,q,q,678,TRUE,1
CVOE updated,5,1,2,32,U 14,,,TRUE,OE,p,p,815,TRUE,1
CVOE updated,5,1,2,33,E 02,,,TRUE,OE,p,p,602,TRUE,1
CVOE updated,5,1,2,34,J 26,,,FALSE,OE,p,p,586,TRUE,1
CVOE updated,5,1,2,35,D 24,,,FALSE,OE,p,p,505,TRUE,1
CVOE updated,5,1,2,36,O 50,,,TRUE,OE,q,p,1918,FALSE,0
CVOE updated,5,1,2,37,U 16,,,TRUE,OE,p,p,695,TRUE,1
CVOE updated,5,1,2,38,O 15,,,FALSE,OE,q,q,610,TRUE,1
CVOE updated,5,1,2,39,D 32,,,FALSE,OE,p,p,773,TRUE,1
CVOE updated,5,1,2,40,S 67,,,TRUE,OE,q,q,912,TRUE,1
CVOE updated,5,1,2,41,J 74,,,FALSE,OE,p,p,1486,TRUE,1
CVOE updated,5,1,2,42,D 92,,,FALSE,OE,p,p,687,TRUE,1
CVOE updated,5,1,2,43,A 65,,,FALSE,OE,q,q,794,TRUE,1
CVOE updated,5,1,2,44,I 87,,,FALSE,OE,q,q,1066,TRUE,1
CVOE updated,5,1,2,45,H 61,,,TRUE,OE,q,q,896,TRUE,1
CVOE updated,5,1,2,46,E 59,,,FALSE,OE,q,q,635,TRUE,1
CVOE updated,5,1,2,47,I 33,,,FALSE,OE,q,q,612,TRUE,1
CVOE updated,5,1,2,48,O 90,,,TRUE,OE,p,p,1191,TRUE,1
CVOE updated,5,1,2,49,U 51,,,FALSE,OE,q,q,1093,TRUE,1
CVOE updated,5,1,2,50,A 10,,,TRUE,OE,p,p,872,TRUE,1
CVOE updated,5,1,2,51,E 50,,,TRUE,OE,p,p,558,TRUE,1
CVOE updated,5,1,2,52,D 92,,,FALSE,OE,p,p,678,TRUE,1
CVOE updated,5,1,2,53,E 60,,,TRUE,OE,p,p,639,TRUE,1
CVOE updated,5,1,2,54,A 95,,,FALSE,OE,q,q,1423,TRUE,1
CVOE updated,5,1,2,55,E 64,,,TRUE,OE,p,p,909,TRUE,1
CVOE updated,5,1,2,56,P 20,,,FALSE,OE,p,p,691,TRUE,1
CVOE updated,5,1,2,57,S 06,,,FALSE,OE,p,p,782,TRUE,1
CVOE updated,5,1,2,58,P 64,,,FALSE,OE,p,p,596,TRUE,1
CVOE updated,5,1,2,59,U 70,,,TRUE,OE,p,p,565,TRUE,1
CVOE updated,5,1,2,60,S 16,,,FALSE,OE,p,p,541,TRUE,1
CVOE updated,5,1,2,61,E 35,,,FALSE,OE,q,q,564,TRUE,1
CVOE updated,5,1,2,62,I 93,,,FALSE,OE,q,q,555,TRUE,1
CVOE updated,5,1,2,63,D 63,,,TRUE,OE,q,q,588,TRUE,1
CVOE updated,5,1,2,64,U 89,,,FALSE,OE,q,q,625,TRUE,1
CVOE updated,5,1,2,65,E 91,,,FALSE,OE,q,q,639,TRUE,1
CVOE updated,5,1,2,66,A 12,,,TRUE,OE,p,p,448,TRUE,1
CVOE updated,5,1,2,67,P 56,,,FALSE,OE,p,p,563,TRUE,1
CVOE updated,5,1,2,68,S 65,,,TRUE,OE,q,q,579,TRUE,1
CVOE updated,5,1,2,69,P 07,,,TRUE,OE,q,q,894,TRUE,1
CVOE updated,5,1,2,70,I 77,,,FALSE,OE,q,q,593,TRUE,1
CVOE updated,5,1,2,71,J 19,,,TRUE,OE,q,q,651,TRUE,1
CVOE updated,5,1,2,72,O 59,,,FALSE,OE,q,q,469,TRUE,1
CVOE updated,5,1,2,73,J 15,,,TRUE,OE,q,q,700,TRUE,1
CVOE updated,5,1,2,74,I 89,,,FALSE,OE,q,q,1254,TRUE,1
CVOE updated,5,1,2,75,O 97,,,FALSE,OE,q,q,785,TRUE,1
CVOE updated,5,1,2,76,A 92,,,TRUE,OE,p,p,623,TRUE,1
CVOE updated,5,1,2,77,J 90,,,FALSE,OE,p,p,493,TRUE,1
CVOE updated,5,1,2,78,H 65,,,TRUE,OE,q,q,936,TRUE,1
CVOE updated,5,1,2,79,H 17,,,TRUE,OE,q,q,651,TRUE,1
CVOE updated,5,1,2,80,S 26,,,FALSE,OE,p,p,470,TRUE,1
CVOE updated,5,1,2,81,D 56,,,FALSE,OE,p,p,468,TRUE,1
CVOE updated,5,1,2,82,I 91,,,FALSE,OE,q,q,489,TRUE,1
CVOE updated,5,1,2,83,J 11,,,TRUE,OE,q,q,453,TRUE,1
CVOE updated,5,1,2,84,O 28,,,TRUE,OE,p,p,456,TRUE,1
CVOE updated,5,1,2,85,H 29,,,TRUE,OE,q,q,499,TRUE,1
CVOE updated,5,1,2,86,J 25,,,TRUE,OE,q,q,582,TRUE,1
CVOE updated,5,1,2,87,A 73,,,FALSE,OE,q,q,483,TRUE,1
CVOE updated,5,1,2,88,J 63,,,TRUE,OE,q,q,556,TRUE,1
CVOE updated,5,1,2,89,U 84,,,TRUE,OE,p,p,516,TRUE,1
CVOE updated,5,1,2,90,A 58,,,TRUE,OE,p,p,533,TRUE,1
CVOE updated,5,1,2,91,S 43,,,TRUE,OE,q,q,536,TRUE,1
CVOE updated,5,1,2,92,H 54,,,FALSE,OE,p,p,611,TRUE,1
CVOE updated,5,1,2,93,D 4,,,FALSE,OE,p,p,590,TRUE,1
CVOE updated,5,1,2,94,J 75,,,TRUE,OE,q,q,532,TRUE,1
CVOE updated,5,1,2,95,D 19,,,TRUE,OE,q,q,584,TRUE,1
CVOE updated,5,1,2,96,J 38,,,FALSE,OE,p,p,660,TRUE,1
CVOE updated,5,1,2,97,I 56,,,TRUE,OE,q,p,498,FALSE,0
CVOE updated,5,1,2,98,P 87,,,TRUE,OE,q,q,605,TRUE,1
CVOE updated,5,1,2,99,O 80,,,TRUE,OE,p,p,534,TRUE,1
CVOE updated,5,1,2,100,U 60,,,TRUE,OE,p,p,649,TRUE,1
CVOE updated,5,1,2,101,P 48,,,FALSE,OE,p,p,564,TRUE,1
CVOE updated,5,1,2,102,H 64,,,FALSE,OE,p,p,652,TRUE,1
CVOE updated,5,1,2,103,A 13,,,FALSE,OE,q,q,464,TRUE,1
CVOE updated,5,1,2,104,H 68,,,FALSE,OE,p,p,581,TRUE,1
CVOE updated,5,1,2,105,E 16,,,TRUE,OE,p,p,555,TRUE,1
CVOE updated,5,1,2,106,S 71,,,TRUE,OE,q,q,452,TRUE,1
CVOE updated,5,1,3,11,A 44,Letter,N,TRUE,CV,p,p,3610,TRUE,1
CVOE updated,5,1,3,12,D 94,Letter,N,FALSE,CV,q,q,743,TRUE,1
CVOE updated,5,1,3,13,E 75,Number,Y,FALSE,OE,p,p,780,TRUE,1
CVOE updated,5,1,3,14,H 81,Number,N,TRUE,OE,q,p,1378,FALSE,0
CVOE updated,5,1,3,15,I 64,Letter,Y,TRUE,CV,p,p,862,TRUE,1
CVOE updated,5,1,3,16,J 54,Letter,N,FALSE,CV,q,q,4885,TRUE,1
CVOE updated,5,1,3,17,O 23,Number,Y,FALSE,OE,q,q,1150,TRUE,1
CVOE updated,5,1,3,18,P 05,Number,N,TRUE,OE,q,q,988,TRUE,1
CVOE updated,5,1,3,19,S 34,Letter,Y,FALSE,CV,q,q,1905,TRUE,1
CVOE updated,5,1,3,20,U 88,Letter,N,TRUE,CV,p,p,2680,TRUE,1
CVOE updated,5,1,3,21,A 70,Number,Y,TRUE,OE,q,p,1585,FALSE,0
CVOE updated,5,1,3,22,D 12,Number,N,FALSE,OE,p,p,1407,TRUE,1
CVOE updated,5,1,3,23,E 79,Letter,Y,FALSE,CV,p,p,1562,TRUE,1
CVOE updated,5,1,3,24,H 72,Letter,N,FALSE,CV,q,q,2299,TRUE,1
CVOE updated,5,1,3,25,I 41,Number,Y,FALSE,OE,q,q,1370,TRUE,1
CVOE updated,5,1,3,26,J 63,Number,N,TRUE,OE,q,q,862,TRUE,1
CVOE updated,5,1,3,27,O 03,Letter,Y,FALSE,CV,p,p,1467,TRUE,1
CVOE updated,5,1,3,28,P 75,Letter,N,TRUE,CV,q,q,1409,TRUE,1
CVOE updated,5,1,3,29,S 61,Number,Y,TRUE,OE,q,q,1092,TRUE,1
CVOE updated,5,1,3,30,U 28,Number,N,TRUE,OE,p,p,817,TRUE,1
CVOE updated,5,1,3,31,A 21,Letter,Y,FALSE,CV,p,p,1635,TRUE,1
CVOE updated,5,1,3,32,D 18,Letter,N,FALSE,CV,q,q,876,TRUE,1
CVOE updated,5,1,3,33,E 35,Number,Y,FALSE,OE,q,q,1076,TRUE,1
CVOE updated,5,1,3,34,H 62,Number,N,FALSE,OE,p,p,1006,TRUE,1
CVOE updated,5,1,3,35,I 82,Letter,Y,TRUE,CV,p,p,1093,TRUE,1
CVOE updated,5,1,3,36,J 78,Letter,N,FALSE,CV,q,q,1034,TRUE,1
CVOE updated,5,1,3,37,O 12,Number,Y,TRUE,OE,p,p,921,TRUE,1
CVOE updated,5,1,3,38,P 13,Number,N,TRUE,OE,q,q,699,TRUE,1
CVOE updated,5,1,3,39,S 07,Letter,Y,TRUE,CV,q,q,846,TRUE,1
CVOE updated,5,1,3,40,U 36,Letter,N,TRUE,CV,q,p,1197,FALSE,0
CVOE updated,5,1,3,41,A 96,Number,Y,TRUE,OE,q,p,782,FALSE,0
CVOE updated,5,1,3,42,D 04,Number,N,FALSE,OE,p,p,1292,TRUE,1
CVOE updated,5,1,3,43,E 60,Letter,Y,TRUE,CV,p,p,2008,TRUE,1
CVOE updated,5,1,3,44,H 83,Letter,N,TRUE,CV,q,q,1483,TRUE,1
CVOE updated,5,1,3,45,I 64,Number,Y,TRUE,OE,p,p,1900,TRUE,1
CVOE updated,5,1,3,46,J 76,Number,N,FALSE,OE,p,p,930,TRUE,1
CVOE updated,5,1,3,47,O 78,Letter,Y,TRUE,CV,p,p,1454,TRUE,1
CVOE updated,5,1,3,48,P 09,Letter,N,TRUE,CV,q,q,978,TRUE,1
CVOE updated,5,1,3,49,S 72,Number,Y,FALSE,OE,p,p,1012,TRUE,1
CVOE updated,5,1,3,50,U 47,Number,N,FALSE,OE,q,q,1455,TRUE,1
CVOE updated,5,1,3,51,A 31,Letter,Y,FALSE,CV,p,p,1010,TRUE,1
CVOE updated,5,1,3,52,D 96,Letter,N,FALSE,CV,q,q,766,TRUE,1
CVOE updated,5,1,3,53,E 40,Number,Y,TRUE,OE,p,p,1703,TRUE,1
CVOE updated,5,1,3,54,H 79,Number,N,TRUE,OE,q,q,1332,TRUE,1
CVOE updated,5,1,3,55,I 15,Letter,Y,FALSE,CV,p,p,1816,TRUE,1
CVOE updated,5,1,3,56,J 07,Letter,N,TRUE,CV,q,q,2123,TRUE,1
CVOE updated,5,1,3,57,O 61,Number,Y,FALSE,OE,q,q,1108,TRUE,1
CVOE updated,5,1,3,58,P 58,Number,N,FALSE,OE,p,p,2770,TRUE,1
CVOE updated,5,1,3,59,S 37,Letter,Y,TRUE,CV,q,q,2887,TRUE,1
CVOE updated,5,1,3,60,U 61,Letter,N,FALSE,CV,p,p,850,TRUE,1
CVOE updated,5,1,3,61,A 17,Number,Y,FALSE,OE,q,q,1349,TRUE,1
CVOE updated,5,1,3,62,D 85,Number,N,TRUE,OE,q,q,1891,TRUE,1
CVOE updated,5,1,3,63,E 20,Letter,Y,TRUE,CV,p,p,1279,TRUE,1
CVOE updated,5,1,3,64,H 86,Letter,N,FALSE,CV,q,q,1864,TRUE,1
CVOE updated,5,1,3,65,I 21,Number,Y,FALSE,OE,q,q,879,TRUE,1
CVOE updated,5,1,3,66,J 29,Number,N,TRUE,OE,q,q,1470,TRUE,1
CVOE updated,5,1,3,67,O 13,Letter,Y,FALSE,CV,p,p,1118,TRUE,1
CVOE updated,5,1,3,68,P 82,Letter,N,FALSE,CV,q,q,629,TRUE,1
CVOE updated,5,1,3,69,S 72,Number,Y,FALSE,OE,p,p,1572,TRUE,1
CVOE updated,5,1,3,70,U 84,Number,N,TRUE,OE,p,p,1062,TRUE,1
CVOE updated,5,1,3,71,A 49,Letter,Y,FALSE,CV,p,p,1077,TRUE,1
CVOE updated,5,1,3,72,D 91,Letter,N,TRUE,CV,q,q,901,TRUE,1
CVOE updated,5,1,3,73,E 99,Number,Y,FALSE,OE,q,q,1131,TRUE,1
CVOE updated,5,1,3,74,H 16,Number,N,FALSE,OE,p,p,887,TRUE,1
CVOE updated,5,1,3,75,I 45,Letter,Y,FALSE,CV,q,p,1553,FALSE,0
CVOE updated,5,1,3,76,J 70,Letter,N,FALSE,CV,q,q,2099,TRUE,1
CVOE updated,5,1,3,77,O 22,Number,Y,TRUE,OE,p,p,1815,TRUE,1
CVOE updated,5,1,3,78,P 41,Number,N,TRUE,OE,p,q,937,FALSE,0
CVOE updated,5,1,3,79,S 93,Letter,Y,TRUE,CV,q,q,1941,TRUE,1
CVOE updated,5,1,3,80,U 70,Letter,N,TRUE,CV,p,p,2859,TRUE,1
CVOE updated,5,1,3,81,A 42,Number,Y,TRUE,OE,p,p,1401,TRUE,1
CVOE updated,5,1,3,82,D 85,Number,N,TRUE,OE,q,q,3706,TRUE,1
CVOE updated,5,1,3,83,E 68,Letter,Y,TRUE,CV,p,p,1017,TRUE,1
CVOE updated,5,1,3,84,H 17,Letter,N,TRUE,CV,q,q,892,TRUE,1
CVOE updated,5,1,3,85,I 70,Number,Y,TRUE,OE,q,p,1624,FALSE,0
CVOE updated,5,1,3,86,J 88,Number,N,FALSE,OE,p,p,1310,TRUE,1
CVOE updated,5,1,3,87,O 32,Letter,Y,TRUE,CV,p,p,996,TRUE,1
CVOE updated,5,1,3,88,P 95,Letter,N,TRUE,CV,q,q,780,TRUE,1
CVOE updated,5,1,3,89,S 98,Number,Y,FALSE,OE,p,p,738,TRUE,1
CVOE updated,5,1,3,90,U 37,Number,N,FALSE,OE,q,q,1141,TRUE,1
CVOE updated,5,1,3,91,A 56,Letter,Y,TRUE,CV,p,p,667,TRUE,1
CVOE updated,5,1,3,92,D 57,Letter,N,TRUE,CV,q,q,993,TRUE,1
CVOE updated,5,1,3,93,E 93,Number,Y,FALSE,OE,q,q,1194,TRUE,1
CVOE updated,5,1,3,94,H 27,Number,N,TRUE,OE,p,q,578,FALSE,0
CVOE updated,5,1,3,95,I 35,Letter,Y,FALSE,CV,p,p,1077,TRUE,1
CVOE updated,5,1,3,96,J 03,Letter,N,TRUE,CV,q,q,670,TRUE,1
CVOE updated,5,1,3,97,O 28,Number,Y,TRUE,OE,p,p,668,TRUE,1
CVOE updated,5,1,3,98,P 59,Number,N,TRUE,OE,q,q,562,TRUE,1
CVOE updated,5,1,3,99,S 77,Letter,Y,TRUE,CV,q,q,730,TRUE,1
CVOE updated,5,1,3,100,U 05,Letter,N,FALSE,CV,p,p,613,TRUE,1
CVOE updated,5,1,3,101,A 56,Number,Y,TRUE,OE,p,p,1048,TRUE,1
CVOE updated,5,1,3,102,D 01,Number,N,TRUE,OE,q,q,764,TRUE,1
CVOE updated,5,1,3,103,E 02,Letter,Y,TRUE,CV,p,p,1236,TRUE,1
CVOE updated,5,1,3,104,H 68,Letter,N,FALSE,CV,q,q,1198,TRUE,1
CVOE updated,5,1,3,105,I 05,Number,Y,FALSE,OE,q,q,861,TRUE,1
CVOE updated,5,1,3,106,J 55,Number,N,TRUE,OE,q,q,675,TRUE,1
CVOE updated,5,1,3,107,O 73,Letter,Y,FALSE,CV,p,p,1060,TRUE,1
CVOE updated,5,1,3,108,P 41,Letter,N,TRUE,CV,q,q,738,TRUE,1
CVOE updated,5,1,3,109,S 92,Number,Y,FALSE,OE,p,p,1589,TRUE,1
CVOE updated,5,1,3,110,U 34,Number,N,TRUE,OE,p,p,603,TRUE,1
CVOE updated,5,1,3,111,A 09,Letter,Y,FALSE,CV,p,p,1124,TRUE,1
CVOE updated,5,1,3,112,D 92,Letter,N,FALSE,CV,q,q,1244,TRUE,1
CVOE updated,5,1,3,113,E 48,Number,Y,TRUE,OE,p,p,789,TRUE,1
CVOE updated,5,1,3,114,H 76,Number,N,FALSE,OE,q,p,626,FALSE,0
CVOE updated,5,1,3,115,I 44,Letter,Y,TRUE,CV,q,p,2473,FALSE,0
CVOE updated,5,1,3,116,J 67,Letter,N,TRUE,CV,q,q,1041,TRUE,1
CVOE updated,5,1,3,117,O 48,Number,Y,TRUE,OE,p,p,1106,TRUE,1
CVOE updated,5,1,3,118,P 22,Number,N,FALSE,OE,p,p,584,TRUE,1
CVOE updated,5,1,3,119,S 86,Letter,Y,FALSE,CV,q,q,2470,TRUE,1
CVOE updated,5,1,3,120,U 35,Letter,N,FALSE,CV,p,p,812,TRUE,1
CVOE updated,5,1,3,121,A 91,Number,Y,FALSE,OE,q,q,703,TRUE,1
CVOE updated,5,1,3,122,D 78,Number,N,FALSE,OE,p,p,517,TRUE,1
CVOE updated,5,1,3,123,E 91,Letter,Y,FALSE,CV,p,p,1109,TRUE,1
CVOE updated,5,1,3,124,H 54,Letter,N,FALSE,CV,q,q,515,TRUE,1
CVOE updated,5,1,3,125,I 65,Number,Y,FALSE,OE,q,q,653,TRUE,1
CVOE updated,5,1,3,126,J 52,Number,N,FALSE,OE,p,p,479,TRUE,1
CVOE updated,5,1,3,127,O 19,Letter,Y,FALSE,CV,p,p,679,TRUE,1
CVOE updated,5,1,3,128,P 48,Letter,N,FALSE,CV,q,q,456,TRUE,1
CVOE updated,5,1,3,129,S 45,Number,Y,TRUE,OE,q,q,716,TRUE,1
CVOE updated,5,1,3,130,U 26,Number,N,TRUE,OE,p,p,627,TRUE,1
CVOE updated,5,1,4,1,U 38,Number,N,TRUE,OE,p,p,3589,TRUE,1
CVOE updated,5,1,4,2,P 73,Number,N,TRUE,OE,q,q,916,TRUE,1
CVOE updated,5,1,4,3,U 95,Letter,Y,FALSE,CV,p,p,781,TRUE,1
CVOE updated,5,1,4,4,J 61,Number,Y,TRUE,OE,q,q,587,TRUE,1
CVOE updated,5,1,4,5,D 51,Number,N,TRUE,OE,q,q,785,TRUE,1
CVOE updated,5,1,4,6,S 28,Number,N,FALSE,OE,p,p,718,TRUE,1
CVOE updated,5,1,4,7,A 56,Letter,Y,TRUE,CV,p,p,679,TRUE,1
CVOE updated,5,1,4,8,H 78,Letter,N,FALSE,CV,q,q,503,TRUE,1
CVOE updated,5,1,4,9,P 92,Letter,N,FALSE,CV,q,q,3189,TRUE,1
CVOE updated,5,1,4,10,E 05,Number,Y,FALSE,OE,q,q,1220,TRUE,1
CVOE updated,5,1,4,11,P 57,Letter,Y,TRUE,CV,q,q,2810,TRUE,1
CVOE updated,5,1,4,12,D 88,Number,Y,FALSE,OE,p,p,806,TRUE,1
CVOE updated,5,1,4,13,O 89,Letter,Y,FALSE,CV,p,p,742,TRUE,1
CVOE updated,5,1,4,14,U 43,Number,Y,FALSE,OE,q,q,813,TRUE,1
CVOE updated,5,1,4,15,H 10,Number,N,FALSE,OE,p,p,2511,TRUE,1
CVOE updated,5,1,4,16,S 07,Letter,Y,TRUE,CV,q,q,1086,TRUE,1
CVOE updated,5,1,4,17,J 10,Letter,N,FALSE,CV,q,q,2270,TRUE,1
CVOE updated,5,1,4,18,H 54,Number,Y,FALSE,OE,p,p,981,TRUE,1
CVOE updated,5,1,4,19,E 99,Number,N,FALSE,OE,q,q,938,TRUE,1
CVOE updated,5,1,4,20,J 36,Letter,Y,FALSE,CV,q,q,855,TRUE,1
CVOE updated,5,1,4,21,I 94,Letter,N,TRUE,CV,p,p,1657,TRUE,1
CVOE updated,5,1,4,22,A 82,Letter,N,TRUE,CV,p,p,1781,TRUE,1
CVOE updated,5,1,4,23,H 79,Number,Y,TRUE,OE,q,q,715,TRUE,1
CVOE updated,5,1,4,24,J 60,Number,N,FALSE,OE,p,p,987,TRUE,1
CVOE updated,5,1,4,25,S 28,Letter,Y,FALSE,CV,q,q,914,TRUE,1
CVOE updated,5,1,4,26,P 11,Number,Y,TRUE,OE,q,q,2194,TRUE,1
CVOE updated,5,1,4,27,D 39,Number,N,TRUE,OE,q,q,1915,TRUE,1
CVOE updated,5,1,4,28,E 90,Number,N,TRUE,OE,p,p,1028,TRUE,1
CVOE updated,5,1,4,29,I 38,Number,N,TRUE,OE,p,p,994,TRUE,1
CVOE updated,5,1,4,30,S 35,Letter,Y,TRUE,CV,p,q,1219,FALSE,0
CVOE updated,5,1,4,31,D 41,Number,Y,TRUE,OE,q,q,1821,TRUE,1
CVOE updated,5,1,4,32,E 06,Number,N,TRUE,OE,p,p,988,TRUE,1
CVOE updated,5,1,4,33,A 27,Number,N,FALSE,OE,q,q,977,TRUE,1
CVOE updated,5,1,4,34,U 95,Letter,Y,FALSE,CV,p,p,862,TRUE,1
CVOE updated,5,1,4,35,A 53,Letter,N,FALSE,CV,q,p,1162,FALSE,0
CVOE updated,5,1,4,36,E 43,Letter,N,FALSE,CV,p,p,1827,TRUE,1
CVOE updated,5,1,4,37,P 05,Number,Y,TRUE,OE,q,q,2562,TRUE,1
CVOE updated,5,1,4,38,O 19,Letter,Y,FALSE,CV,p,p,2723,TRUE,1
CVOE updated,5,1,4,39,I 96,Number,Y,TRUE,OE,p,p,1156,TRUE,1
CVOE updated,5,1,4,40,A 88,Number,N,TRUE,OE,p,p,821,TRUE,1
CVOE updated,5,1,4,41,I 67,Number,N,FALSE,OE,q,q,827,TRUE,1
CVOE updated,5,1,4,42,D 40,Number,N,FALSE,OE,p,p,2672,TRUE,1
CVOE updated,5,1,4,43,P 79,Letter,Y,TRUE,CV,q,q,1329,TRUE,1
CVOE updated,5,1,4,44,U 24,Number,Y,TRUE,OE,p,p,1262,TRUE,1
CVOE updated,5,1,4,45,P 74,Number,N,FALSE,OE,p,p,819,TRUE,1
CVOE updated,5,1,4,46,E 70,Number,N,TRUE,OE,p,p,918,TRUE,1
CVOE updated,5,1,4,47,S 27,Number,N,TRUE,OE,q,q,926,TRUE,1
CVOE updated,5,1,4,48,E 54,Letter,Y,TRUE,CV,p,p,1123,TRUE,1
CVOE updated,5,1,4,49,A 53,Letter,N,FALSE,CV,p,p,778,TRUE,1
CVOE updated,5,1,4,50,P 34,Letter,N,FALSE,CV,q,q,710,TRUE,1
CVOE updated,5,1,4,51,D 74,Number,Y,FALSE,OE,p,p,748,TRUE,1
CVOE updated,5,1,4,52,A 03,Letter,Y,FALSE,CV,q,p,641,FALSE,0
CVOE updated,5,1,4,53,E 24,Number,Y,TRUE,OE,p,p,2115,TRUE,1
CVOE updated,5,1,4,54,I 58,Letter,Y,TRUE,CV,q,p,2963,FALSE,0
CVOE updated,5,1,4,55,D 77,Number,Y,TRUE,OE,q,q,1212,TRUE,1
CVOE updated,5,1,4,56,S 75,Number,N,TRUE,OE,q,q,1599,TRUE,1
CVOE updated,5,1,4,57,I 20,Letter,Y,TRUE,CV,p,p,921,TRUE,1
CVOE updated,5,1,4,58,J 52,Letter,N,FALSE,CV,q,q,953,TRUE,1
CVOE updated,5,1,4,59,A 38,Number,Y,TRUE,OE,p,p,1606,TRUE,1
CVOE updated,5,1,4,60,I 60,Letter,Y,TRUE,CV,q,p,1483,FALSE,0
CVOE updated,5,1,4,61,S 51,Number,Y,TRUE,OE,q,q,2395,TRUE,1
CVOE updated,5,1,4,62,D 63,Letter,Y,TRUE,CV,q,q,1468,TRUE,1
CVOE updated,5,1,4,63,U 27,Letter,N,FALSE,CV,p,p,1226,TRUE,1
CVOE updated,5,1,4,64,J 77,Letter,N,TRUE,CV,q,q,1209,TRUE,1
CVOE updated,5,1,4,65,O 15,Number,Y,FALSE,OE,q,q,1235,TRUE,1
CVOE updated,5,1,4,66,J 20,Letter,Y,FALSE,CV,q,q,2253,TRUE,1
CVOE updated,5,1,4,67,U 97,Number,Y,FALSE,OE,q,q,1440,TRUE,1
CVOE updated,5,1,4,68,H 03,Number,N,TRUE,OE,q,q,992,TRUE,1
CVOE updated,5,1,4,69,O 04,Letter,Y,TRUE,CV,p,p,974,TRUE,1
CVOE updated,5,1,4,70,E 10,Letter,N,TRUE,CV,p,p,865,TRUE,1
CVOE updated,5,1,4,71,I 52,Letter,N,TRUE,CV,p,p,855,TRUE,1
CVOE updated,5,1,4,72,H 81,Number,Y,TRUE,OE,q,q,1051,TRUE,1
CVOE updated,5,1,4,73,I 41,Number,N,FALSE,OE,q,q,1950,TRUE,1
CVOE updated,5,1,4,74,U 19,Letter,Y,FALSE,CV,p,p,1892,TRUE,1
CVOE updated,5,1,4,75,O 17,Number,Y,FALSE,OE,p,q,937,FALSE,0
CVOE updated,5,1,4,76,A 10,Number,N,TRUE,OE,p,p,2435,TRUE,1
CVOE updated,5,1,4,77,P 93,Letter,Y,TRUE,CV,q,q,1845,TRUE,1
CVOE updated,5,1,4,78,E 59,Letter,N,FALSE,CV,p,p,1973,TRUE,1
CVOE updated,5,1,4,79,O 53,Letter,N,FALSE,CV,p,p,801,TRUE,1
CVOE updated,5,1,4,80,A 96,Letter,N,TRUE,CV,q,p,1713,FALSE,0
CVOE updated,5,1,4,81,H 36,Letter,Y,FALSE,CV,q,q,4234,TRUE,1
CVOE updated,5,1,4,82,A 63,Letter,N,FALSE,CV,p,p,1053,TRUE,1
CVOE updated,5,1,4,83,I 38,Letter,N,TRUE,CV,p,p,1231,TRUE,1
CVOE updated,5,1,4,84,O 51,Number,Y,FALSE,OE,q,q,1374,TRUE,1
CVOE updated,5,1,4,85,J 26,Number,N,FALSE,OE,p,p,977,TRUE,1
CVOE updated,5,1,4,86,S 34,Letter,Y,FALSE,CV,q,q,740,TRUE,1
CVOE updated,5,1,4,87,U 85,Number,Y,FALSE,OE,q,q,1034,TRUE,1
CVOE updated,5,1,4,88,J 77,Number,N,TRUE,OE,q,q,1050,TRUE,1
CVOE updated,5,1,4,89,I 73,Letter,Y,FALSE,CV,p,p,1517,TRUE,1
CVOE updated,5,1,4,90,H 46,Number,Y,FALSE,OE,p,p,2350,TRUE,1
CVOE updated,5,1,4,91,D 04,Number,N,FALSE,OE,p,p,708,TRUE,1
CVOE updated,5,1,4,92,P 72,Letter,Y,FALSE,CV,q,q,1347,TRUE,1
CVOE updated,5,1,4,93,D 99,Number,Y,TRUE,OE,q,q,1032,TRUE,1
CVOE updated,5,1,4,94,U 25,Letter,Y,FALSE,CV,p,p,1102,TRUE,1
CVOE updated,5,1,4,95,O 32,Letter,N,TRUE,CV,p,p,796,TRUE,1
CVOE updated,5,1,4,96,E 80,Letter,N,TRUE,CV,p,p,941,TRUE,1
CVOE updated,5,1,4,97,O 84,Number,Y,TRUE,OE,p,p,1123,TRUE,1
CVOE updated,5,1,4,98,A 78,Number,N,TRUE,OE,p,p,812,TRUE,1
CVOE updated,5,1,4,99,S 05,Number,N,TRUE,OE,q,q,799,TRUE,1
CVOE updated,5,1,4,100,U 35,Letter,Y,FALSE,CV,p,p,1071,TRUE,1
CVOE updated,5,1,4,101,H 14,Letter,N,FALSE,CV,q,q,686,TRUE,1
CVOE updated,5,1,4,102,U 15,Number,Y,FALSE,OE,q,q,1366,TRUE,1
CVOE updated,5,1,4,103,E 36,Letter,Y,TRUE,CV,p,p,1374,TRUE,1
CVOE updated,5,1,4,104,P 70,Letter,N,FALSE,CV,q,q,1169,TRUE,1
CVOE updated,5,1,4,105,O 44,Number,Y,TRUE,OE,p,p,1093,TRUE,1
CVOE updated,5,1,4,106,S 41,Letter,Y,TRUE,CV,q,q,1352,TRUE,1
CVOE updated,5,1,4,107,D 83,Letter,N,TRUE,CV,q,q,1742,TRUE,1
CVOE updated,5,1,4,108,J 39,Letter,N,TRUE,CV,q,q,1276,TRUE,1
CVOE updated,5,1,4,109,S 22,Number,Y,FALSE,OE,p,p,678,TRUE,1
CVOE updated,5,1,4,110,D 89,Letter,Y,TRUE,CV,q,q,1061,TRUE,1
CVOE updated,5,1,4,111,P 87,Letter,N,TRUE,CV,q,q,2196,TRUE,1
CVOE updated,5,1,4,112,H 42,Letter,N,FALSE,CV,q,q,980,TRUE,1
CVOE updated,5,1,4,113,S 49,Letter,N,TRUE,CV,q,q,1146,TRUE,1
CVOE updated,5,1,4,114,J 20,Number,Y,FALSE,OE,p,p,1384,TRUE,1
CVOE updated,5,1,4,115,O 19,Letter,Y,FALSE,CV,p,p,878,TRUE,1
CVOE updated,5,1,4,116,H 50,Letter,N,FALSE,CV,q,q,735,TRUE,1
CVOE updated,5,1,4,117,I 68,Number,Y,TRUE,OE,p,p,1074,TRUE,1
CVOE updated,5,1,4,118,J 72,Number,N,FALSE,OE,q,p,1075,FALSE,0
CVOE updated,5,1,4,119,O 21,Number,N,FALSE,OE,q,q,1372,TRUE,1
CVOE updated,5,1,4,120,H 22,Number,N,FALSE,OE,p,p,895,TRUE,1
CVOE_B,2,1,1,11,A 24,,,TRUE,OE,p,p,1260,TRUE,1
CVOE_B,2,1,1,12,O 83,,,FALSE,OE,q,q,551,TRUE,1
CVOE_B,2,1,1,13,H 55,,,TRUE,OE,q,q,700,TRUE,1
CVOE_B,2,1,1,14,P 10,,,FALSE,OE,p,p,594,TRUE,1
CVOE_B,2,1,1,15,D 30,,,FALSE,OE,p,p,746,TRUE,1
CVOE_B,2,1,1,16,U 62,,,TRUE,OE,p,p,776,TRUE,1
CVOE_B,2,1,1,17,P 95,,,TRUE,OE,q,q,619,TRUE,1
CVOE_B,2,1,1,18,U 06,,,TRUE,OE,p,p,575,TRUE,1
CVOE_B,2,1,1,19,E 75,,,FALSE,OE,q,q,585,TRUE,1
CVOE_B,2,1,1,20,I 67,,,FALSE,OE,q,q,679,TRUE,1
CVOE_B,2,1,1,21,S 13,,,TRUE,OE,q,q,655,TRUE,1
CVOE_B,2,1,1,22,P 78,,,FALSE,OE,p,p,740,TRUE,1
CVOE_B,2,1,1,23,I 15,,,FALSE,OE,q,q,614,TRUE,1
CVOE_B,2,1,1,24,D 27,,,TRUE,OE,q,q,833,TRUE,1
CVOE_B,2,1,1,25,O 94,,,TRUE,OE,p,p,665,TRUE,1
CVOE_B,2,1,1,26,A 65,,,FALSE,OE,q,q,623,TRUE,1
CVOE_B,2,1,1,27,I 42,,,TRUE,OE,p,p,742,TRUE,1
CVOE_B,2,1,1,28,E 25,,,FALSE,OE,q,q,603,TRUE,1
CVOE_B,2,1,1,29,H 49,,,TRUE,OE,p,q,563,FALSE,0
CVOE_B,2,1,1,30,S 18,,,FALSE,OE,p,p,811,TRUE,1
CVOE_B,2,1,1,31,H 51,,,TRUE,OE,q,q,599,TRUE,1
CVOE_B,2,1,1,32,U 14,,,TRUE,OE,p,p,728,TRUE,1
CVOE_B,2,1,1,33,E 02,,,TRUE,OE,p,p,634,TRUE,1
CVOE_B,2,1,1,34,J 26,,,FALSE,OE,p,p,595,TRUE,1
CVOE_B,2,1,1,35,D 24,,,FALSE,OE,p,p,643,TRUE,1
CVOE_B,2,1,1,36,O 50,,,TRUE,OE,p,p,620,TRUE,1
CVOE_B,2,1,1,37,U 16,,,TRUE,OE,p,p,577,TRUE,1
CVOE_B,2,1,1,38,O 15,,,FALSE,OE,q,q,580,TRUE,1
CVOE_B,2,1,1,39,D 32,,,FALSE,OE,p,p,635,TRUE,1
CVOE_B,2,1,1,40,S 67,,,TRUE,OE,q,q,675,TRUE,1
CVOE_B,2,1,1,41,J 74,,,FALSE,OE,p,p,748,TRUE,1
CVOE_B,2,1,1,42,D 92,,,FALSE,OE,p,p,681,TRUE,1
CVOE_B,2,1,1,43,A 65,,,FALSE,OE,q,q,553,TRUE,1
CVOE_B,2,1,1,44,I 87,,,FALSE,OE,q,q,658,TRUE,1
CVOE_B,2,1,1,45,H 61,,,TRUE,OE,q,q,565,TRUE,1
CVOE_B,2,1,1,46,E 59,,,FALSE,OE,q,q,685,TRUE,1
CVOE_B,2,1,1,47,I 33,,,FALSE,OE,q,q,542,TRUE,1
CVOE_B,2,1,1,48,O 90,,,TRUE,OE,p,p,539,TRUE,1
CVOE_B,2,1,1,49,U 51,,,FALSE,OE,q,q,463,TRUE,1
CVOE_B,2,1,1,50,A 10,,,TRUE,OE,q,p,612,FALSE,0
CVOE_B,2,1,1,51,E 50,,,TRUE,OE,p,p,591,TRUE,1
CVOE_B,2,1,1,52,D 92,,,FALSE,OE,p,p,581,TRUE,1
CVOE_B,2,1,1,53,E 60,,,TRUE,OE,p,p,611,TRUE,1
CVOE_B,2,1,1,54,A 95,,,FALSE,OE,q,q,4030,TRUE,1
CVOE_B,2,1,1,55,E 64,,,TRUE,OE,p,p,677,TRUE,1
CVOE_B,2,1,1,56,P 20,,,FALSE,OE,p,p,749,TRUE,1
CVOE_B,2,1,1,57,S 06,,,FALSE,OE,p,p,635,TRUE,1
CVOE_B,2,1,1,58,P 64,,,FALSE,OE,p,p,620,TRUE,1
CVOE_B,2,1,1,59,U 70,,,TRUE,OE,p,p,617,TRUE,1
CVOE_B,2,1,1,60,S 16,,,FALSE,OE,p,p,829,TRUE,1
CVOE_B,2,1,1,61,E 35,,,FALSE,OE,q,q,674,TRUE,1
CVOE_B,2,1,1,62,I 93,,,FALSE,OE,q,q,699,TRUE,1
CVOE_B,2,1,1,63,D 63,,,TRUE,OE,q,q,663,TRUE,1
CVOE_B,2,1,1,64,U 89,,,FALSE,OE,q,q,740,TRUE,1
CVOE_B,2,1,1,65,E 91,,,FALSE,OE,q,q,715,TRUE,1
CVOE_B,2,1,1,66,A 12,,,TRUE,OE,p,p,754,TRUE,1
CVOE_B,2,1,1,67,P 56,,,FALSE,OE,p,p,627,TRUE,1
CVOE_B,2,1,1,68,S 65,,,TRUE,OE,q,q,705,TRUE,1
CVOE_B,2,1,1,69,P 07,,,TRUE,OE,q,q,782,TRUE,1
CVOE_B,2,1,1,70,I 77,,,FALSE,OE,q,q,868,TRUE,1
CVOE_B,2,1,1,71,J 19,,,TRUE,OE,q,q,618,TRUE,1
CVOE_B,2,1,1,72,O 59,,,FALSE,OE,q,q,573,TRUE,1
CVOE_B,2,1,1,73,J 15,,,TRUE,OE,q,q,576,TRUE,1
CVOE_B,2,1,1,74,I 89,,,FALSE,OE,q,q,555,TRUE,1
CVOE_B,2,1,1,75,O 97,,,FALSE,OE,q,q,1181,TRUE,1
CVOE_B,2,1,1,76,A 92,,,TRUE,OE,p,p,570,TRUE,1
CVOE_B,2,1,1,77,J 90,,,FALSE,OE,p,p,1254,TRUE,1
CVOE_B,2,1,1,78,H 65,,,TRUE,OE,q,q,568,TRUE,1
CVOE_B,2,1,1,79,H 17,,,TRUE,OE,q,q,1147,TRUE,1
CVOE_B,2,1,1,80,S 26,,,FALSE,OE,p,p,769,TRUE,1
CVOE_B,2,1,1,81,D 56,,,FALSE,OE,p,p,1172,TRUE,1
CVOE_B,2,1,1,82,I 91,,,FALSE,OE,q,q,839,TRUE,1
CVOE_B,2,1,1,83,J 11,,,TRUE,OE,q,q,937,TRUE,1
CVOE_B,2,1,1,84,O 28,,,TRUE,OE,p,p,811,TRUE,1
CVOE_B,2,1,1,85,H 29,,,TRUE,OE,q,q,718,TRUE,1
CVOE_B,2,1,1,86,J 25,,,TRUE,OE,q,q,807,TRUE,1
CVOE_B,2,1,1,87,A 73,,,FALSE,OE,q,q,730,TRUE,1
CVOE_B,2,1,1,88,J 63,,,TRUE,OE,q,q,685,TRUE,1
CVOE_B,2,1,1,89,U 84,,,TRUE,OE,p,p,702,TRUE,1
CVOE_B,2,1,1,90,A 58,,,TRUE,OE,p,p,675,TRUE,1
CVOE_B,2,1,1,91,S 43,,,TRUE,OE,q,q,925,TRUE,1
CVOE_B,2,1,1,92,H 54,,,FALSE,OE,p,p,684,TRUE,1
CVOE_B,2,1,1,93,D 4,,,FALSE,OE,p,p,661,TRUE,1
CVOE_B,2,1,1,94,J 75,,,TRUE,OE,q,q,579,TRUE,1
CVOE_B,2,1,1,95,D 19,,,TRUE,OE,q,q,830,TRUE,1
CVOE_B,2,1,1,96,J 38,,,FALSE,OE,p,p,652,TRUE,1
CVOE_B,2,1,1,97,I 56,,,TRUE,OE,p,p,648,TRUE,1
CVOE_B,2,1,1,98,P 87,,,TRUE,OE,q,q,651,TRUE,1
CVOE_B,2,1,1,99,O 80,,,TRUE,OE,p,p,589,TRUE,1
CVOE_B,2,1,1,100,U 60,,,TRUE,OE,p,p,588,TRUE,1
CVOE_B,2,1,1,101,P 48,,,FALSE,OE,p,p,672,TRUE,1
CVOE_B,2,1,1,102,H 64,,,FALSE,OE,p,p,606,TRUE,1
CVOE_B,2,1,1,103,A 13,,,FALSE,OE,q,q,530,TRUE,1
CVOE_B,2,1,1,104,H 68,,,FALSE,OE,p,p,460,TRUE,1
CVOE_B,2,1,1,105,E 16,,,TRUE,OE,p,p,450,TRUE,1
CVOE_B,2,1,1,106,S 71,,,TRUE,OE,q,q,581,TRUE,1
CVOE_B,2,1,2,11,A 71,,,FALSE,CV,p,p,1063,TRUE,1
CVOE_B,2,1,2,12,I 66,,,TRUE,CV,p,p,574,TRUE,1
CVOE_B,2,1,2,13,S 30,,,FALSE,CV,q,q,481,TRUE,1
CVOE_B,2,1,2,14,D 20,,,FALSE,CV,q,q,577,TRUE,1
CVOE_B,2,1,2,15,I 31,,,FALSE,CV,p,p,621,TRUE,1
CVOE_B,2,1,2,16,P 16,,,FALSE,CV,q,q,706,TRUE,1
CVOE_B,2,1,2,17,A 49,,,FALSE,CV,p,p,583,TRUE,1
CVOE_B,2,1,2,18,O 64,,,TRUE,CV,p,p,1661,TRUE,1
CVOE_B,2,1,2,19,D 02,,,FALSE,CV,q,q,580,TRUE,1
CVOE_B,2,1,2,20,P 81,,,TRUE,CV,q,q,1006,TRUE,1
CVOE_B,2,1,2,21,J 58,,,FALSE,CV,q,q,537,TRUE,1
CVOE_B,2,1,2,22,A 22,,,TRUE,CV,p,p,572,TRUE,1
CVOE_B,2,1,2,23,J 72,,,FALSE,CV,q,q,505,TRUE,1
CVOE_B,2,1,2,24,P 91,,,TRUE,CV,q,q,485,TRUE,1
CVOE_B,2,1,2,25,E 19,,,FALSE,CV,p,p,414,TRUE,1
CVOE_B,2,1,2,26,I 30,,,TRUE,CV,p,p,585,TRUE,1
CVOE_B,2,1,2,27,D 91,,,TRUE,CV,q,q,414,TRUE,1
CVOE_B,2,1,2,28,O 48,,,TRUE,CV,p,p,401,TRUE,1
CVOE_B,2,1,2,29,A 89,,,FALSE,CV,p,p,578,TRUE,1
CVOE_B,2,1,2,30,U 11,,,FALSE,CV,p,p,606,TRUE,1
CVOE_B,2,1,2,31,I 76,,,TRUE,CV,p,p,485,TRUE,1
CVOE_B,2,1,2,32,U 89,,,FALSE,CV,p,p,431,TRUE,1
CVOE_B,2,1,2,33,D 63,,,TRUE,CV,q,q,443,TRUE,1
CVOE_B,2,1,2,34,H 70,,,FALSE,CV,q,q,564,TRUE,1
CVOE_B,2,1,2,35,D 48,,,FALSE,CV,q,q,508,TRUE,1
CVOE_B,2,1,2,36,P 56,,,FALSE,CV,q,q,498,TRUE,1
CVOE_B,2,1,2,37,O 77,,,FALSE,CV,p,p,445,TRUE,1
CVOE_B,2,1,2,38,P 42,,,FALSE,CV,q,q,461,TRUE,1
CVOE_B,2,1,2,39,H 22,,,FALSE,CV,q,q,443,TRUE,1
CVOE_B,2,1,2,40,E 42,,,TRUE,CV,p,p,491,TRUE,1
CVOE_B,2,1,2,41,J 28,,,FALSE,CV,q,q,663,TRUE,1
CVOE_B,2,1,2,42,E 95,,,FALSE,CV,p,p,692,TRUE,1
CVOE_B,2,1,2,43,S 63,,,TRUE,CV,q,q,559,TRUE,1
CVOE_B,2,1,2,44,H 50,,,FALSE,CV,q,q,480,TRUE,1
CVOE_B,2,1,2,45,S 33,,,TRUE,CV,q,q,408,TRUE,1
CVOE_B,2,1,2,46,P 57,,,TRUE,CV,q,q,459,TRUE,1
CVOE_B,2,1,2,47,E 23,,,FALSE,CV,p,p,543,TRUE,1
CVOE_B,2,1,2,48,S 61,,,TRUE,CV,q,q,549,TRUE,1
CVOE_B,2,1,2,49,U 67,,,FALSE,CV,p,p,602,TRUE,1
CVOE_B,2,1,2,50,H 32,,,FALSE,CV,q,q,467,TRUE,1
CVOE_B,2,1,2,51,U 50,,,TRUE,CV,p,p,593,TRUE,1
CVOE_B,2,1,2,52,O 49,,,FALSE,CV,p,p,542,TRUE,1
CVOE_B,2,1,2,53,U 32,,,TRUE,CV,p,p,516,TRUE,1
CVOE_B,2,1,2,54,J 78,,,FALSE,CV,q,q,477,TRUE,1
CVOE_B,2,1,2,55,S 54,,,FALSE,CV,q,q,500,TRUE,1
CVOE_B,2,1,2,56,J 27,,,TRUE,CV,q,q,491,TRUE,1
CVOE_B,2,1,2,57,S 06,,,FALSE,CV,q,q,437,TRUE,1
CVOE_B,2,1,2,58,D 67,,,TRUE,CV,q,q,421,TRUE,1
CVOE_B,2,1,2,59,A 79,,,FALSE,CV,p,p,563,TRUE,1
CVOE_B,2,1,2,60,S 52,,,FALSE,CV,q,q,556,TRUE,1
CVOE_B,2,1,2,61,U 16,,,TRUE,CV,p,p,581,TRUE,1
CVOE_B,2,1,2,62,O 82,,,TRUE,CV,p,p,577,TRUE,1
CVOE_B,2,1,2,63,H 87,,,TRUE,CV,q,q,582,TRUE,1
CVOE_B,2,1,2,64,I 32,,,TRUE,CV,p,p,610,TRUE,1
CVOE_B,2,1,2,65,U 37,,,FALSE,CV,q,p,598,FALSE,0
CVOE_B,2,1,2,66,I 42,,,TRUE,CV,p,p,743,TRUE,1
CVOE_B,2,1,2,67,D 65,,,TRUE,CV,q,q,517,TRUE,1
CVOE_B,2,1,2,68,U 77,,,FALSE,CV,q,p,549,FALSE,0
CVOE_B,2,1,2,69,E 12,,,TRUE,CV,p,p,530,TRUE,1
CVOE_B,2,1,2,70,I 60,,,TRUE,CV,p,p,605,TRUE,1
CVOE_B,2,1,2,71,J 36,,,FALSE,CV,q,q,542,TRUE,1
CVOE_B,2,1,2,72,H 75,,,TRUE,CV,q,q,724,TRUE,1
CVOE_B,2,1,2,73,I 50,,,TRUE,CV,p,p,588,TRUE,1
CVOE_B,2,1,2,74,E 99,,,FALSE,CV,p,p,706,TRUE,1
CVOE_B,2,1,2,75,A 86,,,TRUE,CV,p,p,527,TRUE,1
CVOE_B,2,1,2,76,U 48,,,TRUE,CV,p,p,522,TRUE,1
CVOE_B,2,1,2,77,E 01,,,FALSE,CV,p,p,468,TRUE,1
CVOE_B,2,1,2,78,A 78,,,TRUE,CV,p,p,449,TRUE,1
CVOE_B,2,1,2,79,P 60,,,FALSE,CV,q,q,476,TRUE,1
CVOE_B,2,1,2,80,E 43,,,FALSE,CV,p,p,780,TRUE,1
CVOE_B,2,1,2,81,D 69,,,TRUE,CV,q,q,538,TRUE,1
CVOE_B,2,1,2,82,H 11,,,TRUE,CV,q,q,605,TRUE,1
CVOE_B,2,1,2,83,P 43,,,TRUE,CV,q,q,830,TRUE,1
CVOE_B,2,1,2,84,O 67,,,FALSE,CV,p,p,508,TRUE,1
CVOE_B,2,1,2,85,S 91,,,FALSE,CV,q,q,497,TRUE,1
CVOE_B,2,1,2,86,J 68,,,TRUE,CV,q,q,588,TRUE,1
CVOE_B,2,1,2,87,S 47,,,FALSE,CV,q,q,497,TRUE,1
CVOE_B,2,1,2,88,I 81,,,TRUE,CV,p,p,548,TRUE,1
CVOE_B,2,1,2,89,J 39,,,FALSE,CV,q,q,443,TRUE,1
CVOE_B,2,1,2,90,A 11,,,TRUE,CV,p,p,564,TRUE,1
CVOE_B,2,1,2,91,O 76,,,FALSE,CV,p,p,540,TRUE,1
CVOE_B,2,1,2,92,A 62,,,FALSE,CV,p,p,543,TRUE,1
CVOE_B,2,1,2,93,O 27,,,TRUE,CV,p,p,541,TRUE,1
CVOE_B,2,1,2,94,E 66,,,FALSE,CV,p,p,481,TRUE,1
CVOE_B,2,1,2,95,J 62,,,TRUE,CV,q,q,459,TRUE,1
CVOE_B,2,1,2,96,H 72,,,TRUE,CV,q,q,565,TRUE,1
CVOE_B,2,1,2,97,E 49,,,TRUE,CV,p,p,750,TRUE,1
CVOE_B,2,1,2,98,D 52,,,TRUE,CV,q,q,1780,TRUE,1
CVOE_B,2,1,2,99,H 62,,,TRUE,CV,q,q,482,TRUE,1
CVOE_B,2,1,2,100,I 11,,,TRUE,CV,p,p,507,TRUE,1
CVOE_B,2,1,2,101,A 98,,,FALSE,CV,p,p,472,TRUE,1
CVOE_B,2,1,2,102,H 29,,,FALSE,CV,q,q,557,TRUE,1
CVOE_B,2,1,2,103,E 83,,,TRUE,CV,p,p,502,TRUE,1
CVOE_B,2,1,2,104,D 43,,,FALSE,CV,q,q,548,TRUE,1
CVOE_B,2,1,2,105,P 45,,,TRUE,CV,q,q,634,TRUE,1
CVOE_B,2,1,2,106,J 17,,,TRUE,CV,q,q,481,TRUE,1
CVOE_B,2,1,3,11,U 38,Number,N,TRUE,OE,p,p,1772,TRUE,1
CVOE_B,2,1,3,12,P 73,Number,N,TRUE,OE,q,q,935,TRUE,1
CVOE_B,2,1,3,13,U 95,Letter,Y,FALSE,CV,p,p,1003,TRUE,1
CVOE_B,2,1,3,14,J 61,Number,Y,TRUE,OE,q,p,988,FALSE,0
CVOE_B,2,1,3,15,D 51,Number,N,TRUE,OE,q,p,1058,FALSE,0
CVOE_B,2,1,3,16,S 28,Number,N,FALSE,OE,p,q,981,FALSE,0
CVOE_B,2,1,3,17,A 56,Letter,Y,TRUE,CV,p,q,1755,FALSE,0
CVOE_B,2,1,3,18,H 78,Letter,N,FALSE,CV,q,q,908,TRUE,1
CVOE_B,2,1,3,19,P 92,Letter,N,FALSE,CV,q,q,866,TRUE,1
CVOE_B,2,1,3,20,E 05,Number,Y,FALSE,OE,q,p,999,FALSE,0
CVOE_B,2,1,3,21,P 57,Letter,Y,TRUE,CV,q,p,872,FALSE,0
CVOE_B,2,1,3,22,D 88,Number,Y,FALSE,OE,p,p,878,TRUE,1
CVOE_B,2,1,3,23,O 89,Letter,Y,FALSE,CV,q,p,862,FALSE,0
CVOE_B,2,1,3,24,U 43,Number,Y,FALSE,OE,q,q,1420,TRUE,1
CVOE_B,2,1,3,25,H 10,Number,N,FALSE,OE,p,q,2434,FALSE,0
CVOE_B,2,1,3,26,S 07,Letter,Y,TRUE,CV,q,q,987,TRUE,1
CVOE_B,2,1,3,27,J 10,Letter,N,FALSE,CV,q,p,721,FALSE,0
CVOE_B,2,1,3,28,H 54,Number,Y,FALSE,OE,p,q,930,FALSE,0
CVOE_B,2,1,3,29,E 99,Number,N,FALSE,OE,q,q,845,TRUE,1
CVOE_B,2,1,3,30,J 36,Letter,Y,FALSE,CV,q,p,1182,FALSE,0
CVOE_B,2,1,3,31,I 94,Letter,N,TRUE,CV,p,p,756,TRUE,1
CVOE_B,2,1,3,32,A 82,Letter,N,TRUE,CV,p,q,876,FALSE,0
CVOE_B,2,1,3,33,H 79,Number,Y,TRUE,OE,q,q,925,TRUE,1
CVOE_B,2,1,3,34,J 60,Number,N,FALSE,OE,p,p,901,TRUE,1
CVOE_B,2,1,3,35,S 28,Letter,Y,FALSE,CV,q,p,714,FALSE,0
CVOE_B,2,1,3,36,P 11,Number,Y,TRUE,OE,q,q,1555,TRUE,1
CVOE_B,2,1,3,37,D 39,Number,N,TRUE,OE,q,p,1004,FALSE,0
CVOE_B,2,1,3,38,E 90,Number,N,TRUE,OE,p,q,877,FALSE,0
CVOE_B,2,1,3,39,I 38,Number,N,TRUE,OE,p,q,1757,FALSE,0
CVOE_B,2,1,3,40,S 35,Letter,Y,TRUE,CV,q,p,878,FALSE,0
CVOE_B,2,1,3,41,D 41,Number,Y,TRUE,OE,q,p,1487,FALSE,0
CVOE_B,2,1,3,42,E 06,Number,N,TRUE,OE,p,p,1050,TRUE,1
CVOE_B,2,1,3,43,A 27,Number,N,FALSE,OE,q,p,861,FALSE,0
CVOE_B,2,1,3,44,U 95,Letter,Y,FALSE,CV,p,q,1291,FALSE,0
CVOE_B,2,1,3,45,A 53,Letter,N,FALSE,CV,p,p,1055,TRUE,1
CVOE_B,2,1,3,46,E 43,Letter,N,FALSE,CV,p,p,2042,TRUE,1
CVOE_B,2,1,3,47,P 05,Number,Y,TRUE,OE,q,p,1035,FALSE,0
CVOE_B,2,1,3,48,O 19,Letter,Y,FALSE,CV,p,q,2716,FALSE,0
CVOE_B,2,1,3,49,I 96,Number,Y,TRUE,OE,p,p,1229,TRUE,1
CVOE_B,2,1,3,50,A 88,Number,N,TRUE,OE,p,q,1267,FALSE,0
CVOE_B,2,1,3,51,I 67,Number,N,FALSE,OE,q,p,953,FALSE,0
CVOE_B,2,1,3,52,D 40,Number,N,FALSE,OE,p,q,1318,FALSE,0
CVOE_B,2,1,3,53,P 79,Letter,Y,TRUE,CV,q,p,1151,FALSE,0
CVOE_B,2,1,3,54,U 24,Number,Y,TRUE,OE,p,q,885,FALSE,0
CVOE_B,2,1,3,55,P 74,Number,N,FALSE,OE,p,p,766,TRUE,1
CVOE_B,2,1,3,56,E 70,Number,N,TRUE,OE,p,q,758,FALSE,0
CVOE_B,2,1,3,57,S 27,Number,N,TRUE,OE,q,q,887,TRUE,1
CVOE_B,2,1,3,58,E 54,Letter,Y,TRUE,CV,p,p,863,TRUE,1
CVOE_B,2,1,3,59,A 53,Letter,N,FALSE,CV,p,q,733,FALSE,0
CVOE_B,2,1,3,60,P 34,Letter,N,FALSE,CV,q,p,648,FALSE,0
CVOE_B,2,1,3,61,D 74,Number,Y,FALSE,OE,p,q,1524,FALSE,0
CVOE_B,2,1,3,62,A 03,Letter,Y,FALSE,CV,p,q,1460,FALSE,0
CVOE_B,2,1,3,63,E 24,Number,Y,TRUE,OE,p,p,1146,TRUE,1
CVOE_B,2,1,3,64,I 58,Letter,Y,TRUE,CV,p,q,976,FALSE,0
CVOE_B,2,1,3,65,D 77,Number,Y,TRUE,OE,q,q,1260,TRUE,1
CVOE_B,2,1,3,66,S 75,Number,N,TRUE,OE,q,q,919,TRUE,1
CVOE_B,2,1,3,67,I 20,Letter,Y,TRUE,CV,p,p,1503,TRUE,1
CVOE_B,2,1,3,68,J 52,Letter,N,FALSE,CV,q,q,1582,TRUE,1
CVOE_B,2,1,3,69,A 38,Number,Y,TRUE,OE,p,p,1308,TRUE,1
CVOE_B,2,1,3,70,I 60,Letter,Y,TRUE,CV,p,p,1138,TRUE,1
CVOE_B,2,1,3,71,S 51,Number,Y,TRUE,OE,q,p,909,FALSE,0
CVOE_B,2,1,3,72,D 63,Letter,Y,TRUE,CV,q,q,787,TRUE,1
CVOE_B,2,1,3,73,U 27,Letter,N,FALSE,CV,p,q,793,FALSE,0
CVOE_B,2,1,3,74,J 77,Letter,N,TRUE,CV,q,p,679,FALSE,0
CVOE_B,2,1,3,75,O 15,Number,Y,FALSE,OE,q,p,1063,FALSE,0
CVOE_B,2,1,3,76,J 20,Letter,Y,FALSE,CV,q,q,869,TRUE,1
CVOE_B,2,1,3,77,U 97,Number,Y,FALSE,OE,q,p,843,FALSE,0
CVOE_B,2,1,3,78,H 03,Number,N,TRUE,OE,q,q,907,TRUE,1
CVOE_B,2,1,3,79,O 04,Letter,Y,TRUE,CV,p,q,1073,FALSE,0
CVOE_B,2,1,3,80,E 10,Letter,N,TRUE,CV,p,p,855,TRUE,1
CVOE_B,2,1,3,81,I 52,Letter,N,TRUE,CV,p,p,650,TRUE,1
CVOE_B,2,1,3,82,H 81,Number,Y,TRUE,OE,q,q,1013,TRUE,1
CVOE_B,2,1,3,83,I 41,Number,N,FALSE,OE,q,p,1233,FALSE,0
CVOE_B,2,1,3,84,U 19,Letter,Y,FALSE,CV,p,q,903,FALSE,0
CVOE_B,2,1,3,85,O 17,Number,Y,FALSE,OE,q,p,965,FALSE,0
CVOE_B,2,1,3,86,A 10,Number,N,TRUE,OE,p,p,749,TRUE,1
CVOE_B,2,1,3,87,P 93,Letter,Y,TRUE,CV,q,p,723,FALSE,0
CVOE_B,2,1,3,88,E 59,Letter,N,FALSE,CV,p,q,1259,FALSE,0
CVOE_B,2,1,3,89,O 53,Letter,N,FALSE,CV,p,p,751,TRUE,1
CVOE_B,2,1,3,90,A 96,Letter,N,TRUE,CV,p,q,957,FALSE,0
CVOE_B,2,1,3,91,H 36,Letter,Y,FALSE,CV,q,p,733,FALSE,0
CVOE_B,2,1,3,92,A 63,Letter,N,FALSE,CV,p,q,736,FALSE,0
CVOE_B,2,1,3,93,I 38,Letter,N,TRUE,CV,p,q,891,FALSE,0
CVOE_B,2,1,3,94,O 51,Number,Y,FALSE,OE,q,q,1183,TRUE,1
CVOE_B,2,1,3,95,J 26,Number,N,FALSE,OE,p,p,965,TRUE,1
CVOE_B,2,1,3,96,S 34,Letter,Y,FALSE,CV,q,q,645,TRUE,1
CVOE_B,2,1,3,97,U 85,Number,Y,FALSE,OE,q,p,1198,FALSE,0
CVOE_B,2,1,3,98,J 77,Number,N,TRUE,OE,q,q,998,TRUE,1
CVOE_B,2,1,3,99,I 73,Letter,Y,FALSE,CV,p,q,767,FALSE,0
CVOE_B,2,1,3,100,H 46,Number,Y,FALSE,OE,p,p,1410,TRUE,1
CVOE_B,2,1,3,101,D 04,Number,N,FALSE,OE,p,p,1461,TRUE,1
CVOE_B,2,1,3,102,P 72,Letter,Y,FALSE,CV,q,q,852,TRUE,1
CVOE_B,2,1,3,103,D 99,Number,Y,TRUE,OE,q,p,1391,FALSE,0
CVOE_B,2,1,3,104,U 25,Letter,Y,FALSE,CV,p,q,805,FALSE,0
CVOE_B,2,1,3,105,O 32,Letter,N,TRUE,CV,p,q,1397,FALSE,0
CVOE_B,2,1,3,106,E 80,Letter,N,TRUE,CV,p,q,806,FALSE,0
CVOE_B,2,1,3,107,O 84,Number,Y,TRUE,OE,q,p,774,FALSE,0
CVOE_B,2,1,3,108,A 78,Number,N,TRUE,OE,p,q,1098,FALSE,0
CVOE_B,2,1,3,109,S 05,Number,N,TRUE,OE,q,p,997,FALSE,0
CVOE_B,2,1,3,110,U 35,Letter,Y,FALSE,CV,p,p,998,TRUE,1
CVOE_B,2,1,3,111,H 14,Letter,N,FALSE,CV,q,p,1094,FALSE,0
CVOE_B,2,1,3,112,U 15,Number,Y,FALSE,OE,q,q,1257,TRUE,1
CVOE_B,2,1,3,113,E 36,Letter,Y,TRUE,CV,p,p,853,TRUE,1
CVOE_B,2,1,3,114,P 70,Letter,N,FALSE,CV,q,p,776,FALSE,0
CVOE_B,2,1,3,115,O 44,Number,Y,TRUE,OE,q,p,819,FALSE,0
CVOE_B,2,1,3,116,S 41,Letter,Y,TRUE,CV,q,q,1118,TRUE,1
CVOE_B,2,1,3,117,D 83,Letter,N,TRUE,CV,q,p,807,FALSE,0
CVOE_B,2,1,3,118,J 39,Letter,N,TRUE,CV,q,p,658,FALSE,0
CVOE_B,2,1,3,119,S 22,Number,Y,FALSE,OE,p,q,1189,FALSE,0
CVOE_B,2,1,3,120,D 89,Letter,Y,TRUE,CV,q,p,659,FALSE,0
CVOE_B,2,1,3,121,P 87,Letter,N,TRUE,CV,q,q,798,TRUE,1
CVOE_B,2,1,3,122,H 42,Letter,N,FALSE,CV,q,p,639,FALSE,0
CVOE_B,2,1,3,123,S 49,Letter,N,TRUE,CV,q,p,559,FALSE,0
CVOE_B,2,1,3,124,J 20,Number,Y,FALSE,OE,p,q,1016,FALSE,0
CVOE_B,2,1,3,125,O 19,Letter,Y,FALSE,CV,p,q,1395,FALSE,0
CVOE_B,2,1,3,126,H 50,Letter,N,FALSE,CV,q,p,772,FALSE,0
CVOE_B,2,1,3,127,I 68,Number,Y,TRUE,OE,p,p,911,TRUE,1
CVOE_B,2,1,3,128,J 72,Number,N,FALSE,OE,p,q,1013,FALSE,0
CVOE_B,2,1,3,129,O 21,Number,N,FALSE,OE,q,q,816,TRUE,1
CVOE_B,2,1,3,130,H 22,Number,N,FALSE,OE,p,p,779,TRUE,1
CVOE_B,2,1,4,1,A 44,Letter,N,TRUE,CV,p,p,1479,TRUE,1
CVOE_B,2,1,4,2,D 94,Letter,N,FALSE,CV,q,q,847,TRUE,1
CVOE_B,2,1,4,3,E 75,Number,Y,FALSE,OE,q,p,1059,FALSE,0
CVOE_B,2,1,4,4,H 81,Number,N,TRUE,OE,q,q,870,TRUE,1
CVOE_B,2,1,4,5,I 64,Letter,Y,TRUE,CV,p,q,1044,FALSE,0
CVOE_B,2,1,4,6,J 54,Letter,N,FALSE,CV,q,p,668,FALSE,0
CVOE_B,2,1,4,7,O 23,Number,Y,FALSE,OE,q,p,946,FALSE,0
CVOE_B,2,1,4,8,P 05,Number,N,TRUE,OE,q,q,1184,TRUE,1
CVOE_B,2,1,4,9,S 34,Letter,Y,FALSE,CV,q,q,1086,TRUE,1
CVOE_B,2,1,4,10,U 88,Letter,N,TRUE,CV,p,q,1055,FALSE,0
CVOE_B,2,1,4,11,A 70,Number,Y,TRUE,OE,p,q,1346,FALSE,0
CVOE_B,2,1,4,12,D 12,Number,N,FALSE,OE,p,p,1064,TRUE,1
CVOE_B,2,1,4,13,E 79,Letter,Y,FALSE,CV,p,p,990,TRUE,1
CVOE_B,2,1,4,14,H 72,Letter,N,FALSE,CV,q,q,860,TRUE,1
CVOE_B,2,1,4,15,I 41,Number,Y,FALSE,OE,q,p,1143,FALSE,0
CVOE_B,2,1,4,16,J 63,Number,N,TRUE,OE,q,q,1957,TRUE,1
CVOE_B,2,1,4,17,O 03,Letter,Y,FALSE,CV,p,q,838,FALSE,0
CVOE_B,2,1,4,18,P 75,Letter,N,TRUE,CV,q,p,886,FALSE,0
CVOE_B,2,1,4,19,S 61,Number,Y,TRUE,OE,q,q,959,TRUE,1
CVOE_B,2,1,4,20,U 28,Number,N,TRUE,OE,p,q,888,FALSE,0
CVOE_B,2,1,4,21,A 21,Letter,Y,FALSE,CV,p,p,723,TRUE,1
CVOE_B,2,1,4,22,D 18,Letter,N,FALSE,CV,p,p,1411,TRUE,1
CVOE_B,2,1,4,23,E 35,Number,Y,FALSE,OE,q,q,1055,TRUE,1
CVOE_B,2,1,4,24,H 62,Number,N,FALSE,OE,p,p,738,TRUE,1
CVOE_B,2,1,4,25,I 82,Letter,Y,TRUE,CV,p,q,901,FALSE,0
CVOE_B,2,1,4,26,J 78,Letter,N,FALSE,CV,q,q,1107,TRUE,1
CVOE_B,2,1,4,27,O 12,Number,Y,TRUE,OE,p,q,865,FALSE,0
CVOE_B,2,1,4,28,P 13,Number,N,TRUE,OE,q,p,791,FALSE,0
CVOE_B,2,1,4,29,S 07,Letter,Y,TRUE,CV,q,p,1077,FALSE,0
CVOE_B,2,1,4,30,U 36,Letter,N,TRUE,CV,p,q,693,FALSE,0
CVOE_B,2,1,4,31,A 96,Number,Y,TRUE,OE,p,q,808,FALSE,0
CVOE_B,2,1,4,32,D 04,Number,N,FALSE,OE,p,p,715,TRUE,1
CVOE_B,2,1,4,33,E 60,Letter,Y,TRUE,CV,p,q,820,FALSE,0
CVOE_B,2,1,4,34,H 83,Letter,N,TRUE,CV,q,p,727,FALSE,0
CVOE_B,2,1,4,35,I 64,Number,Y,TRUE,OE,p,p,698,TRUE,1
CVOE_B,2,1,4,36,J 76,Number,N,FALSE,OE,p,p,965,TRUE,1
CVOE_B,2,1,4,37,O 78,Letter,Y,TRUE,CV,p,q,830,FALSE,0
CVOE_B,2,1,4,38,P 09,Letter,N,TRUE,CV,q,p,708,FALSE,0
CVOE_B,2,1,4,39,S 72,Number,Y,FALSE,OE,p,p,706,TRUE,1
CVOE_B,2,1,4,40,U 47,Number,N,FALSE,OE,q,p,695,FALSE,0
CVOE_B,2,1,4,41,A 31,Letter,Y,FALSE,CV,p,q,826,FALSE,0
CVOE_B,2,1,4,42,D 96,Letter,N,FALSE,CV,q,p,704,FALSE,0
CVOE_B,2,1,4,43,E 40,Number,Y,TRUE,OE,p,q,926,FALSE,0
CVOE_B,2,1,4,44,H 79,Number,N,TRUE,OE,q,p,903,FALSE,0
CVOE_B,2,1,4,45,I 15,Letter,Y,FALSE,CV,p,p,781,TRUE,1
CVOE_B,2,1,4,46,J 07,Letter,N,TRUE,CV,q,p,1066,FALSE,0
CVOE_B,2,1,4,47,O 61,Number,Y,FALSE,OE,q,q,832,TRUE,1
CVOE_B,2,1,4,48,P 58,Number,N,FALSE,OE,p,p,1326,TRUE,1
CVOE_B,2,1,4,49,S 37,Letter,Y,TRUE,CV,q,p,879,FALSE,0
CVOE_B,2,1,4,50,U 61,Letter,N,FALSE,CV,p,q,1191,FALSE,0
CVOE_B,2,1,4,51,A 17,Number,Y,FALSE,OE,q,p,1277,FALSE,0
CVOE_B,2,1,4,52,D 85,Number,N,TRUE,OE,q,p,902,FALSE,0
CVOE_B,2,1,4,53,E 20,Letter,Y,TRUE,CV,p,p,1588,TRUE,1
CVOE_B,2,1,4,54,H 86,Letter,N,FALSE,CV,q,p,698,FALSE,0
CVOE_B,2,1,4,55,I 21,Number,Y,FALSE,OE,q,q,877,TRUE,1
CVOE_B,2,1,4,56,J 29,Number,N,TRUE,OE,q,q,950,TRUE,1
CVOE_B,2,1,4,57,O 13,Letter,Y,FALSE,CV,p,p,788,TRUE,1
CVOE_B,2,1,4,58,P 82,Letter,N,FALSE,CV,q,q,729,TRUE,1
CVOE_B,2,1,4,59,S 72,Number,Y,FALSE,OE,p,p,869,TRUE,1
CVOE_B,2,1,4,60,U 84,Number,N,TRUE,OE,p,p,722,TRUE,1
CVOE_B,2,1,4,61,A 49,Letter,Y,FALSE,CV,q,q,827,TRUE,1
CVOE_B,2,1,4,62,D 91,Letter,N,TRUE,CV,q,q,1017,TRUE,1
CVOE_B,2,1,4,63,E 99,Number,Y,FALSE,OE,q,p,1004,FALSE,0
CVOE_B,2,1,4,64,H 16,Number,N,FALSE,OE,p,q,997,FALSE,0
CVOE_B,2,1,4,65,I 45,Letter,Y,FALSE,CV,p,q,877,FALSE,0
CVOE_B,2,1,4,66,J 70,Letter,N,FALSE,CV,q,q,814,TRUE,1
CVOE_B,2,1,4,67,O 22,Number,Y,TRUE,OE,p,q,953,FALSE,0
CVOE_B,2,1,4,68,P 41,Number,N,TRUE,OE,q,q,999,TRUE,1
CVOE_B,2,1,4,69,S 93,Letter,Y,TRUE,CV,q,p,695,FALSE,0
CVOE_B,2,1,4,70,U 70,Letter,N,TRUE,CV,p,p,763,TRUE,1
CVOE_B,2,1,4,71,A 42,Number,Y,TRUE,OE,p,p,1003,TRUE,1
CVOE_B,2,1,4,72,D 85,Number,N,TRUE,OE,q,q,756,TRUE,1
CVOE_B,2,1,4,73,E 68,Letter,Y,TRUE,CV,p,q,780,FALSE,0
CVOE_B,2,1,4,74,H 17,Letter,N,TRUE,CV,q,p,775,FALSE,0
CVOE_B,2,1,4,75,I 70,Number,Y,TRUE,OE,p,q,874,FALSE,0
CVOE_B,2,1,4,76,J 88,Number,N,FALSE,OE,p,p,1299,TRUE,1
CVOE_B,2,1,4,77,O 32,Letter,Y,TRUE,CV,p,q,1118,FALSE,0
CVOE_B,2,1,4,78,P 95,Letter,N,TRUE,CV,q,p,855,FALSE,0
CVOE_B,2,1,4,79,S 98,Number,Y,FALSE,OE,p,p,714,TRUE,1
CVOE_B,2,1,4,80,U 37,Number,N,FALSE,OE,q,p,859,FALSE,0
CVOE_B,2,1,4,81,A 56,Letter,Y,TRUE,CV,p,q,870,FALSE,0
CVOE_B,2,1,4,82,D 57,Letter,N,TRUE,CV,q,p,900,FALSE,0
CVOE_B,2,1,4,83,E 93,Number,Y,FALSE,OE,q,p,887,FALSE,0
CVOE_B,2,1,4,84,H 27,Number,N,TRUE,OE,q,q,754,TRUE,1
CVOE_B,2,1,4,85,I 35,Letter,Y,FALSE,CV,p,p,1235,TRUE,1
CVOE_B,2,1,4,86,J 03,Letter,N,TRUE,CV,q,q,771,TRUE,1
CVOE_B,2,1,4,87,O 28,Number,Y,TRUE,OE,p,q,718,FALSE,0
CVOE_B,2,1,4,88,P 59,Number,N,TRUE,OE,q,q,847,TRUE,1
CVOE_B,2,1,4,89,S 77,Letter,Y,TRUE,CV,q,p,706,FALSE,0
CVOE_B,2,1,4,90,U 05,Letter,N,FALSE,CV,p,p,1008,TRUE,1
CVOE_B,2,1,4,91,A 56,Number,Y,TRUE,OE,p,p,891,TRUE,1
CVOE_B,2,1,4,92,D 01,Number,N,TRUE,OE,q,q,750,TRUE,1
CVOE_B,2,1,4,93,E 02,Letter,Y,TRUE,CV,p,q,1164,FALSE,0
CVOE_B,2,1,4,94,H 68,Letter,N,FALSE,CV,q,p,957,FALSE,0
CVOE_B,2,1,4,95,I 05,Number,Y,FALSE,OE,q,p,1213,FALSE,0
CVOE_B,2,1,4,96,J 55,Number,N,TRUE,OE,p,p,1001,TRUE,1
CVOE_B,2,1,4,97,O 73,Letter,Y,FALSE,CV,p,p,1137,TRUE,1
CVOE_B,2,1,4,98,P 41,Letter,N,TRUE,CV,q,p,852,FALSE,0
CVOE_B,2,1,4,99,S 92,Number,Y,FALSE,OE,p,q,712,FALSE,0
CVOE_B,2,1,4,100,U 34,Number,N,TRUE,OE,p,p,701,TRUE,1
CVOE_B,2,1,4,101,A 09,Letter,Y,FALSE,CV,p,q,739,FALSE,0
CVOE_B,2,1,4,102,D 92,Letter,N,FALSE,CV,q,q,734,TRUE,1
CVOE_B,2,1,4,103,E 48,Number,Y,TRUE,OE,p,p,794,TRUE,1
CVOE_B,2,1,4,104,H 76,Number,N,FALSE,OE,p,q,695,FALSE,0
CVOE_B,2,1,4,105,I 44,Letter,Y,TRUE,CV,p,p,875,TRUE,1
CVOE_B,2,1,4,106,J 67,Letter,N,TRUE,CV,q,q,1187,TRUE,1
CVOE_B,2,1,4,107,O 48,Number,Y,TRUE,OE,p,q,777,FALSE,0
CVOE_B,2,1,4,108,P 22,Number,N,FALSE,OE,p,q,3868,FALSE,0
CVOE_B,2,1,4,109,S 86,Letter,Y,FALSE,CV,p,p,955,TRUE,1
CVOE_B,2,1,4,110,U 35,Letter,N,FALSE,CV,p,q,964,FALSE,0
CVOE_B,2,1,4,111,A 91,Number,Y,FALSE,OE,q,q,932,TRUE,1
CVOE_B,2,1,4,112,D 78,Number,N,FALSE,OE,p,q,760,FALSE,0
CVOE_B,2,1,4,113,E 91,Letter,Y,FALSE,CV,p,q,1096,FALSE,0
CVOE_B,2,1,4,114,H 54,Letter,N,FALSE,CV,q,p,819,FALSE,0
CVOE_B,2,1,4,115,I 65,Number,Y,FALSE,OE,q,p,822,FALSE,0
CVOE_B,2,1,4,116,J 52,Number,N,FALSE,OE,p,q,836,FALSE,0
CVOE_B,2,1,4,117,O 19,Letter,Y,FALSE,CV,p,p,1053,TRUE,1
CVOE_B,2,1,4,118,P 48,Letter,N,FALSE,CV,q,p,704,FALSE,0
CVOE_B,2,1,4,119,S 45,Number,Y,TRUE,OE,q,q,774,TRUE,1
CVOE_B,2,1,4,120,U 26,Number,N,TRUE,OE,p,p,833,TRUE,1
CVOE_C,3,1,1,11,A 24,,,TRUE,OE,p,p,1301,TRUE,1
CVOE_C,3,1,1,12,O 83,,,FALSE,OE,q,q,603,TRUE,1
CVOE_C,3,1,1,13,H 55,,,TRUE,OE,q,q,572,TRUE,1
CVOE_C,3,1,1,14,P 10,,,FALSE,OE,p,p,767,TRUE,1
CVOE_C,3,1,1,15,D 30,,,FALSE,OE,p,p,498,TRUE,1
CVOE_C,3,1,1,16,U 62,,,TRUE,OE,p,p,525,TRUE,1
CVOE_C,3,1,1,17,P 95,,,TRUE,OE,q,q,541,TRUE,1
CVOE_C,3,1,1,18,U 06,,,TRUE,OE,p,p,571,TRUE,1
CVOE_C,3,1,1,19,E 75,,,FALSE,OE,q,q,1894,TRUE,1
CVOE_C,3,1,1,20,I 67,,,FALSE,OE,q,q,2546,TRUE,1
CVOE_C,3,1,1,21,S 13,,,TRUE,OE,q,q,552,TRUE,1
CVOE_C,3,1,1,22,P 78,,,FALSE,OE,p,p,710,TRUE,1
CVOE_C,3,1,1,23,I 15,,,FALSE,OE,q,q,732,TRUE,1
CVOE_C,3,1,1,24,D 27,,,TRUE,OE,q,q,2687,TRUE,1
CVOE_C,3,1,1,25,O 94,,,TRUE,OE,p,p,691,TRUE,1
CVOE_C,3,1,1,26,A 65,,,FALSE,OE,q,q,606,TRUE,1
CVOE_C,3,1,1,27,I 42,,,TRUE,OE,p,p,694,TRUE,1
CVOE_C,3,1,1,28,E 25,,,FALSE,OE,q,q,729,TRUE,1
CVOE_C,3,1,1,29,H 49,,,TRUE,OE,q,q,621,TRUE,1
CVOE_C,3,1,1,30,S 18,,,FALSE,OE,p,p,650,TRUE,1
CVOE_C,3,1,1,31,H 51,,,TRUE,OE,q,q,637,TRUE,1
CVOE_C,3,1,1,32,U 14,,,TRUE,OE,p,p,830,TRUE,1
CVOE_C,3,1,1,33,E 02,,,TRUE,OE,p,p,556,TRUE,1
CVOE_C,3,1,1,34,J 26,,,FALSE,OE,p,p,748,TRUE,1
CVOE_C,3,1,1,35,D 24,,,FALSE,OE,p,p,458,TRUE,1
CVOE_C,3,1,1,36,O 50,,,TRUE,OE,p,p,501,TRUE,1
CVOE_C,3,1,1,37,U 16,,,TRUE,OE,p,p,539,TRUE,1
CVOE_C,3,1,1,38,O 15,,,FALSE,OE,q,q,574,TRUE,1
CVOE_C,3,1,1,39,D 32,,,FALSE,OE,p,p,457,TRUE,1
CVOE_C,3,1,1,40,S 67,,,TRUE,OE,q,q,532,TRUE,1
CVOE_C,3,1,1,41,J 74,,,FALSE,OE,p,p,631,TRUE,1
CVOE_C,3,1,1,42,D 92,,,FALSE,OE,p,p,693,TRUE,1
CVOE_C,3,1,1,43,A 65,,,FALSE,OE,q,q,864,TRUE,1
CVOE_C,3,1,1,44,I 87,,,FALSE,OE,q,q,1398,TRUE,1
CVOE_C,3,1,1,45,H 61,,,TRUE,OE,q,q,622,TRUE,1
CVOE_C,3,1,1,46,E 59,,,FALSE,OE,q,q,548,TRUE,1
CVOE_C,3,1,1,47,I 33,,,FALSE,OE,q,q,402,TRUE,1
CVOE_C,3,1,1,48,O 90,,,TRUE,OE,p,p,498,TRUE,1
CVOE_C,3,1,1,49,U 51,,,FALSE,OE,q,q,557,TRUE,1
CVOE_C,3,1,1,50,A 10,,,TRUE,OE,p,p,830,TRUE,1
CVOE_C,3,1,1,51,E 50,,,TRUE,OE,p,p,540,TRUE,1
CVOE_C,3,1,1,52,D 92,,,FALSE,OE,p,p,551,TRUE,1
CVOE_C,3,1,1,53,E 60,,,TRUE,OE,p,p,428,TRUE,1
CVOE_C,3,1,1,54,A 95,,,FALSE,OE,q,q,610,TRUE,1
CVOE_C,3,1,1,55,E 64,,,TRUE,OE,q,p,733,FALSE,0
CVOE_C,3,1,1,56,P 20,,,FALSE,OE,p,p,672,TRUE,1
CVOE_C,3,1,1,57,S 06,,,FALSE,OE,p,p,574,TRUE,1
CVOE_C,3,1,1,58,P 64,,,FALSE,OE,p,p,489,TRUE,1
CVOE_C,3,1,1,59,U 70,,,TRUE,OE,p,p,452,TRUE,1
CVOE_C,3,1,1,60,S 16,,,FALSE,OE,p,p,551,TRUE,1
CVOE_C,3,1,1,61,E 35,,,FALSE,OE,q,q,605,TRUE,1
CVOE_C,3,1,1,62,I 93,,,FALSE,OE,q,q,861,TRUE,1
CVOE_C,3,1,1,63,D 63,,,TRUE,OE,q,q,659,TRUE,1
CVOE_C,3,1,1,64,U 89,,,FALSE,OE,q,q,734,TRUE,1
CVOE_C,3,1,1,65,E 91,,,FALSE,OE,p,q,770,FALSE,0
CVOE_C,3,1,1,66,A 12,,,TRUE,OE,p,p,917,TRUE,1
CVOE_C,3,1,1,67,P 56,,,FALSE,OE,p,p,517,TRUE,1
CVOE_C,3,1,1,68,S 65,,,TRUE,OE,q,q,566,TRUE,1
CVOE_C,3,1,1,69,P 07,,,TRUE,OE,q,q,782,TRUE,1
CVOE_C,3,1,1,70,I 77,,,FALSE,OE,q,q,524,TRUE,1
CVOE_C,3,1,1,71,J 19,,,TRUE,OE,q,q,532,TRUE,1
CVOE_C,3,1,1,72,O 59,,,FALSE,OE,q,q,463,TRUE,1
CVOE_C,3,1,1,73,J 15,,,TRUE,OE,q,q,637,TRUE,1
CVOE_C,3,1,1,74,I 89,,,FALSE,OE,q,q,438,TRUE,1
CVOE_C,3,1,1,75,O 97,,,FALSE,OE,q,q,382,TRUE,1
CVOE_C,3,1,1,76,A 92,,,TRUE,OE,p,p,540,TRUE,1
CVOE_C,3,1,1,77,J 90,,,FALSE,OE,p,p,377,TRUE,1
CVOE_C,3,1,1,78,H 65,,,TRUE,OE,q,q,508,TRUE,1
CVOE_C,3,1,1,79,H 17,,,TRUE,OE,q,q,586,TRUE,1
CVOE_C,3,1,1,80,S 26,,,FALSE,OE,p,p,592,TRUE,1
CVOE_C,3,1,1,81,D 56,,,FALSE,OE,p,p,470,TRUE,1
CVOE_C,3,1,1,82,I 91,,,FALSE,OE,q,q,539,TRUE,1
CVOE_C,3,1,1,83,J 11,,,TRUE,OE,q,q,542,TRUE,1
CVOE_C,3,1,1,84,O 28,,,TRUE,OE,p,p,564,TRUE,1
CVOE_C,3,1,1,85,H 29,,,TRUE,OE,q,q,788,TRUE,1
CVOE_C,3,1,1,86,J 25,,,TRUE,OE,q,q,338,TRUE,1
CVOE_C,3,1,1,87,A 73,,,FALSE,OE,q,q,509,TRUE,1
CVOE_C,3,1,1,88,J 63,,,TRUE,OE,q,q,451,TRUE,1
CVOE_C,3,1,1,89,U 84,,,TRUE,OE,p,p,558,TRUE,1
CVOE_C,3,1,1,90,A 58,,,TRUE,OE,p,p,574,TRUE,1
CVOE_C,3,1,1,91,S 43,,,TRUE,OE,q,q,698,TRUE,1
CVOE_C,3,1,1,92,H 54,,,FALSE,OE,p,p,525,TRUE,1
CVOE_C,3,1,1,93,D 4,,,FALSE,OE,p,p,597,TRUE,1
CVOE_C,3,1,1,94,J 75,,,TRUE,OE,q,q,1262,TRUE,1
CVOE_C,3,1,1,95,D 19,,,TRUE,OE,q,q,804,TRUE,1
CVOE_C,3,1,1,96,J 38,,,FALSE,OE,p,p,572,TRUE,1
CVOE_C,3,1,1,97,I 56,,,TRUE,OE,p,p,519,TRUE,1
CVOE_C,3,1,1,98,P 87,,,TRUE,OE,q,q,624,TRUE,1
CVOE_C,3,1,1,99,O 80,,,TRUE,OE,p,p,741,TRUE,1
CVOE_C,3,1,1,100,U 60,,,TRUE,OE,p,p,427,TRUE,1
CVOE_C,3,1,1,101,P 48,,,FALSE,OE,p,p,441,TRUE,1
CVOE_C,3,1,1,102,H 64,,,FALSE,OE,p,p,473,TRUE,1
CVOE_C,3,1,1,103,A 13,,,FALSE,OE,p,q,375,FALSE,0
CVOE_C,3,1,1,104,H 68,,,FALSE,OE,p,p,986,TRUE,1
CVOE_C,3,1,1,105,E 16,,,TRUE,OE,p,p,488,TRUE,1
CVOE_C,3,1,1,106,S 71,,,TRUE,OE,q,q,507,TRUE,1
CVOE_C,3,1,2,11,A 71,,,FALSE,CV,p,p,5876,TRUE,1
CVOE_C,3,1,2,12,I 66,,,TRUE,CV,p,p,678,TRUE,1
CVOE_C,3,1,2,13,S 30,,,FALSE,CV,q,q,743,TRUE,1
CVOE_C,3,1,2,14,D 20,,,FALSE,CV,q,q,765,TRUE,1
CVOE_C,3,1,2,15,I 31,,,FALSE,CV,p,p,533,TRUE,1
CVOE_C,3,1,2,16,P 16,,,FALSE,CV,q,q,568,TRUE,1
CVOE_C,3,1,2,17,A 49,,,FALSE,CV,p,p,643,TRUE,1
CVOE_C,3,1,2,18,O 64,,,TRUE,CV,p,p,524,TRUE,1
CVOE_C,3,1,2,19,D 02,,,FALSE,CV,q,q,532,TRUE,1
CVOE_C,3,1,2,20,P 81,,,TRUE,CV,q,q,871,TRUE,1
CVOE_C,3,1,2,21,J 58,,,FALSE,CV,q,q,797,TRUE,1
CVOE_C,3,1,2,22,A 22,,,TRUE,CV,p,p,557,TRUE,1
CVOE_C,3,1,2,23,J 72,,,FALSE,CV,q,q,678,TRUE,1
CVOE_C,3,1,2,24,P 91,,,TRUE,CV,q,q,454,TRUE,1
CVOE_C,3,1,2,25,E 19,,,FALSE,CV,p,p,513,TRUE,1
CVOE_C,3,1,2,26,I 30,,,TRUE,CV,p,p,482,TRUE,1
CVOE_C,3,1,2,27,D 91,,,TRUE,CV,q,q,378,TRUE,1
CVOE_C,3,1,2,28,O 48,,,TRUE,CV,p,p,589,TRUE,1
CVOE_C,3,1,2,29,A 89,,,FALSE,CV,p,p,531,TRUE,1
CVOE_C,3,1,2,30,U 11,,,FALSE,CV,q,p,382,FALSE,0
CVOE_C,3,1,2,31,I 76,,,TRUE,CV,p,p,684,TRUE,1
CVOE_C,3,1,2,32,U 89,,,FALSE,CV,p,p,380,TRUE,1
CVOE_C,3,1,2,33,D 63,,,TRUE,CV,q,q,562,TRUE,1
CVOE_C,3,1,2,34,H 70,,,FALSE,CV,q,q,874,TRUE,1
CVOE_C,3,1,2,35,D 48,,,FALSE,CV,q,q,475,TRUE,1
CVOE_C,3,1,2,36,P 56,,,FALSE,CV,q,q,475,TRUE,1
CVOE_C,3,1,2,37,O 77,,,FALSE,CV,p,p,643,TRUE,1
CVOE_C,3,1,2,38,P 42,,,FALSE,CV,q,q,804,TRUE,1
CVOE_C,3,1,2,39,H 22,,,FALSE,CV,q,q,484,TRUE,1
CVOE_C,3,1,2,40,E 42,,,TRUE,CV,p,p,485,TRUE,1
CVOE_C,3,1,2,41,J 28,,,FALSE,CV,q,q,389,TRUE,1
CVOE_C,3,1,2,42,E 95,,,FALSE,CV,q,p,491,FALSE,0
CVOE_C,3,1,2,43,S 63,,,TRUE,CV,q,q,814,TRUE,1
CVOE_C,3,1,2,44,H 50,,,FALSE,CV,q,q,521,TRUE,1
CVOE_C,3,1,2,45,S 33,,,TRUE,CV,q,q,985,TRUE,1
CVOE_C,3,1,2,46,P 57,,,TRUE,CV,q,q,543,TRUE,1
CVOE_C,3,1,2,47,E 23,,,FALSE,CV,p,p,901,TRUE,1
CVOE_C,3,1,2,48,S 61,,,TRUE,CV,q,q,763,TRUE,1
CVOE_C,3,1,2,49,U 67,,,FALSE,CV,p,p,771,TRUE,1
CVOE_C,3,1,2,50,H 32,,,FALSE,CV,q,q,607,TRUE,1
CVOE_C,3,1,2,51,U 50,,,TRUE,CV,p,p,498,TRUE,1
CVOE_C,3,1,2,52,O 49,,,FALSE,CV,p,p,469,TRUE,1
CVOE_C,3,1,2,53,U 32,,,TRUE,CV,p,p,434,TRUE,1
CVOE_C,3,1,2,54,J 78,,,FALSE,CV,q,q,667,TRUE,1
CVOE_C,3,1,2,55,S 54,,,FALSE,CV,q,q,849,TRUE,1
CVOE_C,3,1,2,56,J 27,,,TRUE,CV,q,q,612,TRUE,1
CVOE_C,3,1,2,57,S 06,,,FALSE,CV,q,q,759,TRUE,1
CVOE_C,3,1,2,58,D 67,,,TRUE,CV,q,q,1023,TRUE,1
CVOE_C,3,1,2,59,A 79,,,FALSE,CV,p,p,701,TRUE,1
CVOE_C,3,1,2,60,S 52,,,FALSE,CV,q,q,1147,TRUE,1
CVOE_C,3,1,2,61,U 16,,,TRUE,CV,p,p,593,TRUE,1
CVOE_C,3,1,2,62,O 82,,,TRUE,CV,p,p,434,TRUE,1
CVOE_C,3,1,2,63,H 87,,,TRUE,CV,q,q,474,TRUE,1
CVOE_C,3,1,2,64,I 32,,,TRUE,CV,p,p,586,TRUE,1
CVOE_C,3,1,2,65,U 37,,,FALSE,CV,p,p,496,TRUE,1
CVOE_C,3,1,2,66,I 42,,,TRUE,CV,p,p,483,TRUE,1
CVOE_C,3,1,2,67,D 65,,,TRUE,CV,q,q,603,TRUE,1
CVOE_C,3,1,2,68,U 77,,,FALSE,CV,p,p,604,TRUE,1
CVOE_C,3,1,2,69,E 12,,,TRUE,CV,p,p,492,TRUE,1
CVOE_C,3,1,2,70,I 60,,,TRUE,CV,p,p,383,TRUE,1
CVOE_C,3,1,2,71,J 36,,,FALSE,CV,q,q,541,TRUE,1
CVOE_C,3,1,2,72,H 75,,,TRUE,CV,q,q,555,TRUE,1
CVOE_C,3,1,2,73,I 50,,,TRUE,CV,p,p,459,TRUE,1
CVOE_C,3,1,2,74,E 99,,,FALSE,CV,q,p,446,FALSE,0
CVOE_C,3,1,2,75,A 86,,,TRUE,CV,p,p,519,TRUE,1
CVOE_C,3,1,2,76,U 48,,,TRUE,CV,p,p,367,TRUE,1
CVOE_C,3,1,2,77,E 01,,,FALSE,CV,p,p,370,TRUE,1
CVOE_C,3,1,2,78,A 78,,,TRUE,CV,p,p,1013,TRUE,1
CVOE_C,3,1,2,79,P 60,,,FALSE,CV,q,q,728,TRUE,1
CVOE_C,3,1,2,80,E 43,,,FALSE,CV,p,p,619,TRUE,1
CVOE_C,3,1,2,81,D 69,,,TRUE,CV,q,q,646,TRUE,1
CVOE_C,3,1,2,82,H 11,,,TRUE,CV,q,q,634,TRUE,1
CVOE_C,3,1,2,83,P 43,,,TRUE,CV,q,q,586,TRUE,1
CVOE_C,3,1,2,84,O 67,,,FALSE,CV,p,p,536,TRUE,1
CVOE_C,3,1,2,85,S 91,,,FALSE,CV,q,q,467,TRUE,1
CVOE_C,3,1,2,86,J 68,,,TRUE,CV,q,q,441,TRUE,1
CVOE_C,3,1,2,87,S 47,,,FALSE,CV,q,q,353,TRUE,1
CVOE_C,3,1,2,88,I 81,,,TRUE,CV,p,p,511,TRUE,1
CVOE_C,3,1,2,89,J 39,,,FALSE,CV,q,q,484,TRUE,1
CVOE_C,3,1,2,90,A 11,,,TRUE,CV,p,p,509,TRUE,1
CVOE_C,3,1,2,91,O 76,,,FALSE,CV,p,p,490,TRUE,1
CVOE_C,3,1,2,92,A 62,,,FALSE,CV,p,p,406,TRUE,1
CVOE_C,3,1,2,93,O 27,,,TRUE,CV,p,p,342,TRUE,1
CVOE_C,3,1,2,94,E 66,,,FALSE,CV,p,p,420,TRUE,1
CVOE_C,3,1,2,95,J 62,,,TRUE,CV,q,q,647,TRUE,1
CVOE_C,3,1,2,96,H 72,,,TRUE,CV,p,q,530,FALSE,0
CVOE_C,3,1,2,97,E 49,,,TRUE,CV,p,p,973,TRUE,1
CVOE_C,3,1,2,98,D 52,,,TRUE,CV,q,q,648,TRUE,1
CVOE_C,3,1,2,99,H 62,,,TRUE,CV,q,q,451,TRUE,1
CVOE_C,3,1,2,100,I 11,,,TRUE,CV,p,p,694,TRUE,1
CVOE_C,3,1,2,101,A 98,,,FALSE,CV,p,p,425,TRUE,1
CVOE_C,3,1,2,102,H 29,,,FALSE,CV,q,q,559,TRUE,1
CVOE_C,3,1,2,103,E 83,,,TRUE,CV,q,p,479,FALSE,0
CVOE_C,3,1,2,104,D 43,,,FALSE,CV,q,q,1089,TRUE,1
CVOE_C,3,1,2,105,P 45,,,TRUE,CV,q,q,555,TRUE,1
CVOE_C,3,1,2,106,J 17,,,TRUE,CV,q,q,459,TRUE,1
CVOE_C,3,1,3,11,A 44,Letter,N,TRUE,CV,p,p,4507,TRUE,1
CVOE_C,3,1,3,12,D 94,Letter,N,FALSE,CV,q,q,2017,TRUE,1
CVOE_C,3,1,3,13,E 75,Number,Y,FALSE,OE,q,p,1405,FALSE,0
CVOE_C,3,1,3,14,H 81,Number,N,TRUE,OE,q,p,1430,FALSE,0
CVOE_C,3,1,3,15,I 64,Letter,Y,TRUE,CV,p,p,1468,TRUE,1
CVOE_C,3,1,3,16,J 54,Letter,N,FALSE,CV,q,q,1298,TRUE,1
CVOE_C,3,1,3,17,O 23,Number,Y,FALSE,OE,q,q,1613,TRUE,1
CVOE_C,3,1,3,18,P 05,Number,N,TRUE,OE,p,q,1017,FALSE,0
CVOE_C,3,1,3,19,S 34,Letter,Y,FALSE,CV,q,q,1900,TRUE,1
CVOE_C,3,1,3,20,U 88,Letter,N,TRUE,CV,p,p,2090,TRUE,1
CVOE_C,3,1,3,21,A 70,Number,Y,TRUE,OE,p,p,2598,TRUE,1
CVOE_C,3,1,3,22,D 12,Number,N,FALSE,OE,p,p,1335,TRUE,1
CVOE_C,3,1,3,23,E 79,Letter,Y,FALSE,CV,p,p,1834,TRUE,1
CVOE_C,3,1,3,24,H 72,Letter,N,FALSE,CV,q,q,3035,TRUE,1
CVOE_C,3,1,3,25,I 41,Number,Y,FALSE,OE,q,q,1605,TRUE,1
CVOE_C,3,1,3,26,J 63,Number,N,TRUE,OE,q,q,1174,TRUE,1
CVOE_C,3,1,3,27,O 03,Letter,Y,FALSE,CV,p,p,2857,TRUE,1
CVOE_C,3,1,3,28,P 75,Letter,N,TRUE,CV,q,q,3125,TRUE,1
CVOE_C,3,1,3,29,S 61,Number,Y,TRUE,OE,q,q,1774,TRUE,1
CVOE_C,3,1,3,30,U 28,Number,N,TRUE,OE,p,p,1410,TRUE,1
CVOE_C,3,1,3,31,A 21,Letter,Y,FALSE,CV,p,p,949,TRUE,1
CVOE_C,3,1,3,32,D 18,Letter,N,FALSE,CV,q,q,4483,TRUE,1
CVOE_C,3,1,3,33,E 35,Number,Y,FALSE,OE,q,q,1237,TRUE,1
CVOE_C,3,1,3,34,H 62,Number,N,FALSE,OE,p,p,1005,TRUE,1
CVOE_C,3,1,3,35,I 82,Letter,Y,TRUE,CV,p,p,678,TRUE,1
CVOE_C,3,1,3,36,J 78,Letter,N,FALSE,CV,q,q,4118,TRUE,1
CVOE_C,3,1,3,37,O 12,Number,Y,TRUE,OE,p,p,2168,TRUE,1
CVOE_C,3,1,3,38,P 13,Number,N,TRUE,OE,q,q,972,TRUE,1
CVOE_C,3,1,3,39,S 07,Letter,Y,TRUE,CV,q,q,1519,TRUE,1
CVOE_C,3,1,3,40,U 36,Letter,N,TRUE,CV,p,p,2040,TRUE,1
CVOE_C,3,1,3,41,A 96,Number,Y,TRUE,OE,p,p,1601,TRUE,1
CVOE_C,3,1,3,42,D 04,Number,N,FALSE,OE,p,p,818,TRUE,1
CVOE_C,3,1,3,43,E 60,Letter,Y,TRUE,CV,q,p,677,FALSE,0
CVOE_C,3,1,3,44,H 83,Letter,N,TRUE,CV,q,q,2141,TRUE,1
CVOE_C,3,1,3,45,I 64,Number,Y,TRUE,OE,p,p,1564,TRUE,1
CVOE_C,3,1,3,46,J 76,Number,N,FALSE,OE,p,p,852,TRUE,1
CVOE_C,3,1,3,47,O 78,Letter,Y,TRUE,CV,p,p,1080,TRUE,1
CVOE_C,3,1,3,48,P 09,Letter,N,TRUE,CV,q,q,1872,TRUE,1
CVOE_C,3,1,3,49,S 72,Number,Y,FALSE,OE,q,p,671,FALSE,0
CVOE_C,3,1,3,50,U 47,Number,N,FALSE,OE,p,q,2060,FALSE,0
CVOE_C,3,1,3,51,A 31,Letter,Y,FALSE,CV,p,p,2331,TRUE,1
CVOE_C,3,1,3,52,D 96,Letter,N,FALSE,CV,q,q,1198,TRUE,1
CVOE_C,3,1,3,53,E 40,Number,Y,TRUE,OE,p,p,1063,TRUE,1
CVOE_C,3,1,3,54,H 79,Number,N,TRUE,OE,q,q,1237,TRUE,1
CVOE_C,3,1,3,55,I 15,Letter,Y,FALSE,CV,p,p,1118,TRUE,1
CVOE_C,3,1,3,56,J 07,Letter,N,TRUE,CV,q,q,2070,TRUE,1
CVOE_C,3,1,3,57,O 61,Number,Y,FALSE,OE,q,q,3885,TRUE,1
CVOE_C,3,1,3,58,P 58,Number,N,FALSE,OE,p,p,1166,TRUE,1
CVOE_C,3,1,3,59,S 37,Letter,Y,TRUE,CV,q,q,898,TRUE,1
CVOE_C,3,1,3,60,U 61,Letter,N,FALSE,CV,p,p,949,TRUE,1
CVOE_C,3,1,3,61,A 17,Number,Y,FALSE,OE,q,q,1627,TRUE,1
CVOE_C,3,1,3,62,D 85,Number,N,TRUE,OE,q,q,1553,TRUE,1
CVOE_C,3,1,3,63,E 20,Letter,Y,TRUE,CV,p,p,2418,TRUE,1
CVOE_C,3,1,3,64,H 86,Letter,N,FALSE,CV,q,q,3045,TRUE,1
CVOE_C,3,1,3,65,I 21,Number,Y,FALSE,OE,q,q,1641,TRUE,1
CVOE_C,3,1,3,66,J 29,Number,N,TRUE,OE,q,q,1522,TRUE,1
CVOE_C,3,1,3,67,O 13,Letter,Y,FALSE,CV,q,p,1179,FALSE,0
CVOE_C,3,1,3,68,P 82,Letter,N,FALSE,CV,q,q,1886,TRUE,1
CVOE_C,3,1,3,69,S 72,Number,Y,FALSE,OE,q,p,770,FALSE,0
CVOE_C,3,1,3,70,U 84,Number,N,TRUE,OE,p,p,1765,TRUE,1
CVOE_C,3,1,3,71,A 49,Letter,Y,FALSE,CV,p,p,1574,TRUE,1
CVOE_C,3,1,3,72,D 91,Letter,N,TRUE,CV,q,q,2457,TRUE,1
CVOE_C,3,1,3,73,E 99,Number,Y,FALSE,OE,q,q,1837,TRUE,1
CVOE_C,3,1,3,74,H 16,Number,N,FALSE,OE,p,p,942,TRUE,1
CVOE_C,3,1,3,75,I 45,Letter,Y,FALSE,CV,p,p,1076,TRUE,1
CVOE_C,3,1,3,76,J 70,Letter,N,FALSE,CV,q,q,2109,TRUE,1
CVOE_C,3,1,3,77,O 22,Number,Y,TRUE,OE,p,p,1323,TRUE,1
CVOE_C,3,1,3,78,P 41,Number,N,TRUE,OE,q,q,2548,TRUE,1
CVOE_C,3,1,3,79,S 93,Letter,Y,TRUE,CV,q,q,874,TRUE,1
CVOE_C,3,1,3,80,U 70,Letter,N,TRUE,CV,p,p,843,TRUE,1
CVOE_C,3,1,3,81,A 42,Number,Y,TRUE,OE,p,p,1619,TRUE,1
CVOE_C,3,1,3,82,D 85,Number,N,TRUE,OE,q,q,1055,TRUE,1
CVOE_C,3,1,3,83,E 68,Letter,Y,TRUE,CV,p,p,1466,TRUE,1
CVOE_C,3,1,3,84,H 17,Letter,N,TRUE,CV,q,q,872,TRUE,1
CVOE_C,3,1,3,85,I 70,Number,Y,TRUE,OE,p,p,1014,TRUE,1
CVOE_C,3,1,3,86,J 88,Number,N,FALSE,OE,p,p,1953,TRUE,1
CVOE_C,3,1,3,87,O 32,Letter,Y,TRUE,CV,p,p,1426,TRUE,1
CVOE_C,3,1,3,88,P 95,Letter,N,TRUE,CV,q,q,1096,TRUE,1
CVOE_C,3,1,3,89,S 98,Number,Y,FALSE,OE,p,p,2035,TRUE,1
CVOE_C,3,1,3,90,U 37,Number,N,FALSE,OE,q,q,820,TRUE,1
CVOE_C,3,1,3,91,A 56,Letter,Y,TRUE,CV,p,p,2138,TRUE,1
CVOE_C,3,1,3,92,D 57,Letter,N,TRUE,CV,q,q,782,TRUE,1
CVOE_C,3,1,3,93,E 93,Number,Y,FALSE,OE,q,q,1180,TRUE,1
CVOE_C,3,1,3,94,H 27,Number,N,TRUE,OE,q,q,706,TRUE,1
CVOE_C,3,1,3,95,I 35,Letter,Y,FALSE,CV,p,p,1064,TRUE,1
CVOE_C,3,1,3,96,J 03,Letter,N,TRUE,CV,q,q,1237,TRUE,1
CVOE_C,3,1,3,97,O 28,Number,Y,TRUE,OE,p,p,950,TRUE,1
CVOE_C,3,1,3,98,P 59,Number,N,TRUE,OE,q,q,1764,TRUE,1
CVOE_C,3,1,3,99,S 77,Letter,Y,TRUE,CV,q,q,989,TRUE,1
CVOE_C,3,1,3,100,U 05,Letter,N,FALSE,CV,p,p,683,TRUE,1
CVOE_C,3,1,3,101,A 56,Number,Y,TRUE,OE,p,p,1635,TRUE,1
CVOE_C,3,1,3,102,D 01,Number,N,TRUE,OE,p,q,836,FALSE,0
CVOE_C,3,1,3,103,E 02,Letter,Y,TRUE,CV,p,p,621,TRUE,1
CVOE_C,3,1,3,104,H 68,Letter,N,FALSE,CV,q,q,1090,TRUE,1
CVOE_C,3,1,3,105,I 05,Number,Y,FALSE,OE,p,q,1198,FALSE,0
CVOE_C,3,1,3,106,J 55,Number,N,TRUE,OE,q,q,2822,TRUE,1
CVOE_C,3,1,3,107,O 73,Letter,Y,FALSE,CV,p,p,1285,TRUE,1
CVOE_C,3,1,3,108,P 41,Letter,N,TRUE,CV,q,q,1078,TRUE,1
CVOE_C,3,1,3,109,S 92,Number,Y,FALSE,OE,q,p,1318,FALSE,0
CVOE_C,3,1,3,110,U 34,Number,N,TRUE,OE,p,p,1119,TRUE,1
CVOE_C,3,1,3,111,A 09,Letter,Y,FALSE,CV,p,p,1888,TRUE,1
CVOE_C,3,1,3,112,D 92,Letter,N,FALSE,CV,q,q,1963,TRUE,1
CVOE_C,3,1,3,113,E 48,Number,Y,TRUE,OE,p,p,1236,TRUE,1
CVOE_C,3,1,3,114,H 76,Number,N,FALSE,OE,p,p,1349,TRUE,1
CVOE_C,3,1,3,115,I 44,Letter,Y,TRUE,CV,p,p,1195,TRUE,1
CVOE_C,3,1,3,116,J 67,Letter,N,TRUE,CV,q,q,875,TRUE,1
CVOE_C,3,1,3,117,O 48,Number,Y,TRUE,OE,p,p,956,TRUE,1
CVOE_C,3,1,3,118,P 22,Number,N,FALSE,OE,p,p,781,TRUE,1
CVOE_C,3,1,3,119,S 86,Letter,Y,FALSE,CV,q,q,922,TRUE,1
CVOE_C,3,1,3,120,U 35,Letter,N,FALSE,CV,q,p,2315,FALSE,0
CVOE_C,3,1,3,121,A 91,Number,Y,FALSE,OE,q,q,1957,TRUE,1
CVOE_C,3,1,3,122,D 78,Number,N,FALSE,OE,p,p,1693,TRUE,1
CVOE_C,3,1,3,123,E 91,Letter,Y,FALSE,CV,p,p,1488,TRUE,1
CVOE_C,3,1,3,124,H 54,Letter,N,FALSE,CV,q,q,1228,TRUE,1
CVOE_C,3,1,3,125,I 65,Number,Y,FALSE,OE,q,q,1426,TRUE,1
CVOE_C,3,1,3,126,J 52,Number,N,FALSE,OE,p,p,1025,TRUE,1
CVOE_C,3,1,3,127,O 19,Letter,Y,FALSE,CV,p,p,1206,TRUE,1
CVOE_C,3,1,3,128,P 48,Letter,N,FALSE,CV,q,q,2119,TRUE,1
CVOE_C,3,1,3,129,S 45,Number,Y,TRUE,OE,q,q,1384,TRUE,1
CVOE_C,3,1,3,130,U 26,Number,N,TRUE,OE,p,p,1398,TRUE,1
CVOE_C,3,1,4,1,U 38,Number,N,TRUE,OE,p,p,3641,TRUE,1
CVOE_C,3,1,4,2,P 73,Number,N,TRUE,OE,q,q,987,TRUE,1
CVOE_C,3,1,4,3,U 95,Letter,Y,FALSE,CV,q,p,857,FALSE,0
CVOE_C,3,1,4,4,J 61,Number,Y,TRUE,OE,q,q,1364,TRUE,1
CVOE_C,3,1,4,5,D 51,Number,N,TRUE,OE,q,q,877,TRUE,1
CVOE_C,3,1,4,6,S 28,Number,N,FALSE,OE,p,p,765,TRUE,1
CVOE_C,3,1,4,7,A 56,Letter,Y,TRUE,CV,p,p,1734,TRUE,1
CVOE_C,3,1,4,8,H 78,Letter,N,FALSE,CV,q,q,1882,TRUE,1
CVOE_C,3,1,4,9,P 92,Letter,N,FALSE,CV,q,q,954,TRUE,1
CVOE_C,3,1,4,10,E 05,Number,Y,FALSE,OE,p,q,987,FALSE,0
CVOE_C,3,1,4,11,P 57,Letter,Y,TRUE,CV,q,q,801,TRUE,1
CVOE_C,3,1,4,12,D 88,Number,Y,FALSE,OE,p,p,1057,TRUE,1
CVOE_C,3,1,4,13,O 89,Letter,Y,FALSE,CV,q,p,1190,FALSE,0
CVOE_C,3,1,4,14,U 43,Number,Y,FALSE,OE,q,q,1923,TRUE,1
CVOE_C,3,1,4,15,H 10,Number,N,FALSE,OE,p,p,2219,TRUE,1
CVOE_C,3,1,4,16,S 07,Letter,Y,TRUE,CV,q,q,2634,TRUE,1
CVOE_C,3,1,4,17,J 10,Letter,N,FALSE,CV,q,q,851,TRUE,1
CVOE_C,3,1,4,18,H 54,Number,Y,FALSE,OE,p,p,791,TRUE,1
CVOE_C,3,1,4,19,E 99,Number,N,FALSE,OE,q,q,1261,TRUE,1
CVOE_C,3,1,4,20,J 36,Letter,Y,FALSE,CV,q,q,842,TRUE,1
CVOE_C,3,1,4,21,I 94,Letter,N,TRUE,CV,p,p,1379,TRUE,1
CVOE_C,3,1,4,22,A 82,Letter,N,TRUE,CV,p,p,950,TRUE,1
CVOE_C,3,1,4,23,H 79,Number,Y,TRUE,OE,q,q,989,TRUE,1
CVOE_C,3,1,4,24,J 60,Number,N,FALSE,OE,p,p,4730,TRUE,1
CVOE_C,3,1,4,25,S 28,Letter,Y,FALSE,CV,q,q,1895,TRUE,1
CVOE_C,3,1,4,26,P 11,Number,Y,TRUE,OE,q,q,4706,TRUE,1
CVOE_C,3,1,4,27,D 39,Number,N,TRUE,OE,q,q,1337,TRUE,1
CVOE_C,3,1,4,28,E 90,Number,N,TRUE,OE,p,p,837,TRUE,1
CVOE_C,3,1,4,29,I 38,Number,N,TRUE,OE,p,p,869,TRUE,1
CVOE_C,3,1,4,30,S 35,Letter,Y,TRUE,CV,q,q,1115,TRUE,1
CVOE_C,3,1,4,31,D 41,Number,Y,TRUE,OE,q,q,2028,TRUE,1
CVOE_C,3,1,4,32,E 06,Number,N,TRUE,OE,p,p,1162,TRUE,1
CVOE_C,3,1,4,33,A 27,Number,N,FALSE,OE,q,q,979,TRUE,1
CVOE_C,3,1,4,34,U 95,Letter,Y,FALSE,CV,p,p,1999,TRUE,1
CVOE_C,3,1,4,35,A 53,Letter,N,FALSE,CV,p,p,1463,TRUE,1
CVOE_C,3,1,4,36,E 43,Letter,N,FALSE,CV,p,p,637,TRUE,1
CVOE_C,3,1,4,37,P 05,Number,Y,TRUE,OE,q,q,1342,TRUE,1
CVOE_C,3,1,4,38,O 19,Letter,Y,FALSE,CV,p,p,883,TRUE,1
CVOE_C,3,1,4,39,I 96,Number,Y,TRUE,OE,p,p,764,TRUE,1
CVOE_C,3,1,4,40,A 88,Number,N,TRUE,OE,p,p,1972,TRUE,1
CVOE_C,3,1,4,41,I 67,Number,N,FALSE,OE,q,q,1192,TRUE,1
CVOE_C,3,1,4,42,D 40,Number,N,FALSE,OE,p,p,798,TRUE,1
CVOE_C,3,1,4,43,P 79,Letter,Y,TRUE,CV,q,q,879,TRUE,1
CVOE_C,3,1,4,44,U 24,Number,Y,TRUE,OE,p,p,887,TRUE,1
CVOE_C,3,1,4,45,P 74,Number,N,FALSE,OE,p,p,450,TRUE,1
CVOE_C,3,1,4,46,E 70,Number,N,TRUE,OE,p,p,734,TRUE,1
CVOE_C,3,1,4,47,S 27,Number,N,TRUE,OE,q,q,880,TRUE,1
CVOE_C,3,1,4,48,E 54,Letter,Y,TRUE,CV,p,p,1481,TRUE,1
CVOE_C,3,1,4,49,A 53,Letter,N,FALSE,CV,p,p,1355,TRUE,1
CVOE_C,3,1,4,50,P 34,Letter,N,FALSE,CV,q,q,906,TRUE,1
CVOE_C,3,1,4,51,D 74,Number,Y,FALSE,OE,p,p,1400,TRUE,1
CVOE_C,3,1,4,52,A 03,Letter,Y,FALSE,CV,q,p,1345,FALSE,0
CVOE_C,3,1,4,53,E 24,Number,Y,TRUE,OE,p,p,2743,TRUE,1
CVOE_C,3,1,4,54,I 58,Letter,Y,TRUE,CV,p,p,1038,TRUE,1
CVOE_C,3,1,4,55,D 77,Number,Y,TRUE,OE,q,q,1366,TRUE,1
CVOE_C,3,1,4,56,S 75,Number,N,TRUE,OE,q,q,850,TRUE,1
CVOE_C,3,1,4,57,I 20,Letter,Y,TRUE,CV,p,p,1677,TRUE,1
CVOE_C,3,1,4,58,J 52,Letter,N,FALSE,CV,q,q,998,TRUE,1
CVOE_C,3,1,4,59,A 38,Number,Y,TRUE,OE,p,p,3383,TRUE,1
CVOE_C,3,1,4,60,I 60,Letter,Y,TRUE,CV,q,p,1549,FALSE,0
CVOE_C,3,1,4,61,S 51,Number,Y,TRUE,OE,q,q,1475,TRUE,1
CVOE_C,3,1,4,62,D 63,Letter,Y,TRUE,CV,q,q,1732,TRUE,1
CVOE_C,3,1,4,63,U 27,Letter,N,FALSE,CV,p,p,4616,TRUE,1
CVOE_C,3,1,4,64,J 77,Letter,N,TRUE,CV,q,q,868,TRUE,1
CVOE_C,3,1,4,65,O 15,Number,Y,FALSE,OE,q,q,1051,TRUE,1
CVOE_C,3,1,4,66,J 20,Letter,Y,FALSE,CV,q,q,1502,TRUE,1
CVOE_C,3,1,4,67,U 97,Number,Y,FALSE,OE,q,q,2243,TRUE,1
CVOE_C,3,1,4,68,H 03,Number,N,TRUE,OE,q,q,1045,TRUE,1
CVOE_C,3,1,4,69,O 04,Letter,Y,TRUE,CV,p,p,1581,TRUE,1
CVOE_C,3,1,4,70,E 10,Letter,N,TRUE,CV,p,p,1059,TRUE,1
CVOE_C,3,1,4,71,I 52,Letter,N,TRUE,CV,p,p,1582,TRUE,1
CVOE_C,3,1,4,72,H 81,Number,Y,TRUE,OE,q,q,1110,TRUE,1
CVOE_C,3,1,4,73,I 41,Number,N,FALSE,OE,q,q,771,TRUE,1
CVOE_C,3,1,4,74,U 19,Letter,Y,FALSE,CV,p,p,958,TRUE,1
CVOE_C,3,1,4,75,O 17,Number,Y,FALSE,OE,p,q,2543,FALSE,0
CVOE_C,3,1,4,76,A 10,Number,N,TRUE,OE,p,p,1493,TRUE,1
CVOE_C,3,1,4,77,P 93,Letter,Y,TRUE,CV,q,q,1136,TRUE,1
CVOE_C,3,1,4,78,E 59,Letter,N,FALSE,CV,p,p,1027,TRUE,1
CVOE_C,3,1,4,79,O 53,Letter,N,FALSE,CV,p,p,2353,TRUE,1
CVOE_C,3,1,4,80,A 96,Letter,N,TRUE,CV,p,p,731,TRUE,1
CVOE_C,3,1,4,81,H 36,Letter,Y,FALSE,CV,q,q,694,TRUE,1
CVOE_C,3,1,4,82,A 63,Letter,N,FALSE,CV,q,p,737,FALSE,0
CVOE_C,3,1,4,83,I 38,Letter,N,TRUE,CV,q,p,652,FALSE,0
CVOE_C,3,1,4,84,O 51,Number,Y,FALSE,OE,p,q,647,FALSE,0
CVOE_C,3,1,4,85,J 26,Number,N,FALSE,OE,p,p,1986,TRUE,1
CVOE_C,3,1,4,86,S 34,Letter,Y,FALSE,CV,q,q,752,TRUE,1
CVOE_C,3,1,4,87,U 85,Number,Y,FALSE,OE,q,q,2465,TRUE,1
CVOE_C,3,1,4,88,J 77,Number,N,TRUE,OE,q,q,911,TRUE,1
CVOE_C,3,1,4,89,I 73,Letter,Y,FALSE,CV,p,p,1054,TRUE,1
CVOE_C,3,1,4,90,H 46,Number,Y,FALSE,OE,p,p,2249,TRUE,1
CVOE_C,3,1,4,91,D 04,Number,N,FALSE,OE,p,p,732,TRUE,1
CVOE_C,3,1,4,92,P 72,Letter,Y,FALSE,CV,q,q,1263,TRUE,1
CVOE_C,3,1,4,93,D 99,Number,Y,TRUE,OE,q,q,2645,TRUE,1
CVOE_C,3,1,4,94,U 25,Letter,Y,FALSE,CV,p,p,1343,TRUE,1
CVOE_C,3,1,4,95,O 32,Letter,N,TRUE,CV,p,p,1253,TRUE,1
CVOE_C,3,1,4,96,E 80,Letter,N,TRUE,CV,p,p,841,TRUE,1
CVOE_C,3,1,4,97,O 84,Number,Y,TRUE,OE,p,p,928,TRUE,1
CVOE_C,3,1,4,98,A 78,Number,N,TRUE,OE,p,p,1140,TRUE,1
CVOE_C,3,1,4,99,S 05,Number,N,TRUE,OE,q,q,978,TRUE,1
CVOE_C,3,1,4,100,U 35,Letter,Y,FALSE,CV,p,p,1302,TRUE,1
CVOE_C,3,1,4,101,H 14,Letter,N,FALSE,CV,q,q,2683,TRUE,1
CVOE_C,3,1,4,102,U 15,Number,Y,FALSE,OE,p,q,1092,FALSE,0
CVOE_C,3,1,4,103,E 36,Letter,Y,TRUE,CV,p,p,784,TRUE,1
CVOE_C,3,1,4,104,P 70,Letter,N,FALSE,CV,q,q,1070,TRUE,1
CVOE_C,3,1,4,105,O 44,Number,Y,TRUE,OE,p,p,963,TRUE,1
CVOE_C,3,1,4,106,S 41,Letter,Y,TRUE,CV,p,q,1380,FALSE,0
CVOE_C,3,1,4,107,D 83,Letter,N,TRUE,CV,q,q,4202,TRUE,1
CVOE_C,3,1,4,108,J 39,Letter,N,TRUE,CV,q,q,716,TRUE,1
CVOE_C,3,1,4,109,S 22,Number,Y,FALSE,OE,p,p,773,TRUE,1
CVOE_C,3,1,4,110,D 89,Letter,Y,TRUE,CV,q,q,1159,TRUE,1
CVOE_C,3,1,4,111,P 87,Letter,N,TRUE,CV,q,q,1104,TRUE,1
CVOE_C,3,1,4,112,H 42,Letter,N,FALSE,CV,q,q,1910,TRUE,1
CVOE_C,3,1,4,113,S 49,Letter,N,TRUE,CV,q,q,740,TRUE,1
CVOE_C,3,1,4,114,J 20,Number,Y,FALSE,OE,p,p,898,TRUE,1
CVOE_C,3,1,4,115,O 19,Letter,Y,FALSE,CV,q,p,981,FALSE,0
CVOE_C,3,1,4,116,H 50,Letter,N,FALSE,CV,q,q,1124,TRUE,1
CVOE_C,3,1,4,117,I 68,Number,Y,TRUE,OE,p,p,661,TRUE,1
CVOE_C,3,1,4,118,J 72,Number,N,FALSE,OE,p,p,1009,TRUE,1
CVOE_C,3,1,4,119,O 21,Number,N,FALSE,OE,q,q,1493,TRUE,1
CVOE_C,3,1,4,120,H 22,Number,N,FALSE,OE,p,p,816,TRUE,1
CVOE_D,4,1,1,11,A 71,,,FALSE,CV,p,p,1212,TRUE,1
CVOE_D,4,1,1,12,I 66,,,TRUE,CV,p,p,840,TRUE,1
CVOE_D,4,1,1,13,S 30,,,FALSE,CV,q,q,728,TRUE,1
CVOE_D,4,1,1,14,D 20,,,FALSE,CV,q,q,1075,TRUE,1
CVOE_D,4,1,1,15,I 31,,,FALSE,CV,p,p,708,TRUE,1
CVOE_D,4,1,1,16,P 16,,,FALSE,CV,q,q,802,TRUE,1
CVOE_D,4,1,1,17,A 49,,,FALSE,CV,p,p,706,TRUE,1
CVOE_D,4,1,1,18,O 64,,,TRUE,CV,p,p,776,TRUE,1
CVOE_D,4,1,1,19,D 02,,,FALSE,CV,q,q,851,TRUE,1
CVOE_D,4,1,1,20,P 81,,,TRUE,CV,q,q,1006,TRUE,1
CVOE_D,4,1,1,21,J 58,,,FALSE,CV,q,q,687,TRUE,1
CVOE_D,4,1,1,22,A 22,,,TRUE,CV,p,p,959,TRUE,1
CVOE_D,4,1,1,23,J 72,,,FALSE,CV,q,q,1439,TRUE,1
CVOE_D,4,1,1,24,P 91,,,TRUE,CV,q,q,889,TRUE,1
CVOE_D,4,1,1,25,E 19,,,FALSE,CV,p,p,860,TRUE,1
CVOE_D,4,1,1,26,I 30,,,TRUE,CV,p,p,743,TRUE,1
CVOE_D,4,1,1,27,D 91,,,TRUE,CV,q,q,1597,TRUE,1
CVOE_D,4,1,1,28,O 48,,,TRUE,CV,p,p,3798,TRUE,1
CVOE_D,4,1,1,29,A 89,,,FALSE,CV,p,p,663,TRUE,1
CVOE_D,4,1,1,30,U 11,,,FALSE,CV,p,p,1909,TRUE,1
CVOE_D,4,1,1,31,I 76,,,TRUE,CV,p,p,651,TRUE,1
CVOE_D,4,1,1,32,U 89,,,FALSE,CV,p,p,950,TRUE,1
CVOE_D,4,1,1,33,D 63,,,TRUE,CV,q,q,1036,TRUE,1
CVOE_D,4,1,1,34,H 70,,,FALSE,CV,q,q,1157,TRUE,1
CVOE_D,4,1,1,35,D 48,,,FALSE,CV,q,q,734,TRUE,1
CVOE_D,4,1,1,36,P 56,,,FALSE,CV,q,q,689,TRUE,1
CVOE_D,4,1,1,37,O 77,,,FALSE,CV,p,p,924,TRUE,1
CVOE_D,4,1,1,38,P 42,,,FALSE,CV,q,q,756,TRUE,1
CVOE_D,4,1,1,39,H 22,,,FALSE,CV,q,q,1901,TRUE,1
CVOE_D,4,1,1,40,E 42,,,TRUE,CV,p,p,667,TRUE,1
CVOE_D,4,1,1,41,J 28,,,FALSE,CV,q,q,897,TRUE,1
CVOE_D,4,1,1,42,E 95,,,FALSE,CV,p,p,908,TRUE,1
CVOE_D,4,1,1,43,S 63,,,TRUE,CV,q,q,738,TRUE,1
CVOE_D,4,1,1,44,H 50,,,FALSE,CV,q,q,1133,TRUE,1
CVOE_D,4,1,1,45,S 33,,,TRUE,CV,q,q,712,TRUE,1
CVOE_D,4,1,1,46,P 57,,,TRUE,CV,q,q,926,TRUE,1
CVOE_D,4,1,1,47,E 23,,,FALSE,CV,p,p,1031,TRUE,1
CVOE_D,4,1,1,48,S 61,,,TRUE,CV,q,q,677,TRUE,1
CVOE_D,4,1,1,49,U 67,,,FALSE,CV,p,p,805,TRUE,1
CVOE_D,4,1,1,50,H 32,,,FALSE,CV,q,q,1102,TRUE,1
CVOE_D,4,1,1,51,U 50,,,TRUE,CV,p,p,836,TRUE,1
CVOE_D,4,1,1,52,O 49,,,FALSE,CV,p,p,820,TRUE,1
CVOE_D,4,1,1,53,U 32,,,TRUE,CV,p,p,711,TRUE,1
CVOE_D,4,1,1,54,J 78,,,FALSE,CV,q,q,749,TRUE,1
CVOE_D,4,1,1,55,S 54,,,FALSE,CV,q,q,723,TRUE,1
CVOE_D,4,1,1,56,J 27,,,TRUE,CV,q,q,707,TRUE,1
CVOE_D,4,1,1,57,S 06,,,FALSE,CV,q,q,569,TRUE,1
CVOE_D,4,1,1,58,D 67,,,TRUE,CV,q,q,1188,TRUE,1
CVOE_D,4,1,1,59,A 79,,,FALSE,CV,p,p,642,TRUE,1
CVOE_D,4,1,1,60,S 52,,,FALSE,CV,q,q,819,TRUE,1
CVOE_D,4,1,1,61,U 16,,,TRUE,CV,p,p,709,TRUE,1
CVOE_D,4,1,1,62,O 82,,,TRUE,CV,p,p,756,TRUE,1
CVOE_D,4,1,1,63,H 87,,,TRUE,CV,q,q,788,TRUE,1
CVOE_D,4,1,1,64,I 32,,,TRUE,CV,p,p,778,TRUE,1
CVOE_D,4,1,1,65,U 37,,,FALSE,CV,p,p,1237,TRUE,1
CVOE_D,4,1,1,66,I 42,,,TRUE,CV,p,p,750,TRUE,1
CVOE_D,4,1,1,67,D 65,,,TRUE,CV,q,q,628,TRUE,1
CVOE_D,4,1,1,68,U 77,,,FALSE,CV,p,p,785,TRUE,1
CVOE_D,4,1,1,69,E 12,,,TRUE,CV,p,p,1191,TRUE,1
CVOE_D,4,1,1,70,I 60,,,TRUE,CV,p,p,781,TRUE,1
CVOE_D,4,1,1,71,J 36,,,FALSE,CV,q,q,699,TRUE,1
CVOE_D,4,1,1,72,H 75,,,TRUE,CV,q,q,598,TRUE,1
CVOE_D,4,1,1,73,I 50,,,TRUE,CV,p,p,759,TRUE,1
CVOE_D,4,1,1,74,E 99,,,FALSE,CV,p,p,1423,TRUE,1
CVOE_D,4,1,1,75,A 86,,,TRUE,CV,p,p,669,TRUE,1
CVOE_D,4,1,1,76,U 48,,,TRUE,CV,p,p,771,TRUE,1
CVOE_D,4,1,1,77,E 01,,,FALSE,CV,p,p,694,TRUE,1
CVOE_D,4,1,1,78,A 78,,,TRUE,CV,p,p,721,TRUE,1
CVOE_D,4,1,1,79,P 60,,,FALSE,CV,q,q,698,TRUE,1
CVOE_D,4,1,1,80,E 43,,,FALSE,CV,p,p,693,TRUE,1
CVOE_D,4,1,1,81,D 69,,,TRUE,CV,q,q,768,TRUE,1
CVOE_D,4,1,1,82,H 11,,,TRUE,CV,q,q,603,TRUE,1
CVOE_D,4,1,1,83,P 43,,,TRUE,CV,q,q,820,TRUE,1
CVOE_D,4,1,1,84,O 67,,,FALSE,CV,p,p,719,TRUE,1
CVOE_D,4,1,1,85,S 91,,,FALSE,CV,q,q,743,TRUE,1
CVOE_D,4,1,1,86,J 68,,,TRUE,CV,q,q,693,TRUE,1
CVOE_D,4,1,1,87,S 47,,,FALSE,CV,q,q,568,TRUE,1
CVOE_D,4,1,1,88,I 81,,,TRUE,CV,p,p,675,TRUE,1
CVOE_D,4,1,1,89,J 39,,,FALSE,CV,q,q,580,TRUE,1
CVOE_D,4,1,1,90,A 11,,,TRUE,CV,p,p,671,TRUE,1
CVOE_D,4,1,1,91,O 76,,,FALSE,CV,p,p,669,TRUE,1
CVOE_D,4,1,1,92,A 62,,,FALSE,CV,p,p,618,TRUE,1
CVOE_D,4,1,1,93,O 27,,,TRUE,CV,p,p,582,TRUE,1
CVOE_D,4,1,1,94,E 66,,,FALSE,CV,p,p,643,TRUE,1
CVOE_D,4,1,1,95,J 62,,,TRUE,CV,q,q,652,TRUE,1
CVOE_D,4,1,1,96,H 72,,,TRUE,CV,q,q,655,TRUE,1
CVOE_D,4,1,1,97,E 49,,,TRUE,CV,p,p,818,TRUE,1
CVOE_D,4,1,1,98,D 52,,,TRUE,CV,q,q,533,TRUE,1
CVOE_D,4,1,1,99,H 62,,,TRUE,CV,q,q,624,TRUE,1
CVOE_D,4,1,1,100,I 11,,,TRUE,CV,p,p,974,TRUE,1
CVOE_D,4,1,1,101,A 98,,,FALSE,CV,p,p,657,TRUE,1
CVOE_D,4,1,1,102,H 29,,,FALSE,CV,q,q,604,TRUE,1
CVOE_D,4,1,1,103,E 83,,,TRUE,CV,p,p,645,TRUE,1
CVOE_D,4,1,1,104,D 43,,,FALSE,CV,q,q,613,TRUE,1
CVOE_D,4,1,1,105,P 45,,,TRUE,CV,q,q,528,TRUE,1
CVOE_D,4,1,1,106,J 17,,,TRUE,CV,q,q,675,TRUE,1
CVOE_D,4,1,2,11,A 24,,,TRUE,OE,p,p,2120,TRUE,1
CVOE_D,4,1,2,12,O 83,,,FALSE,OE,q,q,649,TRUE,1
CVOE_D,4,1,2,13,H 55,,,TRUE,OE,q,q,748,TRUE,1
CVOE_D,4,1,2,14,P 10,,,FALSE,OE,p,p,1042,TRUE,1
CVOE_D,4,1,2,15,D 30,,,FALSE,OE,p,p,634,TRUE,1
CVOE_D,4,1,2,16,U 62,,,TRUE,OE,p,p,659,TRUE,1
CVOE_D,4,1,2,17,P 95,,,TRUE,OE,q,q,670,TRUE,1
CVOE_D,4,1,2,18,U 06,,,TRUE,OE,p,p,964,TRUE,1
CVOE_D,4,1,2,19,E 75,,,FALSE,OE,q,q,788,TRUE,1
CVOE_D,4,1,2,20,I 67,,,FALSE,OE,q,q,754,TRUE,1
CVOE_D,4,1,2,21,S 13,,,TRUE,OE,q,q,778,TRUE,1
CVOE_D,4,1,2,22,P 78,,,FALSE,OE,p,p,750,TRUE,1
CVOE_D,4,1,2,23,I 15,,,FALSE,OE,q,q,1267,TRUE,1
CVOE_D,4,1,2,24,D 27,,,TRUE,OE,q,q,841,TRUE,1
CVOE_D,4,1,2,25,O 94,,,TRUE,OE,p,p,754,TRUE,1
CVOE_D,4,1,2,26,A 65,,,FALSE,OE,q,q,738,TRUE,1
CVOE_D,4,1,2,27,I 42,,,TRUE,OE,p,p,694,TRUE,1
CVOE_D,4,1,2,28,E 25,,,FALSE,OE,q,q,721,TRUE,1
CVOE_D,4,1,2,29,H 49,,,TRUE,OE,q,q,761,TRUE,1
CVOE_D,4,1,2,30,S 18,,,FALSE,OE,p,p,682,TRUE,1
CVOE_D,4,1,2,31,H 51,,,TRUE,OE,q,q,738,TRUE,1
CVOE_D,4,1,2,32,U 14,,,TRUE,OE,p,p,893,TRUE,1
CVOE_D,4,1,2,33,E 02,,,TRUE,OE,p,p,777,TRUE,1
CVOE_D,4,1,2,34,J 26,,,FALSE,OE,p,p,684,TRUE,1
CVOE_D,4,1,2,35,D 24,,,FALSE,OE,p,p,724,TRUE,1
CVOE_D,4,1,2,36,O 50,,,TRUE,OE,p,p,1117,TRUE,1
CVOE_D,4,1,2,37,U 16,,,TRUE,OE,p,p,741,TRUE,1
CVOE_D,4,1,2,38,O 15,,,FALSE,OE,q,q,707,TRUE,1
CVOE_D,4,1,2,39,D 32,,,FALSE,OE,p,p,745,TRUE,1
CVOE_D,4,1,2,40,S 67,,,TRUE,OE,q,q,623,TRUE,1
CVOE_D,4,1,2,41,J 74,,,FALSE,OE,p,p,708,TRUE,1
CVOE_D,4,1,2,42,D 92,,,FALSE,OE,p,p,682,TRUE,1
CVOE_D,4,1,2,43,A 65,,,FALSE,OE,q,q,667,TRUE,1
CVOE_D,4,1,2,44,I 87,,,FALSE,OE,q,q,672,TRUE,1
CVOE_D,4,1,2,45,H 61,,,TRUE,OE,q,q,614,TRUE,1
CVOE_D,4,1,2,46,E 59,,,FALSE,OE,q,q,753,TRUE,1
CVOE_D,4,1,2,47,I 33,,,FALSE,OE,q,q,695,TRUE,1
CVOE_D,4,1,2,48,O 90,,,TRUE,OE,p,p,874,TRUE,1
CVOE_D,4,1,2,49,U 51,,,FALSE,OE,q,q,683,TRUE,1
CVOE_D,4,1,2,50,A 10,,,TRUE,OE,q,p,683,FALSE,0
CVOE_D,4,1,2,51,E 50,,,TRUE,OE,p,p,1084,TRUE,1
CVOE_D,4,1,2,52,D 92,,,FALSE,OE,p,p,716,TRUE,1
CVOE_D,4,1,2,53,E 60,,,TRUE,OE,p,p,1069,TRUE,1
CVOE_D,4,1,2,54,A 95,,,FALSE,OE,q,q,811,TRUE,1
CVOE_D,4,1,2,55,E 64,,,TRUE,OE,p,p,742,TRUE,1
CVOE_D,4,1,2,56,P 20,,,FALSE,OE,p,p,820,TRUE,1
CVOE_D,4,1,2,57,S 06,,,FALSE,OE,p,p,695,TRUE,1
CVOE_D,4,1,2,58,P 64,,,FALSE,OE,p,p,666,TRUE,1
CVOE_D,4,1,2,59,U 70,,,TRUE,OE,p,p,824,TRUE,1
CVOE_D,4,1,2,60,S 16,,,FALSE,OE,p,p,670,TRUE,1
CVOE_D,4,1,2,61,E 35,,,FALSE,OE,q,q,643,TRUE,1
CVOE_D,4,1,2,62,I 93,,,FALSE,OE,q,q,828,TRUE,1
CVOE_D,4,1,2,63,D 63,,,TRUE,OE,q,q,586,TRUE,1
CVOE_D,4,1,2,64,U 89,,,FALSE,OE,q,q,1103,TRUE,1
CVOE_D,4,1,2,65,E 91,,,FALSE,OE,q,q,829,TRUE,1
CVOE_D,4,1,2,66,A 12,,,TRUE,OE,p,p,715,TRUE,1
CVOE_D,4,1,2,67,P 56,,,FALSE,OE,p,p,596,TRUE,1
CVOE_D,4,1,2,68,S 65,,,TRUE,OE,q,q,828,TRUE,1
CVOE_D,4,1,2,69,P 07,,,TRUE,OE,q,q,714,TRUE,1
CVOE_D,4,1,2,70,I 77,,,FALSE,OE,q,q,531,TRUE,1
CVOE_D,4,1,2,71,J 19,,,TRUE,OE,q,q,1174,TRUE,1
CVOE_D,4,1,2,72,O 59,,,FALSE,OE,q,q,721,TRUE,1
CVOE_D,4,1,2,73,J 15,,,TRUE,OE,q,q,713,TRUE,1
CVOE_D,4,1,2,74,I 89,,,FALSE,OE,q,q,671,TRUE,1
CVOE_D,4,1,2,75,O 97,,,FALSE,OE,q,q,637,TRUE,1
CVOE_D,4,1,2,76,A 92,,,TRUE,OE,p,p,741,TRUE,1
CVOE_D,4,1,2,77,J 90,,,FALSE,OE,p,p,659,TRUE,1
CVOE_D,4,1,2,78,H 65,,,TRUE,OE,q,q,646,TRUE,1
CVOE_D,4,1,2,79,H 17,,,TRUE,OE,q,q,631,TRUE,1
CVOE_D,4,1,2,80,S 26,,,FALSE,OE,p,p,637,TRUE,1
CVOE_D,4,1,2,81,D 56,,,FALSE,OE,p,p,533,TRUE,1
CVOE_D,4,1,2,82,I 91,,,FALSE,OE,q,q,720,TRUE,1
CVOE_D,4,1,2,83,J 11,,,TRUE,OE,q,q,617,TRUE,1
CVOE_D,4,1,2,84,O 28,,,TRUE,OE,p,p,716,TRUE,1
CVOE_D,4,1,2,85,H 29,,,TRUE,OE,q,q,676,TRUE,1
CVOE_D,4,1,2,86,J 25,,,TRUE,OE,q,q,661,TRUE,1
CVOE_D,4,1,2,87,A 73,,,FALSE,OE,q,q,642,TRUE,1
CVOE_D,4,1,2,88,J 63,,,TRUE,OE,q,q,547,TRUE,1
CVOE_D,4,1,2,89,U 84,,,TRUE,OE,p,p,641,TRUE,1
CVOE_D,4,1,2,90,A 58,,,TRUE,OE,p,p,705,TRUE,1
CVOE_D,4,1,2,91,S 43,,,TRUE,OE,q,q,559,TRUE,1
CVOE_D,4,1,2,92,H 54,,,FALSE,OE,p,p,567,TRUE,1
CVOE_D,4,1,2,93,D 4,,,FALSE,OE,p,p,666,TRUE,1
CVOE_D,4,1,2,94,J 75,,,TRUE,OE,q,q,736,TRUE,1
CVOE_D,4,1,2,95,D 19,,,TRUE,OE,q,q,691,TRUE,1
CVOE_D,4,1,2,96,J 38,,,FALSE,OE,p,p,702,TRUE,1
CVOE_D,4,1,2,97,I 56,,,TRUE,OE,p,p,596,TRUE,1
CVOE_D,4,1,2,98,P 87,,,TRUE,OE,q,q,653,TRUE,1
CVOE_D,4,1,2,99,O 80,,,TRUE,OE,p,p,720,TRUE,1
CVOE_D,4,1,2,100,U 60,,,TRUE,OE,p,p,584,TRUE,1
CVOE_D,4,1,2,101,P 48,,,FALSE,OE,p,p,742,TRUE,1
CVOE_D,4,1,2,102,H 64,,,FALSE,OE,p,p,908,TRUE,1
CVOE_D,4,1,2,103,A 13,,,FALSE,OE,q,q,666,TRUE,1
CVOE_D,4,1,2,104,H 68,,,FALSE,OE,p,p,679,TRUE,1
CVOE_D,4,1,2,105,E 16,,,TRUE,OE,p,p,680,TRUE,1
CVOE_D,4,1,2,106,S 71,,,TRUE,OE,q,q,616,TRUE,1
CVOE_D,4,1,3,11,U 38,Number,N,TRUE,OE,p,p,3422,TRUE,1
CVOE_D,4,1,3,12,P 73,Number,N,TRUE,OE,q,q,1156,TRUE,1
CVOE_D,4,1,3,13,U 95,Letter,Y,FALSE,CV,p,p,1749,TRUE,1
CVOE_D,4,1,3,14,J 61,Number,Y,TRUE,OE,q,q,1595,TRUE,1
CVOE_D,4,1,3,15,D 51,Number,N,TRUE,OE,q,q,1308,TRUE,1
CVOE_D,4,1,3,16,S 28,Number,N,FALSE,OE,p,p,1242,TRUE,1
CVOE_D,4,1,3,17,A 56,Letter,Y,TRUE,CV,p,p,1427,TRUE,1
CVOE_D,4,1,3,18,H 78,Letter,N,FALSE,CV,q,q,1105,TRUE,1
CVOE_D,4,1,3,19,P 92,Letter,N,FALSE,CV,q,q,1031,TRUE,1
CVOE_D,4,1,3,20,E 05,Number,Y,FALSE,OE,q,q,1517,TRUE,1
CVOE_D,4,1,3,21,P 57,Letter,Y,TRUE,CV,q,q,1061,TRUE,1
CVOE_D,4,1,3,22,D 88,Number,Y,FALSE,OE,p,p,1163,TRUE,1
CVOE_D,4,1,3,23,O 89,Letter,Y,FALSE,CV,p,p,1404,TRUE,1
CVOE_D,4,1,3,24,U 43,Number,Y,FALSE,OE,q,q,1709,TRUE,1
CVOE_D,4,1,3,25,H 10,Number,N,FALSE,OE,p,p,1283,TRUE,1
CVOE_D,4,1,3,26,S 07,Letter,Y,TRUE,CV,q,q,1284,TRUE,1
CVOE_D,4,1,3,27,J 10,Letter,N,FALSE,CV,q,q,1164,TRUE,1
CVOE_D,4,1,3,28,H 54,Number,Y,FALSE,OE,p,p,1157,TRUE,1
CVOE_D,4,1,3,29,E 99,Number,N,FALSE,OE,q,q,2222,TRUE,1
CVOE_D,4,1,3,30,J 36,Letter,Y,FALSE,CV,q,q,1644,TRUE,1
CVOE_D,4,1,3,31,I 94,Letter,N,TRUE,CV,p,p,1213,TRUE,1
CVOE_D,4,1,3,32,A 82,Letter,N,TRUE,CV,p,p,1192,TRUE,1
CVOE_D,4,1,3,33,H 79,Number,Y,TRUE,OE,q,q,1526,TRUE,1
CVOE_D,4,1,3,34,J 60,Number,N,FALSE,OE,p,p,16610,TRUE,1
CVOE_D,4,1,3,35,S 28,Letter,Y,FALSE,CV,q,q,1235,TRUE,1
CVOE_D,4,1,3,36,P 11,Number,Y,TRUE,OE,q,q,1467,TRUE,1
CVOE_D,4,1,3,37,D 39,Number,N,TRUE,OE,q,q,1353,TRUE,1
CVOE_D,4,1,3,38,E 90,Number,N,TRUE,OE,p,p,1138,TRUE,1
CVOE_D,4,1,3,39,I 38,Number,N,TRUE,OE,p,p,1077,TRUE,1
CVOE_D,4,1,3,40,S 35,Letter,Y,TRUE,CV,q,q,1158,TRUE,1
CVOE_D,4,1,3,41,D 41,Number,Y,TRUE,OE,q,q,1343,TRUE,1
CVOE_D,4,1,3,42,E 06,Number,N,TRUE,OE,p,p,1205,TRUE,1
CVOE_D,4,1,3,43,A 27,Number,N,FALSE,OE,q,q,1197,TRUE,1
CVOE_D,4,1,3,44,U 95,Letter,Y,FALSE,CV,p,p,2102,TRUE,1
CVOE_D,4,1,3,45,A 53,Letter,N,FALSE,CV,p,p,988,TRUE,1
CVOE_D,4,1,3,46,E 43,Letter,N,FALSE,CV,p,p,1290,TRUE,1
CVOE_D,4,1,3,47,P 05,Number,Y,TRUE,OE,q,q,1526,TRUE,1
CVOE_D,4,1,3,48,O 19,Letter,Y,FALSE,CV,p,p,3318,TRUE,1
CVOE_D,4,1,3,49,I 96,Number,Y,TRUE,OE,p,p,1776,TRUE,1
CVOE_D,4,1,3,50,A 88,Number,N,TRUE,OE,p,p,1067,TRUE,1
CVOE_D,4,1,3,51,I 67,Number,N,FALSE,OE,q,q,1169,TRUE,1
CVOE_D,4,1,3,52,D 40,Number,N,FALSE,OE,p,p,1397,TRUE,1
CVOE_D,4,1,3,53,P 79,Letter,Y,TRUE,CV,q,q,981,TRUE,1
CVOE_D,4,1,3,54,U 24,Number,Y,TRUE,OE,p,p,1051,TRUE,1
CVOE_D,4,1,3,55,P 74,Number,N,FALSE,OE,p,p,1079,TRUE,1
CVOE_D,4,1,3,56,E 70,Number,N,TRUE,OE,p,p,1103,TRUE,1
CVOE_D,4,1,3,57,S 27,Number,N,TRUE,OE,q,q,1301,TRUE,1
CVOE_D,4,1,3,58,E 54,Letter,Y,TRUE,CV,p,p,1587,TRUE,1
CVOE_D,4,1,3,59,A 53,Letter,N,FALSE,CV,p,p,1041,TRUE,1
CVOE_D,4,1,3,60,P 34,Letter,N,FALSE,CV,q,q,1258,TRUE,1
CVOE_D,4,1,3,61,D 74,Number,Y,FALSE,OE,p,p,1541,TRUE,1
CVOE_D,4,1,3,62,A 03,Letter,Y,FALSE,CV,p,p,1339,TRUE,1
CVOE_D,4,1,3,63,E 24,Number,Y,TRUE,OE,p,p,1199,TRUE,1
CVOE_D,4,1,3,64,I 58,Letter,Y,TRUE,CV,p,p,1495,TRUE,1
CVOE_D,4,1,3,65,D 77,Number,Y,TRUE,OE,q,q,955,TRUE,1
CVOE_D,4,1,3,66,S 75,Number,N,TRUE,OE,q,q,1315,TRUE,1
CVOE_D,4,1,3,67,I 20,Letter,Y,TRUE,CV,p,p,1516,TRUE,1
CVOE_D,4,1,3,68,J 52,Letter,N,FALSE,CV,q,q,957,TRUE,1
CVOE_D,4,1,3,69,A 38,Number,Y,TRUE,OE,p,p,2509,TRUE,1
CVOE_D,4,1,3,70,I 60,Letter,Y,TRUE,CV,p,p,1276,TRUE,1
CVOE_D,4,1,3,71,S 51,Number,Y,TRUE,OE,q,q,1365,TRUE,1
CVOE_D,4,1,3,72,D 63,Letter,Y,TRUE,CV,q,q,1325,TRUE,1
CVOE_D,4,1,3,73,U 27,Letter,N,FALSE,CV,p,p,1526,TRUE,1
CVOE_D,4,1,3,74,J 77,Letter,N,TRUE,CV,q,q,1071,TRUE,1
CVOE_D,4,1,3,75,O 15,Number,Y,FALSE,OE,q,q,1733,TRUE,1
CVOE_D,4,1,3,76,J 20,Letter,Y,FALSE,CV,q,q,1432,TRUE,1
CVOE_D,4,1,3,77,U 97,Number,Y,FALSE,OE,q,q,2046,TRUE,1
CVOE_D,4,1,3,78,H 03,Number,N,TRUE,OE,q,q,1090,TRUE,1
CVOE_D,4,1,3,79,O 04,Letter,Y,TRUE,CV,p,p,2525,TRUE,1
CVOE_D,4,1,3,80,E 10,Letter,N,TRUE,CV,p,p,1214,TRUE,1
CVOE_D,4,1,3,81,I 52,Letter,N,TRUE,CV,p,p,1194,TRUE,1
CVOE_D,4,1,3,82,H 81,Number,Y,TRUE,OE,q,q,1258,TRUE,1
CVOE_D,4,1,3,83,I 41,Number,N,FALSE,OE,q,q,1022,TRUE,1
CVOE_D,4,1,3,84,U 19,Letter,Y,FALSE,CV,q,p,1316,FALSE,0
CVOE_D,4,1,3,85,O 17,Number,Y,FALSE,OE,q,q,2548,TRUE,1
CVOE_D,4,1,3,86,A 10,Number,N,TRUE,OE,p,p,2379,TRUE,1
CVOE_D,4,1,3,87,P 93,Letter,Y,TRUE,CV,q,q,1391,TRUE,1
CVOE_D,4,1,3,88,E 59,Letter,N,FALSE,CV,p,p,1517,TRUE,1
CVOE_D,4,1,3,89,O 53,Letter,N,FALSE,CV,p,p,1285,TRUE,1
CVOE_D,4,1,3,90,A 96,Letter,N,TRUE,CV,p,p,1382,TRUE,1
CVOE_D,4,1,3,91,H 36,Letter,Y,FALSE,CV,q,q,1692,TRUE,1
CVOE_D,4,1,3,92,A 63,Letter,N,FALSE,CV,p,p,1296,TRUE,1
CVOE_D,4,1,3,93,I 38,Letter,N,TRUE,CV,p,p,1323,TRUE,1
CVOE_D,4,1,3,94,O 51,Number,Y,FALSE,OE,q,q,2276,TRUE,1
CVOE_D,4,1,3,95,J 26,Number,N,FALSE,OE,p,p,1341,TRUE,1
CVOE_D,4,1,3,96,S 34,Letter,Y,FALSE,CV,q,q,1283,TRUE,1
CVOE_D,4,1,3,97,U 85,Number,Y,FALSE,OE,p,q,1332,FALSE,0
CVOE_D,4,1,3,98,J 77,Number,N,TRUE,OE,q,q,2279,TRUE,1
CVOE_D,4,1,3,99,I 73,Letter,Y,FALSE,CV,p,p,1904,TRUE,1
CVOE_D,4,1,3,100,H 46,Number,Y,FALSE,OE,p,p,1750,TRUE,1
CVOE_D,4,1,3,101,D 04,Number,N,FALSE,OE,p,p,1732,TRUE,1
CVOE_D,4,1,3,102,P 72,Letter,Y,FALSE,CV,q,q,1744,TRUE,1
CVOE_D,4,1,3,103,D 99,Number,Y,TRUE,OE,q,q,1982,TRUE,1
CVOE_D,4,1,3,104,U 25,Letter,Y,FALSE,CV,p,p,2069,TRUE,1
CVOE_D,4,1,3,105,O 32,Letter,N,TRUE,CV,p,p,1803,TRUE,1
CVOE_D,4,1,3,106,E 80,Letter,N,TRUE,CV,p,p,1388,TRUE,1
CVOE_D,4,1,3,107,O 84,Number,Y,TRUE,OE,p,p,2242,TRUE,1
CVOE_D,4,1,3,108,A 78,Number,N,TRUE,OE,p,p,1403,TRUE,1
CVOE_D,4,1,3,109,S 05,Number,N,TRUE,OE,q,q,1580,TRUE,1
CVOE_D,4,1,3,110,U 35,Letter,Y,FALSE,CV,p,p,1466,TRUE,1
CVOE_D,4,1,3,111,H 14,Letter,N,FALSE,CV,q,q,1448,TRUE,1
CVOE_D,4,1,3,112,U 15,Number,Y,FALSE,OE,q,q,1579,TRUE,1
CVOE_D,4,1,3,113,E 36,Letter,Y,TRUE,CV,p,p,1791,TRUE,1
CVOE_D,4,1,3,114,P 70,Letter,N,FALSE,CV,q,q,1629,TRUE,1
CVOE_D,4,1,3,115,O 44,Number,Y,TRUE,OE,p,p,1787,TRUE,1
CVOE_D,4,1,3,116,S 41,Letter,Y,TRUE,CV,q,q,1409,TRUE,1
CVOE_D,4,1,3,117,D 83,Letter,N,TRUE,CV,q,q,2581,TRUE,1
CVOE_D,4,1,3,118,J 39,Letter,N,TRUE,CV,q,q,1195,TRUE,1
CVOE_D,4,1,3,119,S 22,Number,Y,FALSE,OE,p,p,1492,TRUE,1
CVOE_D,4,1,3,120,D 89,Letter,Y,TRUE,CV,q,q,3119,TRUE,1
CVOE_D,4,1,3,121,P 87,Letter,N,TRUE,CV,q,q,2929,TRUE,1
CVOE_D,4,1,3,122,H 42,Letter,N,FALSE,CV,q,q,1989,TRUE,1
CVOE_D,4,1,3,123,S 49,Letter,N,TRUE,CV,q,q,1275,TRUE,1
CVOE_D,4,1,3,124,J 20,Number,Y,FALSE,OE,p,p,1028,TRUE,1
CVOE_D,4,1,3,125,O 19,Letter,Y,FALSE,CV,p,p,1385,TRUE,1
CVOE_D,4,1,3,126,H 50,Letter,N,FALSE,CV,q,q,2768,TRUE,1
CVOE_D,4,1,3,127,I 68,Number,Y,TRUE,OE,p,p,1259,TRUE,1
CVOE_D,4,1,3,128,J 72,Number,N,FALSE,OE,p,p,1383,TRUE,1
CVOE_D,4,1,3,129,O 21,Number,N,FALSE,OE,q,q,2685,TRUE,1
CVOE_D,4,1,3,130,H 22,Number,N,FALSE,OE,p,p,1310,TRUE,1
CVOE_D,4,1,4,1,A 44,Letter,N,TRUE,CV,p,p,3962,TRUE,1
CVOE_D,4,1,4,2,D 94,Letter,N,FALSE,CV,q,q,1747,TRUE,1
CVOE_D,4,1,4,3,E 75,Number,Y,FALSE,OE,q,p,2066,FALSE,0
CVOE_D,4,1,4,4,H 81,Number,N,TRUE,OE,q,p,1256,FALSE,0
CVOE_D,4,1,4,5,I 64,Letter,Y,TRUE,CV,p,p,1315,TRUE,1
CVOE_D,4,1,4,6,J 54,Letter,N,FALSE,CV,q,q,1548,TRUE,1
CVOE_D,4,1,4,7,O 23,Number,Y,FALSE,OE,q,q,1610,TRUE,1
CVOE_D,4,1,4,8,P 05,Number,N,TRUE,OE,q,q,1213,TRUE,1
CVOE_D,4,1,4,9,S 34,Letter,Y,FALSE,CV,q,q,1641,TRUE,1
CVOE_D,4,1,4,10,U 88,Letter,N,TRUE,CV,p,p,2882,TRUE,1
CVOE_D,4,1,4,11,A 70,Number,Y,TRUE,OE,p,p,2491,TRUE,1
CVOE_D,4,1,4,12,D 12,Number,N,FALSE,OE,p,p,1903,TRUE,1
CVOE_D,4,1,4,13,E 79,Letter,Y,FALSE,CV,p,p,1733,TRUE,1
CVOE_D,4,1,4,14,H 72,Letter,N,FALSE,CV,q,q,1056,TRUE,1
CVOE_D,4,1,4,15,I 41,Number,Y,FALSE,OE,q,q,2404,TRUE,1
CVOE_D,4,1,4,16,J 63,Number,N,TRUE,OE,q,q,1437,TRUE,1
CVOE_D,4,1,4,17,O 03,Letter,Y,FALSE,CV,p,p,2646,TRUE,1
CVOE_D,4,1,4,18,P 75,Letter,N,TRUE,CV,q,q,1655,TRUE,1
CVOE_D,4,1,4,19,S 61,Number,Y,TRUE,OE,q,q,1370,TRUE,1
CVOE_D,4,1,4,20,U 28,Number,N,TRUE,OE,p,p,1398,TRUE,1
CVOE_D,4,1,4,21,A 21,Letter,Y,FALSE,CV,p,p,1598,TRUE,1
CVOE_D,4,1,4,22,D 18,Letter,N,FALSE,CV,q,q,1751,TRUE,1
CVOE_D,4,1,4,23,E 35,Number,Y,FALSE,OE,q,q,1653,TRUE,1
CVOE_D,4,1,4,24,H 62,Number,N,FALSE,OE,p,p,1449,TRUE,1
CVOE_D,4,1,4,25,I 82,Letter,Y,TRUE,CV,p,p,1828,TRUE,1
CVOE_D,4,1,4,26,J 78,Letter,N,FALSE,CV,q,q,2899,TRUE,1
CVOE_D,4,1,4,27,O 12,Number,Y,TRUE,OE,p,p,2927,TRUE,1
CVOE_D,4,1,4,28,P 13,Number,N,TRUE,OE,q,q,1123,TRUE,1
CVOE_D,4,1,4,29,S 07,Letter,Y,TRUE,CV,q,q,1435,TRUE,1
CVOE_D,4,1,4,30,U 36,Letter,N,TRUE,CV,p,p,1212,TRUE,1
CVOE_D,4,1,4,31,A 96,Number,Y,TRUE,OE,p,p,1639,TRUE,1
CVOE_D,4,1,4,32,D 04,Number,N,FALSE,OE,p,p,1280,TRUE,1
CVOE_D,4,1,4,33,E 60,Letter,Y,TRUE,CV,p,p,2673,TRUE,1
CVOE_D,4,1,4,34,H 83,Letter,N,TRUE,CV,q,q,2370,TRUE,1
CVOE_D,4,1,4,35,I 64,Number,Y,TRUE,OE,p,p,1494,TRUE,1
CVOE_D,4,1,4,36,J 76,Number,N,FALSE,OE,p,p,1385,TRUE,1
CVOE_D,4,1,4,37,O 78,Letter,Y,TRUE,CV,p,p,1447,TRUE,1
CVOE_D,4,1,4,38,P 09,Letter,N,TRUE,CV,q,q,1283,TRUE,1
CVOE_D,4,1,4,39,S 72,Number,Y,FALSE,OE,p,p,1755,TRUE,1
CVOE_D,4,1,4,40,U 47,Number,N,FALSE,OE,q,q,2388,TRUE,1
CVOE_D,4,1,4,41,A 31,Letter,Y,FALSE,CV,p,p,1147,TRUE,1
CVOE_D,4,1,4,42,D 96,Letter,N,FALSE,CV,q,q,1449,TRUE,1
CVOE_D,4,1,4,43,E 40,Number,Y,TRUE,OE,p,p,1596,TRUE,1
CVOE_D,4,1,4,44,H 79,Number,N,TRUE,OE,q,q,2629,TRUE,1
CVOE_D,4,1,4,45,I 15,Letter,Y,FALSE,CV,p,p,1171,TRUE,1
CVOE_D,4,1,4,46,J 07,Letter,N,TRUE,CV,q,q,2231,TRUE,1
CVOE_D,4,1,4,47,O 61,Number,Y,FALSE,OE,q,q,1421,TRUE,1
CVOE_D,4,1,4,48,P 58,Number,N,FALSE,OE,p,p,1163,TRUE,1
CVOE_D,4,1,4,49,S 37,Letter,Y,TRUE,CV,q,q,1244,TRUE,1
CVOE_D,4,1,4,50,U 61,Letter,N,FALSE,CV,p,p,1652,TRUE,1
CVOE_D,4,1,4,51,A 17,Number,Y,FALSE,OE,q,q,3352,TRUE,1
CVOE_D,4,1,4,52,D 85,Number,N,TRUE,OE,q,q,1807,TRUE,1
CVOE_D,4,1,4,53,E 20,Letter,Y,TRUE,CV,p,p,1418,TRUE,1
CVOE_D,4,1,4,54,H 86,Letter,N,FALSE,CV,q,q,1694,TRUE,1
CVOE_D,4,1,4,55,I 21,Number,Y,FALSE,OE,q,q,1497,TRUE,1
CVOE_D,4,1,4,56,J 29,Number,N,TRUE,OE,q,q,1541,TRUE,1
CVOE_D,4,1,4,57,O 13,Letter,Y,FALSE,CV,p,p,3115,TRUE,1
CVOE_D,4,1,4,58,P 82,Letter,N,FALSE,CV,q,q,1740,TRUE,1
CVOE_D,4,1,4,59,S 72,Number,Y,FALSE,OE,p,p,3082,TRUE,1
CVOE_D,4,1,4,60,U 84,Number,N,TRUE,OE,p,p,2180,TRUE,1
CVOE_D,4,1,4,61,A 49,Letter,Y,FALSE,CV,p,p,1074,TRUE,1
CVOE_D,4,1,4,62,D 91,Letter,N,TRUE,CV,q,q,1011,TRUE,1
CVOE_D,4,1,4,63,E 99,Number,Y,FALSE,OE,q,q,1558,TRUE,1
CVOE_D,4,1,4,64,H 16,Number,N,FALSE,OE,p,p,2263,TRUE,1
CVOE_D,4,1,4,65,I 45,Letter,Y,FALSE,CV,p,p,1173,TRUE,1
CVOE_D,4,1,4,66,J 70,Letter,N,FALSE,CV,q,q,1152,TRUE,1
CVOE_D,4,1,4,67,O 22,Number,Y,TRUE,OE,p,p,1622,TRUE,1
CVOE_D,4,1,4,68,P 41,Number,N,TRUE,OE,q,q,1341,TRUE,1
CVOE_D,4,1,4,69,S 93,Letter,Y,TRUE,CV,q,q,2075,TRUE,1
CVOE_D,4,1,4,70,U 70,Letter,N,TRUE,CV,p,p,1396,TRUE,1
CVOE_D,4,1,4,71,A 42,Number,Y,TRUE,OE,p,p,1932,TRUE,1
CVOE_D,4,1,4,72,D 85,Number,N,TRUE,OE,q,q,1528,TRUE,1
CVOE_D,4,1,4,73,E 68,Letter,Y,TRUE,CV,p,p,1651,TRUE,1
CVOE_D,4,1,4,74,H 17,Letter,N,TRUE,CV,q,q,1303,TRUE,1
CVOE_D,4,1,4,75,I 70,Number,Y,TRUE,OE,p,p,1293,TRUE,1
CVOE_D,4,1,4,76,J 88,Number,N,FALSE,OE,p,p,1136,TRUE,1
CVOE_D,4,1,4,77,O 32,Letter,Y,TRUE,CV,p,p,2132,TRUE,1
CVOE_D,4,1,4,78,P 95,Letter,N,TRUE,CV,q,q,1463,TRUE,1
CVOE_D,4,1,4,79,S 98,Number,Y,FALSE,OE,p,p,2197,TRUE,1
CVOE_D,4,1,4,80,U 37,Number,N,FALSE,OE,q,q,2142,TRUE,1
CVOE_D,4,1,4,81,A 56,Letter,Y,TRUE,CV,p,p,1541,TRUE,1
CVOE_D,4,1,4,82,D 57,Letter,N,TRUE,CV,q,q,1275,TRUE,1
CVOE_D,4,1,4,83,E 93,Number,Y,FALSE,OE,q,q,1323,TRUE,1
CVOE_D,4,1,4,84,H 27,Number,N,TRUE,OE,q,q,1516,TRUE,1
CVOE_D,4,1,4,85,I 35,Letter,Y,FALSE,CV,p,p,1397,TRUE,1
CVOE_D,4,1,4,86,J 03,Letter,N,TRUE,CV,q,q,3254,TRUE,1
CVOE_D,4,1,4,87,O 28,Number,Y,TRUE,OE,p,p,1418,TRUE,1
CVOE_D,4,1,4,88,P 59,Number,N,TRUE,OE,q,q,1605,TRUE,1
CVOE_D,4,1,4,89,S 77,Letter,Y,TRUE,CV,q,q,1798,TRUE,1
CVOE_D,4,1,4,90,U 05,Letter,N,FALSE,CV,p,p,1271,TRUE,1
CVOE_D,4,1,4,91,A 56,Number,Y,TRUE,OE,p,p,1741,TRUE,1
CVOE_D,4,1,4,92,D 01,Number,N,TRUE,OE,q,q,1395,TRUE,1
CVOE_D,4,1,4,93,E 02,Letter,Y,TRUE,CV,p,p,1548,TRUE,1
CVOE_D,4,1,4,94,H 68,Letter,N,FALSE,CV,q,q,1602,TRUE,1
CVOE_D,4,1,4,95,I 05,Number,Y,FALSE,OE,q,q,1539,TRUE,1
CVOE_D,4,1,4,96,J 55,Number,N,TRUE,OE,q,q,1302,TRUE,1
CVOE_D,4,1,4,97,O 73,Letter,Y,FALSE,CV,p,p,2084,TRUE,1
CVOE_D,4,1,4,98,P 41,Letter,N,TRUE,CV,q,q,1125,TRUE,1
CVOE_D,4,1,4,99,S 92,Number,Y,FALSE,OE,p,p,1398,TRUE,1
CVOE_D,4,1,4,100,U 34,Number,N,TRUE,OE,p,p,1295,TRUE,1
CVOE_D,4,1,4,101,A 09,Letter,Y,FALSE,CV,p,p,2602,TRUE,1
CVOE_D,4,1,4,102,D 92,Letter,N,FALSE,CV,q,q,5507,TRUE,1
CVOE_D,4,1,4,103,E 48,Number,Y,TRUE,OE,p,p,1579,TRUE,1
CVOE_D,4,1,4,104,H 76,Number,N,FALSE,OE,p,p,1902,TRUE,1
CVOE_D,4,1,4,105,I 44,Letter,Y,TRUE,CV,p,p,2068,TRUE,1
CVOE_D,4,1,4,106,J 67,Letter,N,TRUE,CV,q,q,1547,TRUE,1
CVOE_D,4,1,4,107,O 48,Number,Y,TRUE,OE,p,p,2089,TRUE,1
CVOE_D,4,1,4,108,P 22,Number,N,FALSE,OE,p,p,1805,TRUE,1
CVOE_D,4,1,4,109,S 86,Letter,Y,FALSE,CV,q,q,1125,TRUE,1
CVOE_D,4,1,4,110,U 35,Letter,N,FALSE,CV,p,p,1390,TRUE,1
CVOE_D,4,1,4,111,A 91,Number,Y,FALSE,OE,q,q,2092,TRUE,1
CVOE_D,4,1,4,112,D 78,Number,N,FALSE,OE,p,p,1952,TRUE,1
CVOE_D,4,1,4,113,E 91,Letter,Y,FALSE,CV,p,p,1406,TRUE,1
CVOE_D,4,1,4,114,H 54,Letter,N,FALSE,CV,q,q,1455,TRUE,1
CVOE_D,4,1,4,115,I 65,Number,Y,FALSE,OE,q,q,1410,TRUE,1
CVOE_D,4,1,4,116,J 52,Number,N,FALSE,OE,p,p,3014,TRUE,1
CVOE_D,4,1,4,117,O 19,Letter,Y,FALSE,CV,p,p,1386,TRUE,1
CVOE_D,4,1,4,118,P 48,Letter,N,FALSE,CV,q,q,1720,TRUE,1
CVOE_D,4,1,4,119,S 45,Number,Y,TRUE,OE,q,q,1345,TRUE,1
CVOE_D,4,1,4,120,U 26,Number,N,TRUE,OE,p,p,2135,TRUE,1
