"","ExperimentName","Subject","Group","Block","Trial","STIM","TASK","Switch","Congruent","CVOE","Response","Key","PCVstim.RT","Match","score"
"1","CVOE updated",1,1,1,11,"A 71","","",FALSE,"CV","p","p",2421,TRUE,1
"2","CVOE updated",1,1,1,12,"I 66","","",TRUE,"CV","p","p",717,TRUE,1
"3","CVOE updated",1,1,1,13,"S 30","","",FALSE,"CV","q","q",566,TRUE,1
"4","CVOE updated",1,1,1,14,"D 20","","",FALSE,"CV","q","q",868,TRUE,1
"5","CVOE updated",1,1,1,15,"I 31","","",FALSE,"CV","p","p",550,TRUE,1
"6","CVOE updated",1,1,1,16,"P 16","","",FALSE,"CV","q","q",731,TRUE,1
"7","CVOE updated",1,1,1,17,"A 49","","",FALSE,"CV","p","p",784,TRUE,1
"8","CVOE updated",1,1,1,18,"O 64","","",TRUE,"CV","p","p",1165,TRUE,1
"9","CVOE updated",1,1,1,19,"D 02","","",FALSE,"CV","q","q",1267,TRUE,1
"10","CVOE updated",1,1,1,20,"P 81","","",TRUE,"CV","q","q",1141,TRUE,1
"11","CVOE updated",1,1,1,21,"J 58","","",FALSE,"CV","q","q",3512,TRUE,1
"12","CVOE updated",1,1,1,22,"A 22","","",TRUE,"CV","p","p",492,TRUE,1
"13","CVOE updated",1,1,1,23,"J 72","","",FALSE,"CV","q","q",599,TRUE,1
"14","CVOE updated",1,1,1,24,"P 91","","",TRUE,"CV","q","q",590,TRUE,1
"15","CVOE updated",1,1,1,25,"E 19","","",FALSE,"CV","p","p",666,TRUE,1
"16","CVOE updated",1,1,1,26,"I 30","","",TRUE,"CV","p","p",710,TRUE,1
"17","CVOE updated",1,1,1,27,"D 91","","",TRUE,"CV","q","q",515,TRUE,1
"18","CVOE updated",1,1,1,28,"O 48","","",TRUE,"CV","p","p",823,TRUE,1
"19","CVOE updated",1,1,1,29,"A 89","","",FALSE,"CV","p","p",545,TRUE,1
"20","CVOE updated",1,1,1,30,"U 11","","",FALSE,"CV","p","p",736,TRUE,1
"21","CVOE updated",1,1,1,31,"I 76","","",TRUE,"CV","p","p",608,TRUE,1
"22","CVOE updated",1,1,1,32,"U 89","","",FALSE,"CV","p","p",978,TRUE,1
"23","CVOE updated",1,1,1,33,"D 63","","",TRUE,"CV","q","q",482,TRUE,1
"24","CVOE updated",1,1,1,34,"H 70","","",FALSE,"CV","q","q",795,TRUE,1
"25","CVOE updated",1,1,1,35,"D 48","","",FALSE,"CV","q","q",585,TRUE,1
"26","CVOE updated",1,1,1,36,"P 56","","",FALSE,"CV","p","q",520,FALSE,0
"27","CVOE updated",1,1,1,37,"O 77","","",FALSE,"CV","p","p",1241,TRUE,1
"28","CVOE updated",1,1,1,38,"P 42","","",FALSE,"CV","q","q",601,TRUE,1
"29","CVOE updated",1,1,1,39,"H 22","","",FALSE,"CV","q","q",808,TRUE,1
"30","CVOE updated",1,1,1,40,"E 42","","",TRUE,"CV","p","p",579,TRUE,1
"31","CVOE updated",1,1,1,41,"J 28","","",FALSE,"CV","q","q",537,TRUE,1
"32","CVOE updated",1,1,1,42,"E 95","","",FALSE,"CV","p","p",698,TRUE,1
"33","CVOE updated",1,1,1,43,"S 63","","",TRUE,"CV","q","q",1279,TRUE,1
"34","CVOE updated",1,1,1,44,"H 50","","",FALSE,"CV","q","q",1077,TRUE,1
"35","CVOE updated",1,1,1,45,"S 33","","",TRUE,"CV","q","q",619,TRUE,1
"36","CVOE updated",1,1,1,46,"P 57","","",TRUE,"CV","q","q",705,TRUE,1
"37","CVOE updated",1,1,1,47,"E 23","","",FALSE,"CV","p","p",568,TRUE,1
"38","CVOE updated",1,1,1,48,"S 61","","",TRUE,"CV","q","q",465,TRUE,1
"39","CVOE updated",1,1,1,49,"U 67","","",FALSE,"CV","p","p",564,TRUE,1
"40","CVOE updated",1,1,1,50,"H 32","","",FALSE,"CV","q","q",507,TRUE,1
"41","CVOE updated",1,1,1,51,"U 50","","",TRUE,"CV","p","p",635,TRUE,1
"42","CVOE updated",1,1,1,52,"O 49","","",FALSE,"CV","p","p",2704,TRUE,1
"43","CVOE updated",1,1,1,53,"U 32","","",TRUE,"CV","p","p",865,TRUE,1
"44","CVOE updated",1,1,1,54,"J 78","","",FALSE,"CV","q","q",523,TRUE,1
"45","CVOE updated",1,1,1,55,"S 54","","",FALSE,"CV","q","q",577,TRUE,1
"46","CVOE updated",1,1,1,56,"J 27","","",TRUE,"CV","q","q",680,TRUE,1
"47","CVOE updated",1,1,1,57,"S 06","","",FALSE,"CV","q","q",387,TRUE,1
"48","CVOE updated",1,1,1,58,"D 67","","",TRUE,"CV","q","q",411,TRUE,1
"49","CVOE updated",1,1,1,59,"A 79","","",FALSE,"CV","p","p",500,TRUE,1
"50","CVOE updated",1,1,1,60,"S 52","","",FALSE,"CV","q","q",490,TRUE,1
"51","CVOE updated",1,1,1,61,"U 16","","",TRUE,"CV","p","p",1018,TRUE,1
"52","CVOE updated",1,1,1,62,"O 82","","",TRUE,"CV","p","p",609,TRUE,1
"53","CVOE updated",1,1,1,63,"H 87","","",TRUE,"CV","q","q",586,TRUE,1
"54","CVOE updated",1,1,1,64,"I 32","","",TRUE,"CV","p","p",397,TRUE,1
"55","CVOE updated",1,1,1,65,"U 37","","",FALSE,"CV","p","p",543,TRUE,1
"56","CVOE updated",1,1,1,66,"I 42","","",TRUE,"CV","p","p",455,TRUE,1
"57","CVOE updated",1,1,1,67,"D 65","","",TRUE,"CV","q","q",432,TRUE,1
"58","CVOE updated",1,1,1,68,"U 77","","",FALSE,"CV","p","p",619,TRUE,1
"59","CVOE updated",1,1,1,69,"E 12","","",TRUE,"CV","p","p",464,TRUE,1
"60","CVOE updated",1,1,1,70,"I 60","","",TRUE,"CV","p","p",490,TRUE,1
"61","CVOE updated",1,1,1,71,"J 36","","",FALSE,"CV","q","q",545,TRUE,1
"62","CVOE updated",1,1,1,72,"H 75","","",TRUE,"CV","q","q",2057,TRUE,1
"63","CVOE updated",1,1,1,73,"I 50","","",TRUE,"CV","p","p",504,TRUE,1
"64","CVOE updated",1,1,1,74,"E 99","","",FALSE,"CV","p","p",771,TRUE,1
"65","CVOE updated",1,1,1,75,"A 86","","",TRUE,"CV","p","p",596,TRUE,1
"66","CVOE updated",1,1,1,76,"U 48","","",TRUE,"CV","p","p",514,TRUE,1
"67","CVOE updated",1,1,1,77,"E 01","","",FALSE,"CV","p","p",468,TRUE,1
"68","CVOE updated",1,1,1,78,"A 78","","",TRUE,"CV","p","p",356,TRUE,1
"69","CVOE updated",1,1,1,79,"P 60","","",FALSE,"CV","q","q",500,TRUE,1
"70","CVOE updated",1,1,1,80,"E 43","","",FALSE,"CV","p","p",662,TRUE,1
"71","CVOE updated",1,1,1,81,"D 69","","",TRUE,"CV","q","q",627,TRUE,1
"72","CVOE updated",1,1,1,82,"H 11","","",TRUE,"CV","q","q",634,TRUE,1
"73","CVOE updated",1,1,1,83,"P 43","","",TRUE,"CV","q","q",568,TRUE,1
"74","CVOE updated",1,1,1,84,"O 67","","",FALSE,"CV","p","p",433,TRUE,1
"75","CVOE updated",1,1,1,85,"S 91","","",FALSE,"CV","q","q",533,TRUE,1
"76","CVOE updated",1,1,1,86,"J 68","","",TRUE,"CV","q","q",674,TRUE,1
"77","CVOE updated",1,1,1,87,"S 47","","",FALSE,"CV","q","q",443,TRUE,1
"78","CVOE updated",1,1,1,88,"I 81","","",TRUE,"CV","p","p",478,TRUE,1
"79","CVOE updated",1,1,1,89,"J 39","","",FALSE,"CV","q","q",483,TRUE,1
"80","CVOE updated",1,1,1,90,"A 11","","",TRUE,"CV","p","p",454,TRUE,1
"81","CVOE updated",1,1,1,91,"O 76","","",FALSE,"CV","p","p",726,TRUE,1
"82","CVOE updated",1,1,1,92,"A 62","","",FALSE,"CV","p","p",563,TRUE,1
"83","CVOE updated",1,1,1,93,"O 27","","",TRUE,"CV","p","p",554,TRUE,1
"84","CVOE updated",1,1,1,94,"E 66","","",FALSE,"CV","p","p",653,TRUE,1
"85","CVOE updated",1,1,1,95,"J 62","","",TRUE,"CV","q","q",924,TRUE,1
"86","CVOE updated",1,1,1,96,"H 72","","",TRUE,"CV","q","q",541,TRUE,1
"87","CVOE updated",1,1,1,97,"E 49","","",TRUE,"CV","p","p",575,TRUE,1
"88","CVOE updated",1,1,1,98,"D 52","","",TRUE,"CV","q","q",754,TRUE,1
"89","CVOE updated",1,1,1,99,"H 62","","",TRUE,"CV","q","q",633,TRUE,1
"90","CVOE updated",1,1,1,100,"I 11","","",TRUE,"CV","p","p",544,TRUE,1
"91","CVOE updated",1,1,1,101,"A 98","","",FALSE,"CV","p","p",588,TRUE,1
"92","CVOE updated",1,1,1,102,"H 29","","",FALSE,"CV","q","q",516,TRUE,1
"93","CVOE updated",1,1,1,103,"E 83","","",TRUE,"CV","p","p",544,TRUE,1
"94","CVOE updated",1,1,1,104,"D 43","","",FALSE,"CV","q","q",919,TRUE,1
"95","CVOE updated",1,1,1,105,"P 45","","",TRUE,"CV","q","q",658,TRUE,1
"96","CVOE updated",1,1,1,106,"J 17","","",TRUE,"CV","q","q",504,TRUE,1
"97","CVOE updated",1,1,2,11,"A 24","","",TRUE,"OE","p","p",2299,TRUE,1
"98","CVOE updated",1,1,2,12,"O 83","","",FALSE,"OE","q","q",547,TRUE,1
"99","CVOE updated",1,1,2,13,"H 55","","",TRUE,"OE","q","q",1340,TRUE,1
"100","CVOE updated",1,1,2,14,"P 10","","",FALSE,"OE","p","p",1936,TRUE,1
"101","CVOE updated",1,1,2,15,"D 30","","",FALSE,"OE","p","p",667,TRUE,1
"102","CVOE updated",1,1,2,16,"U 62","","",TRUE,"OE","p","p",5075,TRUE,1
"103","CVOE updated",1,1,2,17,"P 95","","",TRUE,"OE","q","q",797,TRUE,1
"104","CVOE updated",1,1,2,18,"U 06","","",TRUE,"OE","p","p",910,TRUE,1
"105","CVOE updated",1,1,2,19,"E 75","","",FALSE,"OE","q","q",710,TRUE,1
"106","CVOE updated",1,1,2,20,"I 67","","",FALSE,"OE","q","q",1126,TRUE,1
"107","CVOE updated",1,1,2,21,"S 13","","",TRUE,"OE","q","q",638,TRUE,1
"108","CVOE updated",1,1,2,22,"P 78","","",FALSE,"OE","p","p",775,TRUE,1
"109","CVOE updated",1,1,2,23,"I 15","","",FALSE,"OE","q","q",1924,TRUE,1
"110","CVOE updated",1,1,2,24,"D 27","","",TRUE,"OE","q","q",968,TRUE,1
"111","CVOE updated",1,1,2,25,"O 94","","",TRUE,"OE","p","p",583,TRUE,1
"112","CVOE updated",1,1,2,26,"A 65","","",FALSE,"OE","q","q",622,TRUE,1
"113","CVOE updated",1,1,2,27,"I 42","","",TRUE,"OE","p","p",493,TRUE,1
"114","CVOE updated",1,1,2,28,"E 25","","",FALSE,"OE","q","q",683,TRUE,1
"115","CVOE updated",1,1,2,29,"H 49","","",TRUE,"OE","q","q",672,TRUE,1
"116","CVOE updated",1,1,2,30,"S 18","","",FALSE,"OE","p","p",772,TRUE,1
"117","CVOE updated",1,1,2,31,"H 51","","",TRUE,"OE","q","q",1035,TRUE,1
"118","CVOE updated",1,1,2,32,"U 14","","",TRUE,"OE","p","p",648,TRUE,1
"119","CVOE updated",1,1,2,33,"E 02","","",TRUE,"OE","q","p",462,FALSE,0
"120","CVOE updated",1,1,2,34,"J 26","","",FALSE,"OE","p","p",996,TRUE,1
"121","CVOE updated",1,1,2,35,"D 24","","",FALSE,"OE","p","p",704,TRUE,1
"122","CVOE updated",1,1,2,36,"O 50","","",TRUE,"OE","p","p",753,TRUE,1
"123","CVOE updated",1,1,2,37,"U 16","","",TRUE,"OE","p","p",615,TRUE,1
"124","CVOE updated",1,1,2,38,"O 15","","",FALSE,"OE","q","q",629,TRUE,1
"125","CVOE updated",1,1,2,39,"D 32","","",FALSE,"OE","p","p",593,TRUE,1
"126","CVOE updated",1,1,2,40,"S 67","","",TRUE,"OE","q","q",667,TRUE,1
"127","CVOE updated",1,1,2,41,"J 74","","",FALSE,"OE","p","p",584,TRUE,1
"128","CVOE updated",1,1,2,42,"D 92","","",FALSE,"OE","p","p",806,TRUE,1
"129","CVOE updated",1,1,2,43,"A 65","","",FALSE,"OE","q","q",910,TRUE,1
"130","CVOE updated",1,1,2,44,"I 87","","",FALSE,"OE","q","q",1626,TRUE,1
"131","CVOE updated",1,1,2,45,"H 61","","",TRUE,"OE","q","q",751,TRUE,1
"132","CVOE updated",1,1,2,46,"E 59","","",FALSE,"OE","q","q",1246,TRUE,1
"133","CVOE updated",1,1,2,47,"I 33","","",FALSE,"OE","q","q",1790,TRUE,1
"134","CVOE updated",1,1,2,48,"O 90","","",TRUE,"OE","p","p",1999,TRUE,1
"135","CVOE updated",1,1,2,49,"U 51","","",FALSE,"OE","q","q",1705,TRUE,1
"136","CVOE updated",1,1,2,50,"A 10","","",TRUE,"OE","p","p",809,TRUE,1
"137","CVOE updated",1,1,2,51,"E 50","","",TRUE,"OE","p","p",827,TRUE,1
"138","CVOE updated",1,1,2,52,"D 92","","",FALSE,"OE","p","p",645,TRUE,1
"139","CVOE updated",1,1,2,53,"E 60","","",TRUE,"OE","p","p",530,TRUE,1
"140","CVOE updated",1,1,2,54,"A 95","","",FALSE,"OE","q","q",670,TRUE,1
"141","CVOE updated",1,1,2,55,"E 64","","",TRUE,"OE","p","p",1069,TRUE,1
"142","CVOE updated",1,1,2,56,"P 20","","",FALSE,"OE","q","p",693,FALSE,0
"143","CVOE updated",1,1,2,57,"S 06","","",FALSE,"OE","p","p",992,TRUE,1
"144","CVOE updated",1,1,2,58,"P 64","","",FALSE,"OE","p","p",676,TRUE,1
"145","CVOE updated",1,1,2,59,"U 70","","",TRUE,"OE","p","p",931,TRUE,1
"146","CVOE updated",1,1,2,60,"S 16","","",FALSE,"OE","p","p",1158,TRUE,1
"147","CVOE updated",1,1,2,61,"E 35","","",FALSE,"OE","q","q",592,TRUE,1
"148","CVOE updated",1,1,2,62,"I 93","","",FALSE,"OE","q","q",1307,TRUE,1
"149","CVOE updated",1,1,2,63,"D 63","","",TRUE,"OE","q","q",809,TRUE,1
"150","CVOE updated",1,1,2,64,"U 89","","",FALSE,"OE","p","q",617,FALSE,0
"151","CVOE updated",1,1,2,65,"E 91","","",FALSE,"OE","q","q",550,TRUE,1
"152","CVOE updated",1,1,2,66,"A 12","","",TRUE,"OE","p","p",576,TRUE,1
"153","CVOE updated",1,1,2,67,"P 56","","",FALSE,"OE","q","p",580,FALSE,0
"154","CVOE updated",1,1,2,68,"S 65","","",TRUE,"OE","q","q",2551,TRUE,1
"155","CVOE updated",1,1,2,69,"P 07","","",TRUE,"OE","q","q",692,TRUE,1
"156","CVOE updated",1,1,2,70,"I 77","","",FALSE,"OE","q","q",514,TRUE,1
"157","CVOE updated",1,1,2,71,"J 19","","",TRUE,"OE","q","q",656,TRUE,1
"158","CVOE updated",1,1,2,72,"O 59","","",FALSE,"OE","q","q",577,TRUE,1
"159","CVOE updated",1,1,2,73,"J 15","","",TRUE,"OE","q","q",581,TRUE,1
"160","CVOE updated",1,1,2,74,"I 89","","",FALSE,"OE","q","q",530,TRUE,1
"161","CVOE updated",1,1,2,75,"O 97","","",FALSE,"OE","q","q",508,TRUE,1
"162","CVOE updated",1,1,2,76,"A 92","","",TRUE,"OE","p","p",601,TRUE,1
"163","CVOE updated",1,1,2,77,"J 90","","",FALSE,"OE","p","p",803,TRUE,1
"164","CVOE updated",1,1,2,78,"H 65","","",TRUE,"OE","q","q",548,TRUE,1
"165","CVOE updated",1,1,2,79,"H 17","","",TRUE,"OE","q","q",747,TRUE,1
"166","CVOE updated",1,1,2,80,"S 26","","",FALSE,"OE","p","p",856,TRUE,1
"167","CVOE updated",1,1,2,81,"D 56","","",FALSE,"OE","p","p",727,TRUE,1
"168","CVOE updated",1,1,2,82,"I 91","","",FALSE,"OE","q","q",604,TRUE,1
"169","CVOE updated",1,1,2,83,"J 11","","",TRUE,"OE","q","q",3823,TRUE,1
"170","CVOE updated",1,1,2,84,"O 28","","",TRUE,"OE","p","p",1164,TRUE,1
"171","CVOE updated",1,1,2,85,"H 29","","",TRUE,"OE","q","q",778,TRUE,1
"172","CVOE updated",1,1,2,86,"J 25","","",TRUE,"OE","q","q",676,TRUE,1
"173","CVOE updated",1,1,2,87,"A 73","","",FALSE,"OE","q","q",1936,TRUE,1
"174","CVOE updated",1,1,2,88,"J 63","","",TRUE,"OE","q","q",568,TRUE,1
"175","CVOE updated",1,1,2,89,"U 84","","",TRUE,"OE","p","p",657,TRUE,1
"176","CVOE updated",1,1,2,90,"A 58","","",TRUE,"OE","p","p",1580,TRUE,1
"177","CVOE updated",1,1,2,91,"S 43","","",TRUE,"OE","q","q",706,TRUE,1
"178","CVOE updated",1,1,2,92,"H 54","","",FALSE,"OE","p","p",479,TRUE,1
"179","CVOE updated",1,1,2,93,"D 4","","",FALSE,"OE","p","p",487,TRUE,1
"180","CVOE updated",1,1,2,94,"J 75","","",TRUE,"OE","q","q",561,TRUE,1
"181","CVOE updated",1,1,2,95,"D 19","","",TRUE,"OE","q","q",711,TRUE,1
"182","CVOE updated",1,1,2,96,"J 38","","",FALSE,"OE","p","p",2268,TRUE,1
"183","CVOE updated",1,1,2,97,"I 56","","",TRUE,"OE","p","p",858,TRUE,1
"184","CVOE updated",1,1,2,98,"P 87","","",TRUE,"OE","q","q",594,TRUE,1
"185","CVOE updated",1,1,2,99,"O 80","","",TRUE,"OE","p","p",633,TRUE,1
"186","CVOE updated",1,1,2,100,"U 60","","",TRUE,"OE","p","p",654,TRUE,1
"187","CVOE updated",1,1,2,101,"P 48","","",FALSE,"OE","p","p",783,TRUE,1
"188","CVOE updated",1,1,2,102,"H 64","","",FALSE,"OE","p","p",518,TRUE,1
"189","CVOE updated",1,1,2,103,"A 13","","",FALSE,"OE","q","q",895,TRUE,1
"190","CVOE updated",1,1,2,104,"H 68","","",FALSE,"OE","p","p",707,TRUE,1
"191","CVOE updated",1,1,2,105,"E 16","","",TRUE,"OE","p","p",394,TRUE,1
"192","CVOE updated",1,1,2,106,"S 71","","",TRUE,"OE","q","q",782,TRUE,1
"193","CVOE updated",1,1,3,11,"A 44","Letter","N",TRUE,"CV","q","p",6278,FALSE,0
"194","CVOE updated",1,1,3,12,"D 94","Letter","N",FALSE,"CV","q","q",774,TRUE,1
"195","CVOE updated",1,1,3,13,"E 75","Number","Y",FALSE,"OE","q","p",984,FALSE,0
"196","CVOE updated",1,1,3,14,"H 81","Number","N",TRUE,"OE","q","p",1156,FALSE,0
"197","CVOE updated",1,1,3,15,"I 64","Letter","Y",TRUE,"CV","p","p",1870,TRUE,1
"198","CVOE updated",1,1,3,16,"J 54","Letter","N",FALSE,"CV","q","q",1302,TRUE,1
"199","CVOE updated",1,1,3,17,"O 23","Number","Y",FALSE,"OE","q","q",1080,TRUE,1
"200","CVOE updated",1,1,3,18,"P 05","Number","N",TRUE,"OE","q","q",1037,TRUE,1
"201","CVOE updated",1,1,3,19,"S 34","Letter","Y",FALSE,"CV","q","q",2284,TRUE,1
"202","CVOE updated",1,1,3,20,"U 88","Letter","N",TRUE,"CV","p","p",2358,TRUE,1
"203","CVOE updated",1,1,3,21,"A 70","Number","Y",TRUE,"OE","p","p",5140,TRUE,1
"204","CVOE updated",1,1,3,22,"D 12","Number","N",FALSE,"OE","p","p",2017,TRUE,1
"205","CVOE updated",1,1,3,23,"E 79","Letter","Y",FALSE,"CV","p","p",1120,TRUE,1
"206","CVOE updated",1,1,3,24,"H 72","Letter","N",FALSE,"CV","q","q",1383,TRUE,1
"207","CVOE updated",1,1,3,25,"I 41","Number","Y",FALSE,"OE","q","q",1162,TRUE,1
"208","CVOE updated",1,1,3,26,"J 63","Number","N",TRUE,"OE","q","q",754,TRUE,1
"209","CVOE updated",1,1,3,27,"O 03","Letter","Y",FALSE,"CV","p","p",1394,TRUE,1
"210","CVOE updated",1,1,3,28,"P 75","Letter","N",TRUE,"CV","q","q",920,TRUE,1
"211","CVOE updated",1,1,3,29,"S 61","Number","Y",TRUE,"OE","q","q",1259,TRUE,1
"212","CVOE updated",1,1,3,30,"U 28","Number","N",TRUE,"OE","p","p",1628,TRUE,1
"213","CVOE updated",1,1,3,31,"A 21","Letter","Y",FALSE,"CV","p","p",1202,TRUE,1
"214","CVOE updated",1,1,3,32,"D 18","Letter","N",FALSE,"CV","q","q",696,TRUE,1
"215","CVOE updated",1,1,3,33,"E 35","Number","Y",FALSE,"OE","q","q",3027,TRUE,1
"216","CVOE updated",1,1,3,34,"H 62","Number","N",FALSE,"OE","p","p",5937,TRUE,1
"217","CVOE updated",1,1,3,35,"I 82","Letter","Y",TRUE,"CV","p","p",4390,TRUE,1
"218","CVOE updated",1,1,3,36,"J 78","Letter","N",FALSE,"CV","q","q",1014,TRUE,1
"219","CVOE updated",1,1,3,37,"O 12","Number","Y",TRUE,"OE","p","p",900,TRUE,1
"220","CVOE updated",1,1,3,38,"P 13","Number","N",TRUE,"OE","q","q",1314,TRUE,1
"221","CVOE updated",1,1,3,39,"S 07","Letter","Y",TRUE,"CV","q","q",1870,TRUE,1
"222","CVOE updated",1,1,3,40,"U 36","Letter","N",TRUE,"CV","p","p",1065,TRUE,1
"223","CVOE updated",1,1,3,41,"A 96","Number","Y",TRUE,"OE","p","p",1780,TRUE,1
"224","CVOE updated",1,1,3,42,"D 04","Number","N",FALSE,"OE","p","p",1409,TRUE,1
"225","CVOE updated",1,1,3,43,"E 60","Letter","Y",TRUE,"CV","p","p",3064,TRUE,1
"226","CVOE updated",1,1,3,44,"H 83","Letter","N",TRUE,"CV","q","q",3153,TRUE,1
"227","CVOE updated",1,1,3,45,"I 64","Number","Y",TRUE,"OE","p","p",876,TRUE,1
"228","CVOE updated",1,1,3,46,"J 76","Number","N",FALSE,"OE","p","p",2779,TRUE,1
"229","CVOE updated",1,1,3,47,"O 78","Letter","Y",TRUE,"CV","p","p",1225,TRUE,1
"230","CVOE updated",1,1,3,48,"P 09","Letter","N",TRUE,"CV","q","q",1086,TRUE,1
"231","CVOE updated",1,1,3,49,"S 72","Number","Y",FALSE,"OE","p","p",1121,TRUE,1
"232","CVOE updated",1,1,3,50,"U 47","Number","N",FALSE,"OE","q","q",1416,TRUE,1
"233","CVOE updated",1,1,3,51,"A 31","Letter","Y",FALSE,"CV","p","p",10266,TRUE,1
"234","CVOE updated",1,1,3,52,"D 96","Letter","N",FALSE,"CV","q","q",815,TRUE,1
"235","CVOE updated",1,1,3,53,"E 40","Number","Y",TRUE,"OE","p","p",1455,TRUE,1
"236","CVOE updated",1,1,3,54,"H 79","Number","N",TRUE,"OE","q","q",1198,TRUE,1
"237","CVOE updated",1,1,3,55,"I 15","Letter","Y",FALSE,"CV","p","p",1813,TRUE,1
"238","CVOE updated",1,1,3,56,"J 07","Letter","N",TRUE,"CV","q","q",659,TRUE,1
"239","CVOE updated",1,1,3,57,"O 61","Number","Y",FALSE,"OE","q","q",1764,TRUE,1
"240","CVOE updated",1,1,3,58,"P 58","Number","N",FALSE,"OE","p","p",3112,TRUE,1
"241","CVOE updated",1,1,3,59,"S 37","Letter","Y",TRUE,"CV","q","q",1908,TRUE,1
"242","CVOE updated",1,1,3,60,"U 61","Letter","N",FALSE,"CV","p","p",2186,TRUE,1
"243","CVOE updated",1,1,3,61,"A 17","Number","Y",FALSE,"OE","q","q",2114,TRUE,1
"244","CVOE updated",1,1,3,62,"D 85","Number","N",TRUE,"OE","q","q",2260,TRUE,1
"245","CVOE updated",1,1,3,63,"E 20","Letter","Y",TRUE,"CV","p","p",1388,TRUE,1
"246","CVOE updated",1,1,3,64,"H 86","Letter","N",FALSE,"CV","q","q",1471,TRUE,1
"247","CVOE updated",1,1,3,65,"I 21","Number","Y",FALSE,"OE","q","q",1775,TRUE,1
"248","CVOE updated",1,1,3,66,"J 29","Number","N",TRUE,"OE","q","q",1514,TRUE,1
"249","CVOE updated",1,1,3,67,"O 13","Letter","Y",FALSE,"CV","p","p",1135,TRUE,1
"250","CVOE updated",1,1,3,68,"P 82","Letter","N",FALSE,"CV","q","q",1062,TRUE,1
"251","CVOE updated",1,1,3,69,"S 72","Number","Y",FALSE,"OE","p","p",1697,TRUE,1
"252","CVOE updated",1,1,3,70,"U 84","Number","N",TRUE,"OE","p","p",1048,TRUE,1
"253","CVOE updated",1,1,3,71,"A 49","Letter","Y",FALSE,"CV","p","p",1002,TRUE,1
"254","CVOE updated",1,1,3,72,"D 91","Letter","N",TRUE,"CV","q","q",1549,TRUE,1
"255","CVOE updated",1,1,3,73,"E 99","Number","Y",FALSE,"OE","q","q",4038,TRUE,1
"256","CVOE updated",1,1,3,74,"H 16","Number","N",FALSE,"OE","p","p",7549,TRUE,1
"257","CVOE updated",1,1,3,75,"I 45","Letter","Y",FALSE,"CV","p","p",943,TRUE,1
"258","CVOE updated",1,1,3,76,"J 70","Letter","N",FALSE,"CV","q","q",846,TRUE,1
"259","CVOE updated",1,1,3,77,"O 22","Number","Y",TRUE,"OE","p","p",839,TRUE,1
"260","CVOE updated",1,1,3,78,"P 41","Number","N",TRUE,"OE","q","q",1393,TRUE,1
"261","CVOE updated",1,1,3,79,"S 93","Letter","Y",TRUE,"CV","q","q",1807,TRUE,1
"262","CVOE updated",1,1,3,80,"U 70","Letter","N",TRUE,"CV","p","p",1438,TRUE,1
"263","CVOE updated",1,1,3,81,"A 42","Number","Y",TRUE,"OE","p","p",1096,TRUE,1
"264","CVOE updated",1,1,3,82,"D 85","Number","N",TRUE,"OE","q","q",1199,TRUE,1
"265","CVOE updated",1,1,3,83,"E 68","Letter","Y",TRUE,"CV","p","p",1284,TRUE,1
"266","CVOE updated",1,1,3,84,"H 17","Letter","N",TRUE,"CV","q","q",2257,TRUE,1
"267","CVOE updated",1,1,3,85,"I 70","Number","Y",TRUE,"OE","p","p",1831,TRUE,1
"268","CVOE updated",1,1,3,86,"J 88","Number","N",FALSE,"OE","p","p",1482,TRUE,1
"269","CVOE updated",1,1,3,87,"O 32","Letter","Y",TRUE,"CV","p","p",2011,TRUE,1
"270","CVOE updated",1,1,3,88,"P 95","Letter","N",TRUE,"CV","q","q",1299,TRUE,1
"271","CVOE updated",1,1,3,89,"S 98","Number","Y",FALSE,"OE","p","p",1619,TRUE,1
"272","CVOE updated",1,1,3,90,"U 37","Number","N",FALSE,"OE","q","q",3488,TRUE,1
"273","CVOE updated",1,1,3,91,"A 56","Letter","Y",TRUE,"CV","p","p",1727,TRUE,1
"274","CVOE updated",1,1,3,92,"D 57","Letter","N",TRUE,"CV","q","q",1528,TRUE,1
"275","CVOE updated",1,1,3,93,"E 93","Number","Y",FALSE,"OE","q","q",5791,TRUE,1
"276","CVOE updated",1,1,3,94,"H 27","Number","N",TRUE,"OE","q","q",3451,TRUE,1
"277","CVOE updated",1,1,3,95,"I 35","Letter","Y",FALSE,"CV","p","p",1576,TRUE,1
"278","CVOE updated",1,1,3,96,"J 03","Letter","N",TRUE,"CV","q","q",1591,TRUE,1
"279","CVOE updated",1,1,3,97,"O 28","Number","Y",TRUE,"OE","p","p",1625,TRUE,1
"280","CVOE updated",1,1,3,98,"P 59","Number","N",TRUE,"OE","q","q",1582,TRUE,1
"281","CVOE updated",1,1,3,99,"S 77","Letter","Y",TRUE,"CV","q","q",1615,TRUE,1
"282","CVOE updated",1,1,3,100,"U 05","Letter","N",FALSE,"CV","p","p",1443,TRUE,1
"283","CVOE updated",1,1,3,101,"A 56","Number","Y",TRUE,"OE","p","p",762,TRUE,1
"284","CVOE updated",1,1,3,102,"D 01","Number","N",TRUE,"OE","q","q",6122,TRUE,1
"285","CVOE updated",1,1,3,103,"E 02","Letter","Y",TRUE,"CV","p","p",1375,TRUE,1
"286","CVOE updated",1,1,3,104,"H 68","Letter","N",FALSE,"CV","q","q",629,TRUE,1
"287","CVOE updated",1,1,3,105,"I 05","Number","Y",FALSE,"OE","q","q",2611,TRUE,1
"288","CVOE updated",1,1,3,106,"J 55","Number","N",TRUE,"OE","q","q",3697,TRUE,1
"289","CVOE updated",1,1,3,107,"O 73","Letter","Y",FALSE,"CV","p","p",1232,TRUE,1
"290","CVOE updated",1,1,3,108,"P 41","Letter","N",TRUE,"CV","q","q",853,TRUE,1
"291","CVOE updated",1,1,3,109,"S 92","Number","Y",FALSE,"OE","p","p",750,TRUE,1
"292","CVOE updated",1,1,3,110,"U 34","Number","N",TRUE,"OE","p","p",1159,TRUE,1
"293","CVOE updated",1,1,3,111,"A 09","Letter","Y",FALSE,"CV","p","p",762,TRUE,1
"294","CVOE updated",1,1,3,112,"D 92","Letter","N",FALSE,"CV","q","q",895,TRUE,1
"295","CVOE updated",1,1,3,113,"E 48","Number","Y",TRUE,"OE","p","p",1284,TRUE,1
"296","CVOE updated",1,1,3,114,"H 76","Number","N",FALSE,"OE","p","p",1240,TRUE,1
"297","CVOE updated",1,1,3,115,"I 44","Letter","Y",TRUE,"CV","p","p",1313,TRUE,1
"298","CVOE updated",1,1,3,116,"J 67","Letter","N",TRUE,"CV","q","q",1384,TRUE,1
"299","CVOE updated",1,1,3,117,"O 48","Number","Y",TRUE,"OE","p","p",1539,TRUE,1
"300","CVOE updated",1,1,3,118,"P 22","Number","N",FALSE,"OE","p","p",733,TRUE,1
"301","CVOE updated",1,1,3,119,"S 86","Letter","Y",FALSE,"CV","q","q",772,TRUE,1
"302","CVOE updated",1,1,3,120,"U 35","Letter","N",FALSE,"CV","p","p",5854,TRUE,1
"303","CVOE updated",1,1,3,121,"A 91","Number","Y",FALSE,"OE","q","q",1633,TRUE,1
"304","CVOE updated",1,1,3,122,"D 78","Number","N",FALSE,"OE","p","p",2228,TRUE,1
"305","CVOE updated",1,1,3,123,"E 91","Letter","Y",FALSE,"CV","p","p",2778,TRUE,1
"306","CVOE updated",1,1,3,124,"H 54","Letter","N",FALSE,"CV","q","q",2236,TRUE,1
"307","CVOE updated",1,1,3,125,"I 65","Number","Y",FALSE,"OE","q","q",1487,TRUE,1
"308","CVOE updated",1,1,3,126,"J 52","Number","N",FALSE,"OE","p","p",1996,TRUE,1
"309","CVOE updated",1,1,3,127,"O 19","Letter","Y",FALSE,"CV","q","p",3051,FALSE,0
"310","CVOE updated",1,1,3,128,"P 48","Letter","N",FALSE,"CV","q","q",4402,TRUE,1
"311","CVOE updated",1,1,3,129,"S 45","Number","Y",TRUE,"OE","q","q",1531,TRUE,1
"312","CVOE updated",1,1,3,130,"U 26","Number","N",TRUE,"OE","p","p",1440,TRUE,1
"313","CVOE updated",1,1,4,1,"U 38","Number","N",TRUE,"OE","p","p",5292,TRUE,1
"314","CVOE updated",1,1,4,2,"P 73","Number","N",TRUE,"OE","q","q",1932,TRUE,1
"315","CVOE updated",1,1,4,3,"U 95","Letter","Y",FALSE,"CV","p","p",1226,TRUE,1
"316","CVOE updated",1,1,4,4,"J 61","Number","Y",TRUE,"OE","q","q",2957,TRUE,1
"317","CVOE updated",1,1,4,5,"D 51","Number","N",TRUE,"OE","q","q",987,TRUE,1
"318","CVOE updated",1,1,4,6,"S 28","Number","N",FALSE,"OE","p","p",1200,TRUE,1
"319","CVOE updated",1,1,4,7,"A 56","Letter","Y",TRUE,"CV","p","p",3599,TRUE,1
"320","CVOE updated",1,1,4,8,"H 78","Letter","N",FALSE,"CV","q","q",808,TRUE,1
"321","CVOE updated",1,1,4,9,"P 92","Letter","N",FALSE,"CV","q","q",1335,TRUE,1
"322","CVOE updated",1,1,4,10,"E 05","Number","Y",FALSE,"OE","q","q",1172,TRUE,1
"323","CVOE updated",1,1,4,11,"P 57","Letter","Y",TRUE,"CV","q","q",2877,TRUE,1
"324","CVOE updated",1,1,4,12,"D 88","Number","Y",FALSE,"OE","p","p",1027,TRUE,1
"325","CVOE updated",1,1,4,13,"O 89","Letter","Y",FALSE,"CV","p","p",5851,TRUE,1
"326","CVOE updated",1,1,4,14,"U 43","Number","Y",FALSE,"OE","q","q",1175,TRUE,1
"327","CVOE updated",1,1,4,15,"H 10","Number","N",FALSE,"OE","q","p",1280,FALSE,0
"328","CVOE updated",1,1,4,16,"S 07","Letter","Y",TRUE,"CV","q","q",5824,TRUE,1
"329","CVOE updated",1,1,4,17,"J 10","Letter","N",FALSE,"CV","q","q",3833,TRUE,1
"330","CVOE updated",1,1,4,18,"H 54","Number","Y",FALSE,"OE","p","p",2301,TRUE,1
"331","CVOE updated",1,1,4,19,"E 99","Number","N",FALSE,"OE","q","q",1059,TRUE,1
"332","CVOE updated",1,1,4,20,"J 36","Letter","Y",FALSE,"CV","q","q",783,TRUE,1
"333","CVOE updated",1,1,4,21,"I 94","Letter","N",TRUE,"CV","p","p",817,TRUE,1
"334","CVOE updated",1,1,4,22,"A 82","Letter","N",TRUE,"CV","q","p",726,FALSE,0
"335","CVOE updated",1,1,4,23,"H 79","Number","Y",TRUE,"OE","q","q",1530,TRUE,1
"336","CVOE updated",1,1,4,24,"J 60","Number","N",FALSE,"OE","p","p",1129,TRUE,1
"337","CVOE updated",1,1,4,25,"S 28","Letter","Y",FALSE,"CV","q","q",1179,TRUE,1
"338","CVOE updated",1,1,4,26,"P 11","Number","Y",TRUE,"OE","q","q",1071,TRUE,1
"339","CVOE updated",1,1,4,27,"D 39","Number","N",TRUE,"OE","q","q",1155,TRUE,1
"340","CVOE updated",1,1,4,28,"E 90","Number","N",TRUE,"OE","p","p",981,TRUE,1
"341","CVOE updated",1,1,4,29,"I 38","Number","N",TRUE,"OE","p","p",963,TRUE,1
"342","CVOE updated",1,1,4,30,"S 35","Letter","Y",TRUE,"CV","q","q",1658,TRUE,1
"343","CVOE updated",1,1,4,31,"D 41","Number","Y",TRUE,"OE","q","q",973,TRUE,1
"344","CVOE updated",1,1,4,32,"E 06","Number","N",TRUE,"OE","p","p",1234,TRUE,1
"345","CVOE updated",1,1,4,33,"A 27","Number","N",FALSE,"OE","q","q",1374,TRUE,1
"346","CVOE updated",1,1,4,34,"U 95","Letter","Y",FALSE,"CV","p","p",938,TRUE,1
"347","CVOE updated",1,1,4,35,"A 53","Letter","N",FALSE,"CV","p","p",4786,TRUE,1
"348","CVOE updated",1,1,4,36,"E 43","Letter","N",FALSE,"CV","p","p",1022,TRUE,1
"349","CVOE updated",1,1,4,37,"P 05","Number","Y",TRUE,"OE","q","q",979,TRUE,1
"350","CVOE updated",1,1,4,38,"O 19","Letter","Y",FALSE,"CV","p","p",1300,TRUE,1
"351","CVOE updated",1,1,4,39,"I 96","Number","Y",TRUE,"OE","p","p",1439,TRUE,1
"352","CVOE updated",1,1,4,40,"A 88","Number","N",TRUE,"OE","p","p",864,TRUE,1
"353","CVOE updated",1,1,4,41,"I 67","Number","N",FALSE,"OE","q","q",905,TRUE,1
"354","CVOE updated",1,1,4,42,"D 40","Number","N",FALSE,"OE","p","p",1213,TRUE,1
"355","CVOE updated",1,1,4,43,"P 79","Letter","Y",TRUE,"CV","q","q",1144,TRUE,1
"356","CVOE updated",1,1,4,44,"U 24","Number","Y",TRUE,"OE","p","p",858,TRUE,1
"357","CVOE updated",1,1,4,45,"P 74","Number","N",FALSE,"OE","p","p",926,TRUE,1
"358","CVOE updated",1,1,4,46,"E 70","Number","N",TRUE,"OE","p","p",1649,TRUE,1
"359","CVOE updated",1,1,4,47,"S 27","Number","N",TRUE,"OE","q","q",2335,TRUE,1
"360","CVOE updated",1,1,4,48,"E 54","Letter","Y",TRUE,"CV","p","p",1254,TRUE,1
"361","CVOE updated",1,1,4,49,"A 53","Letter","N",FALSE,"CV","p","p",1707,TRUE,1
"362","CVOE updated",1,1,4,50,"P 34","Letter","N",FALSE,"CV","q","q",1039,TRUE,1
"363","CVOE updated",1,1,4,51,"D 74","Number","Y",FALSE,"OE","p","p",985,TRUE,1
"364","CVOE updated",1,1,4,52,"A 03","Letter","Y",FALSE,"CV","p","p",1161,TRUE,1
"365","CVOE updated",1,1,4,53,"E 24","Number","Y",TRUE,"OE","p","p",2948,TRUE,1
"366","CVOE updated",1,1,4,54,"I 58","Letter","Y",TRUE,"CV","p","p",1091,TRUE,1
"367","CVOE updated",1,1,4,55,"D 77","Number","Y",TRUE,"OE","q","q",2110,TRUE,1
"368","CVOE updated",1,1,4,56,"S 75","Number","N",TRUE,"OE","q","q",918,TRUE,1
"369","CVOE updated",1,1,4,57,"I 20","Letter","Y",TRUE,"CV","p","p",710,TRUE,1
"370","CVOE updated",1,1,4,58,"J 52","Letter","N",FALSE,"CV","q","q",975,TRUE,1
"371","CVOE updated",1,1,4,59,"A 38","Number","Y",TRUE,"OE","p","p",1220,TRUE,1
"372","CVOE updated",1,1,4,60,"I 60","Letter","Y",TRUE,"CV","p","p",2420,TRUE,1
"373","CVOE updated",1,1,4,61,"S 51","Number","Y",TRUE,"OE","q","q",1665,TRUE,1
"374","CVOE updated",1,1,4,62,"D 63","Letter","Y",TRUE,"CV","q","q",2185,TRUE,1
"375","CVOE updated",1,1,4,63,"U 27","Letter","N",FALSE,"CV","p","p",6219,TRUE,1
"376","CVOE updated",1,1,4,64,"J 77","Letter","N",TRUE,"CV","q","q",1186,TRUE,1
"377","CVOE updated",1,1,4,65,"O 15","Number","Y",FALSE,"OE","q","q",1133,TRUE,1
"378","CVOE updated",1,1,4,66,"J 20","Letter","Y",FALSE,"CV","q","q",1726,TRUE,1
"379","CVOE updated",1,1,4,67,"U 97","Number","Y",FALSE,"OE","q","q",6335,TRUE,1
"380","CVOE updated",1,1,4,68,"H 03","Number","N",TRUE,"OE","q","q",1239,TRUE,1
"381","CVOE updated",1,1,4,69,"O 04","Letter","Y",TRUE,"CV","p","p",1319,TRUE,1
"382","CVOE updated",1,1,4,70,"E 10","Letter","N",TRUE,"CV","q","p",3155,FALSE,0
"383","CVOE updated",1,1,4,71,"I 52","Letter","N",TRUE,"CV","p","p",1806,TRUE,1
"384","CVOE updated",1,1,4,72,"H 81","Number","Y",TRUE,"OE","q","q",6920,TRUE,1
"385","CVOE updated",1,1,4,73,"I 41","Number","N",FALSE,"OE","q","q",1291,TRUE,1
"386","CVOE updated",1,1,4,74,"U 19","Letter","Y",FALSE,"CV","p","p",647,TRUE,1
"387","CVOE updated",1,1,4,75,"O 17","Number","Y",FALSE,"OE","q","q",824,TRUE,1
"388","CVOE updated",1,1,4,76,"A 10","Number","N",TRUE,"OE","q","p",4511,FALSE,0
"389","CVOE updated",1,1,4,77,"P 93","Letter","Y",TRUE,"CV","q","q",869,TRUE,1
"390","CVOE updated",1,1,4,78,"E 59","Letter","N",FALSE,"CV","p","p",798,TRUE,1
"391","CVOE updated",1,1,4,79,"O 53","Letter","N",FALSE,"CV","p","p",879,TRUE,1
"392","CVOE updated",1,1,4,80,"A 96","Letter","N",TRUE,"CV","p","p",485,TRUE,1
"393","CVOE updated",1,1,4,81,"H 36","Letter","Y",FALSE,"CV","q","q",579,TRUE,1
"394","CVOE updated",1,1,4,82,"A 63","Letter","N",FALSE,"CV","p","p",678,TRUE,1
"395","CVOE updated",1,1,4,83,"I 38","Letter","N",TRUE,"CV","p","p",718,TRUE,1
"396","CVOE updated",1,1,4,84,"O 51","Number","Y",FALSE,"OE","p","q",1197,FALSE,0
"397","CVOE updated",1,1,4,85,"J 26","Number","N",FALSE,"OE","p","p",2397,TRUE,1
"398","CVOE updated",1,1,4,86,"S 34","Letter","Y",FALSE,"CV","q","q",1180,TRUE,1
"399","CVOE updated",1,1,4,87,"U 85","Number","Y",FALSE,"OE","q","q",1321,TRUE,1
"400","CVOE updated",1,1,4,88,"J 77","Number","N",TRUE,"OE","p","q",838,FALSE,0
"401","CVOE updated",1,1,4,89,"I 73","Letter","Y",FALSE,"CV","q","p",878,FALSE,0
"402","CVOE updated",1,1,4,90,"H 46","Number","Y",FALSE,"OE","p","p",1878,TRUE,1
"403","CVOE updated",1,1,4,91,"D 04","Number","N",FALSE,"OE","p","p",708,TRUE,1
"404","CVOE updated",1,1,4,92,"P 72","Letter","Y",FALSE,"CV","q","q",1689,TRUE,1
"405","CVOE updated",1,1,4,93,"D 99","Number","Y",TRUE,"OE","q","q",1797,TRUE,1
"406","CVOE updated",1,1,4,94,"U 25","Letter","Y",FALSE,"CV","p","p",3180,TRUE,1
"407","CVOE updated",1,1,4,95,"O 32","Letter","N",TRUE,"CV","p","p",1867,TRUE,1
"408","CVOE updated",1,1,4,96,"E 80","Letter","N",TRUE,"CV","p","p",2146,TRUE,1
"409","CVOE updated",1,1,4,97,"O 84","Number","Y",TRUE,"OE","p","p",1198,TRUE,1
"410","CVOE updated",1,1,4,98,"A 78","Number","N",TRUE,"OE","p","p",832,TRUE,1
"411","CVOE updated",1,1,4,99,"S 05","Number","N",TRUE,"OE","q","q",743,TRUE,1
"412","CVOE updated",1,1,4,100,"U 35","Letter","Y",FALSE,"CV","p","p",1013,TRUE,1
"413","CVOE updated",1,1,4,101,"H 14","Letter","N",FALSE,"CV","q","q",935,TRUE,1
"414","CVOE updated",1,1,4,102,"U 15","Number","Y",FALSE,"OE","q","q",1025,TRUE,1
"415","CVOE updated",1,1,4,103,"E 36","Letter","Y",TRUE,"CV","p","p",836,TRUE,1
"416","CVOE updated",1,1,4,104,"P 70","Letter","N",FALSE,"CV","q","q",657,TRUE,1
"417","CVOE updated",1,1,4,105,"O 44","Number","Y",TRUE,"OE","p","p",843,TRUE,1
"418","CVOE updated",1,1,4,106,"S 41","Letter","Y",TRUE,"CV","q","q",761,TRUE,1
"419","CVOE updated",1,1,4,107,"D 83","Letter","N",TRUE,"CV","q","q",883,TRUE,1
"420","CVOE updated",1,1,4,108,"J 39","Letter","N",TRUE,"CV","q","q",579,TRUE,1
"421","CVOE updated",1,1,4,109,"S 22","Number","Y",FALSE,"OE","q","p",604,FALSE,0
"422","CVOE updated",1,1,4,110,"D 89","Letter","Y",TRUE,"CV","q","q",1851,TRUE,1
"423","CVOE updated",1,1,4,111,"P 87","Letter","N",TRUE,"CV","q","q",915,TRUE,1
"424","CVOE updated",1,1,4,112,"H 42","Letter","N",FALSE,"CV","q","q",630,TRUE,1
"425","CVOE updated",1,1,4,113,"S 49","Letter","N",TRUE,"CV","q","q",1074,TRUE,1
"426","CVOE updated",1,1,4,114,"J 20","Number","Y",FALSE,"OE","p","p",1095,TRUE,1
"427","CVOE updated",1,1,4,115,"O 19","Letter","Y",FALSE,"CV","q","p",3728,FALSE,0
"428","CVOE updated",1,1,4,116,"H 50","Letter","N",FALSE,"CV","q","q",4138,TRUE,1
"429","CVOE updated",1,1,4,117,"I 68","Number","Y",TRUE,"OE","p","p",2103,TRUE,1
"430","CVOE updated",1,1,4,118,"J 72","Number","N",FALSE,"OE","p","p",4069,TRUE,1
"431","CVOE updated",1,1,4,119,"O 21","Number","N",FALSE,"OE","q","q",831,TRUE,1
"432","CVOE updated",1,1,4,120,"H 22","Number","N",FALSE,"OE","p","p",987,TRUE,1
"433","CVOE updated",9,1,1,11,"A 71","","",FALSE,"CV","p","p",1803,TRUE,1
"434","CVOE updated",9,1,1,12,"I 66","","",TRUE,"CV","p","p",612,TRUE,1
"435","CVOE updated",9,1,1,13,"S 30","","",FALSE,"CV","q","q",487,TRUE,1
"436","CVOE updated",9,1,1,14,"D 20","","",FALSE,"CV","q","q",571,TRUE,1
"437","CVOE updated",9,1,1,15,"I 31","","",FALSE,"CV","p","p",526,TRUE,1
"438","CVOE updated",9,1,1,16,"P 16","","",FALSE,"CV","q","q",590,TRUE,1
"439","CVOE updated",9,1,1,17,"A 49","","",FALSE,"CV","p","p",524,TRUE,1
"440","CVOE updated",9,1,1,18,"O 64","","",TRUE,"CV","p","p",612,TRUE,1
"441","CVOE updated",9,1,1,19,"D 02","","",FALSE,"CV","q","q",471,TRUE,1
"442","CVOE updated",9,1,1,20,"P 81","","",TRUE,"CV","q","q",765,TRUE,1
"443","CVOE updated",9,1,1,21,"J 58","","",FALSE,"CV","q","q",749,TRUE,1
"444","CVOE updated",9,1,1,22,"A 22","","",TRUE,"CV","p","p",475,TRUE,1
"445","CVOE updated",9,1,1,23,"J 72","","",FALSE,"CV","q","q",532,TRUE,1
"446","CVOE updated",9,1,1,24,"P 91","","",TRUE,"CV","q","q",535,TRUE,1
"447","CVOE updated",9,1,1,25,"E 19","","",FALSE,"CV","p","p",450,TRUE,1
"448","CVOE updated",9,1,1,26,"I 30","","",TRUE,"CV","p","p",453,TRUE,1
"449","CVOE updated",9,1,1,27,"D 91","","",TRUE,"CV","q","q",488,TRUE,1
"450","CVOE updated",9,1,1,28,"O 48","","",TRUE,"CV","p","p",531,TRUE,1
"451","CVOE updated",9,1,1,29,"A 89","","",FALSE,"CV","p","p",566,TRUE,1
"452","CVOE updated",9,1,1,30,"U 11","","",FALSE,"CV","p","p",542,TRUE,1
"453","CVOE updated",9,1,1,31,"I 76","","",TRUE,"CV","p","p",420,TRUE,1
"454","CVOE updated",9,1,1,32,"U 89","","",FALSE,"CV","p","p",450,TRUE,1
"455","CVOE updated",9,1,1,33,"D 63","","",TRUE,"CV","q","q",461,TRUE,1
"456","CVOE updated",9,1,1,34,"H 70","","",FALSE,"CV","q","q",475,TRUE,1
"457","CVOE updated",9,1,1,35,"D 48","","",FALSE,"CV","q","q",451,TRUE,1
"458","CVOE updated",9,1,1,36,"P 56","","",FALSE,"CV","q","q",502,TRUE,1
"459","CVOE updated",9,1,1,37,"O 77","","",FALSE,"CV","p","p",444,TRUE,1
"460","CVOE updated",9,1,1,38,"P 42","","",FALSE,"CV","q","q",756,TRUE,1
"461","CVOE updated",9,1,1,39,"H 22","","",FALSE,"CV","q","q",693,TRUE,1
"462","CVOE updated",9,1,1,40,"E 42","","",TRUE,"CV","p","p",344,TRUE,1
"463","CVOE updated",9,1,1,41,"J 28","","",FALSE,"CV","q","q",1029,TRUE,1
"464","CVOE updated",9,1,1,42,"E 95","","",FALSE,"CV","p","p",595,TRUE,1
"465","CVOE updated",9,1,1,43,"S 63","","",TRUE,"CV","q","q",508,TRUE,1
"466","CVOE updated",9,1,1,44,"H 50","","",FALSE,"CV","q","q",449,TRUE,1
"467","CVOE updated",9,1,1,45,"S 33","","",TRUE,"CV","q","q",476,TRUE,1
"468","CVOE updated",9,1,1,46,"P 57","","",TRUE,"CV","q","q",541,TRUE,1
"469","CVOE updated",9,1,1,47,"E 23","","",FALSE,"CV","p","p",459,TRUE,1
"470","CVOE updated",9,1,1,48,"S 61","","",TRUE,"CV","q","q",422,TRUE,1
"471","CVOE updated",9,1,1,49,"U 67","","",FALSE,"CV","p","p",515,TRUE,1
"472","CVOE updated",9,1,1,50,"H 32","","",FALSE,"CV","q","q",540,TRUE,1
"473","CVOE updated",9,1,1,51,"U 50","","",TRUE,"CV","p","p",575,TRUE,1
"474","CVOE updated",9,1,1,52,"O 49","","",FALSE,"CV","p","p",554,TRUE,1
"475","CVOE updated",9,1,1,53,"U 32","","",TRUE,"CV","p","p",530,TRUE,1
"476","CVOE updated",9,1,1,54,"J 78","","",FALSE,"CV","q","q",509,TRUE,1
"477","CVOE updated",9,1,1,55,"S 54","","",FALSE,"CV","q","q",571,TRUE,1
"478","CVOE updated",9,1,1,56,"J 27","","",TRUE,"CV","q","q",550,TRUE,1
"479","CVOE updated",9,1,1,57,"S 06","","",FALSE,"CV","q","q",612,TRUE,1
"480","CVOE updated",9,1,1,58,"D 67","","",TRUE,"CV","q","q",487,TRUE,1
"481","CVOE updated",9,1,1,59,"A 79","","",FALSE,"CV","p","p",482,TRUE,1
"482","CVOE updated",9,1,1,60,"S 52","","",FALSE,"CV","q","q",498,TRUE,1
"483","CVOE updated",9,1,1,61,"U 16","","",TRUE,"CV","p","p",526,TRUE,1
"484","CVOE updated",9,1,1,62,"O 82","","",TRUE,"CV","p","p",430,TRUE,1
"485","CVOE updated",9,1,1,63,"H 87","","",TRUE,"CV","q","q",516,TRUE,1
"486","CVOE updated",9,1,1,64,"I 32","","",TRUE,"CV","p","p",372,TRUE,1
"487","CVOE updated",9,1,1,65,"U 37","","",FALSE,"CV","p","p",455,TRUE,1
"488","CVOE updated",9,1,1,66,"I 42","","",TRUE,"CV","p","p",466,TRUE,1
"489","CVOE updated",9,1,1,67,"D 65","","",TRUE,"CV","q","q",400,TRUE,1
"490","CVOE updated",9,1,1,68,"U 77","","",FALSE,"CV","p","p",472,TRUE,1
"491","CVOE updated",9,1,1,69,"E 12","","",TRUE,"CV","p","p",462,TRUE,1
"492","CVOE updated",9,1,1,70,"I 60","","",TRUE,"CV","p","p",452,TRUE,1
"493","CVOE updated",9,1,1,71,"J 36","","",FALSE,"CV","q","q",423,TRUE,1
"494","CVOE updated",9,1,1,72,"H 75","","",TRUE,"CV","q","q",492,TRUE,1
"495","CVOE updated",9,1,1,73,"I 50","","",TRUE,"CV","p","p",535,TRUE,1
"496","CVOE updated",9,1,1,74,"E 99","","",FALSE,"CV","p","p",450,TRUE,1
"497","CVOE updated",9,1,1,75,"A 86","","",TRUE,"CV","p","p",437,TRUE,1
"498","CVOE updated",9,1,1,76,"U 48","","",TRUE,"CV","p","p",510,TRUE,1
"499","CVOE updated",9,1,1,77,"E 01","","",FALSE,"CV","p","p",484,TRUE,1
"500","CVOE updated",9,1,1,78,"A 78","","",TRUE,"CV","p","p",444,TRUE,1
"501","CVOE updated",9,1,1,79,"P 60","","",FALSE,"CV","q","q",468,TRUE,1
"502","CVOE updated",9,1,1,80,"E 43","","",FALSE,"CV","p","p",458,TRUE,1
"503","CVOE updated",9,1,1,81,"D 69","","",TRUE,"CV","q","q",413,TRUE,1
"504","CVOE updated",9,1,1,82,"H 11","","",TRUE,"CV","q","q",520,TRUE,1
"505","CVOE updated",9,1,1,83,"P 43","","",TRUE,"CV","q","q",1016,TRUE,1
"506","CVOE updated",9,1,1,84,"O 67","","",FALSE,"CV","p","p",484,TRUE,1
"507","CVOE updated",9,1,1,85,"S 91","","",FALSE,"CV","q","q",476,TRUE,1
"508","CVOE updated",9,1,1,86,"J 68","","",TRUE,"CV","q","q",444,TRUE,1
"509","CVOE updated",9,1,1,87,"S 47","","",FALSE,"CV","q","q",501,TRUE,1
"510","CVOE updated",9,1,1,88,"I 81","","",TRUE,"CV","p","p",499,TRUE,1
"511","CVOE updated",9,1,1,89,"J 39","","",FALSE,"CV","q","q",438,TRUE,1
"512","CVOE updated",9,1,1,90,"A 11","","",TRUE,"CV","p","p",526,TRUE,1
"513","CVOE updated",9,1,1,91,"O 76","","",FALSE,"CV","p","p",398,TRUE,1
"514","CVOE updated",9,1,1,92,"A 62","","",FALSE,"CV","p","p",415,TRUE,1
"515","CVOE updated",9,1,1,93,"O 27","","",TRUE,"CV","p","p",394,TRUE,1
"516","CVOE updated",9,1,1,94,"E 66","","",FALSE,"CV","p","p",466,TRUE,1
"517","CVOE updated",9,1,1,95,"J 62","","",TRUE,"CV","q","q",448,TRUE,1
"518","CVOE updated",9,1,1,96,"H 72","","",TRUE,"CV","q","q",507,TRUE,1
"519","CVOE updated",9,1,1,97,"E 49","","",TRUE,"CV","p","p",417,TRUE,1
"520","CVOE updated",9,1,1,98,"D 52","","",TRUE,"CV","q","q",460,TRUE,1
"521","CVOE updated",9,1,1,99,"H 62","","",TRUE,"CV","q","q",383,TRUE,1
"522","CVOE updated",9,1,1,100,"I 11","","",TRUE,"CV","p","p",372,TRUE,1
"523","CVOE updated",9,1,1,101,"A 98","","",FALSE,"CV","p","p",367,TRUE,1
"524","CVOE updated",9,1,1,102,"H 29","","",FALSE,"CV","q","q",426,TRUE,1
"525","CVOE updated",9,1,1,103,"E 83","","",TRUE,"CV","p","p",488,TRUE,1
"526","CVOE updated",9,1,1,104,"D 43","","",FALSE,"CV","q","q",459,TRUE,1
"527","CVOE updated",9,1,1,105,"P 45","","",TRUE,"CV","q","q",502,TRUE,1
"528","CVOE updated",9,1,1,106,"J 17","","",TRUE,"CV","q","q",420,TRUE,1
"529","CVOE updated",9,1,2,11,"A 24","","",TRUE,"OE","p","p",1538,TRUE,1
"530","CVOE updated",9,1,2,12,"O 83","","",FALSE,"OE","q","q",509,TRUE,1
"531","CVOE updated",9,1,2,13,"H 55","","",TRUE,"OE","q","q",502,TRUE,1
"532","CVOE updated",9,1,2,14,"P 10","","",FALSE,"OE","p","p",708,TRUE,1
"533","CVOE updated",9,1,2,15,"D 30","","",FALSE,"OE","p","p",409,TRUE,1
"534","CVOE updated",9,1,2,16,"U 62","","",TRUE,"OE","p","p",516,TRUE,1
"535","CVOE updated",9,1,2,17,"P 95","","",TRUE,"OE","q","q",421,TRUE,1
"536","CVOE updated",9,1,2,18,"U 06","","",TRUE,"OE","p","p",459,TRUE,1
"537","CVOE updated",9,1,2,19,"E 75","","",FALSE,"OE","q","q",446,TRUE,1
"538","CVOE updated",9,1,2,20,"I 67","","",FALSE,"OE","q","q",710,TRUE,1
"539","CVOE updated",9,1,2,21,"S 13","","",TRUE,"OE","q","q",524,TRUE,1
"540","CVOE updated",9,1,2,22,"P 78","","",FALSE,"OE","p","p",612,TRUE,1
"541","CVOE updated",9,1,2,23,"I 15","","",FALSE,"OE","q","q",503,TRUE,1
"542","CVOE updated",9,1,2,24,"D 27","","",TRUE,"OE","p","q",485,FALSE,0
"543","CVOE updated",9,1,2,25,"O 94","","",TRUE,"OE","p","p",701,TRUE,1
"544","CVOE updated",9,1,2,26,"A 65","","",FALSE,"OE","q","q",555,TRUE,1
"545","CVOE updated",9,1,2,27,"I 42","","",TRUE,"OE","p","p",628,TRUE,1
"546","CVOE updated",9,1,2,28,"E 25","","",FALSE,"OE","q","q",505,TRUE,1
"547","CVOE updated",9,1,2,29,"H 49","","",TRUE,"OE","q","q",687,TRUE,1
"548","CVOE updated",9,1,2,30,"S 18","","",FALSE,"OE","p","p",514,TRUE,1
"549","CVOE updated",9,1,2,31,"H 51","","",TRUE,"OE","q","q",563,TRUE,1
"550","CVOE updated",9,1,2,32,"U 14","","",TRUE,"OE","p","p",555,TRUE,1
"551","CVOE updated",9,1,2,33,"E 02","","",TRUE,"OE","p","p",707,TRUE,1
"552","CVOE updated",9,1,2,34,"J 26","","",FALSE,"OE","p","p",409,TRUE,1
"553","CVOE updated",9,1,2,35,"D 24","","",FALSE,"OE","p","p",380,TRUE,1
"554","CVOE updated",9,1,2,36,"O 50","","",TRUE,"OE","p","p",538,TRUE,1
"555","CVOE updated",9,1,2,37,"U 16","","",TRUE,"OE","p","p",565,TRUE,1
"556","CVOE updated",9,1,2,38,"O 15","","",FALSE,"OE","q","q",485,TRUE,1
"557","CVOE updated",9,1,2,39,"D 32","","",FALSE,"OE","p","p",726,TRUE,1
"558","CVOE updated",9,1,2,40,"S 67","","",TRUE,"OE","q","q",470,TRUE,1
"559","CVOE updated",9,1,2,41,"J 74","","",FALSE,"OE","p","p",524,TRUE,1
"560","CVOE updated",9,1,2,42,"D 92","","",FALSE,"OE","p","p",500,TRUE,1
"561","CVOE updated",9,1,2,43,"A 65","","",FALSE,"OE","q","q",546,TRUE,1
"562","CVOE updated",9,1,2,44,"I 87","","",FALSE,"OE","q","q",416,TRUE,1
"563","CVOE updated",9,1,2,45,"H 61","","",TRUE,"OE","q","q",523,TRUE,1
"564","CVOE updated",9,1,2,46,"E 59","","",FALSE,"OE","q","q",483,TRUE,1
"565","CVOE updated",9,1,2,47,"I 33","","",FALSE,"OE","q","q",548,TRUE,1
"566","CVOE updated",9,1,2,48,"O 90","","",TRUE,"OE","p","p",473,TRUE,1
"567","CVOE updated",9,1,2,49,"U 51","","",FALSE,"OE","q","q",535,TRUE,1
"568","CVOE updated",9,1,2,50,"A 10","","",TRUE,"OE","p","p",578,TRUE,1
"569","CVOE updated",9,1,2,51,"E 50","","",TRUE,"OE","p","p",493,TRUE,1
"570","CVOE updated",9,1,2,52,"D 92","","",FALSE,"OE","p","p",416,TRUE,1
"571","CVOE updated",9,1,2,53,"E 60","","",TRUE,"OE","p","p",403,TRUE,1
"572","CVOE updated",9,1,2,54,"A 95","","",FALSE,"OE","q","q",436,TRUE,1
"573","CVOE updated",9,1,2,55,"E 64","","",TRUE,"OE","p","p",828,TRUE,1
"574","CVOE updated",9,1,2,56,"P 20","","",FALSE,"OE","p","p",490,TRUE,1
"575","CVOE updated",9,1,2,57,"S 06","","",FALSE,"OE","p","p",397,TRUE,1
"576","CVOE updated",9,1,2,58,"P 64","","",FALSE,"OE","p","p",581,TRUE,1
"577","CVOE updated",9,1,2,59,"U 70","","",TRUE,"OE","p","p",611,TRUE,1
"578","CVOE updated",9,1,2,60,"S 16","","",FALSE,"OE","p","p",518,TRUE,1
"579","CVOE updated",9,1,2,61,"E 35","","",FALSE,"OE","q","q",599,TRUE,1
"580","CVOE updated",9,1,2,62,"I 93","","",FALSE,"OE","q","q",503,TRUE,1
"581","CVOE updated",9,1,2,63,"D 63","","",TRUE,"OE","q","q",429,TRUE,1
"582","CVOE updated",9,1,2,64,"U 89","","",FALSE,"OE","q","q",562,TRUE,1
"583","CVOE updated",9,1,2,65,"E 91","","",FALSE,"OE","q","q",555,TRUE,1
"584","CVOE updated",9,1,2,66,"A 12","","",TRUE,"OE","p","p",451,TRUE,1
"585","CVOE updated",9,1,2,67,"P 56","","",FALSE,"OE","p","p",606,TRUE,1
"586","CVOE updated",9,1,2,68,"S 65","","",TRUE,"OE","q","q",463,TRUE,1
"587","CVOE updated",9,1,2,69,"P 07","","",TRUE,"OE","p","q",620,FALSE,0
"588","CVOE updated",9,1,2,70,"I 77","","",FALSE,"OE","q","q",1666,TRUE,1
"589","CVOE updated",9,1,2,71,"J 19","","",TRUE,"OE","q","q",464,TRUE,1
"590","CVOE updated",9,1,2,72,"O 59","","",FALSE,"OE","q","q",430,TRUE,1
"591","CVOE updated",9,1,2,73,"J 15","","",TRUE,"OE","q","q",460,TRUE,1
"592","CVOE updated",9,1,2,74,"I 89","","",FALSE,"OE","q","q",391,TRUE,1
"593","CVOE updated",9,1,2,75,"O 97","","",FALSE,"OE","q","q",476,TRUE,1
"594","CVOE updated",9,1,2,76,"A 92","","",TRUE,"OE","p","p",589,TRUE,1
"595","CVOE updated",9,1,2,77,"J 90","","",FALSE,"OE","p","p",387,TRUE,1
"596","CVOE updated",9,1,2,78,"H 65","","",TRUE,"OE","q","q",496,TRUE,1
"597","CVOE updated",9,1,2,79,"H 17","","",TRUE,"OE","q","q",427,TRUE,1
"598","CVOE updated",9,1,2,80,"S 26","","",FALSE,"OE","p","p",529,TRUE,1
"599","CVOE updated",9,1,2,81,"D 56","","",FALSE,"OE","p","p",436,TRUE,1
"600","CVOE updated",9,1,2,82,"I 91","","",FALSE,"OE","q","q",620,TRUE,1
"601","CVOE updated",9,1,2,83,"J 11","","",TRUE,"OE","q","q",626,TRUE,1
"602","CVOE updated",9,1,2,84,"O 28","","",TRUE,"OE","p","p",536,TRUE,1
"603","CVOE updated",9,1,2,85,"H 29","","",TRUE,"OE","q","q",579,TRUE,1
"604","CVOE updated",9,1,2,86,"J 25","","",TRUE,"OE","q","q",574,TRUE,1
"605","CVOE updated",9,1,2,87,"A 73","","",FALSE,"OE","q","q",537,TRUE,1
"606","CVOE updated",9,1,2,88,"J 63","","",TRUE,"OE","q","q",396,TRUE,1
"607","CVOE updated",9,1,2,89,"U 84","","",TRUE,"OE","q","p",445,FALSE,0
"608","CVOE updated",9,1,2,90,"A 58","","",TRUE,"OE","p","p",605,TRUE,1
"609","CVOE updated",9,1,2,91,"S 43","","",TRUE,"OE","q","q",613,TRUE,1
"610","CVOE updated",9,1,2,92,"H 54","","",FALSE,"OE","p","p",601,TRUE,1
"611","CVOE updated",9,1,2,93,"D 4","","",FALSE,"OE","p","p",537,TRUE,1
"612","CVOE updated",9,1,2,94,"J 75","","",TRUE,"OE","q","q",540,TRUE,1
"613","CVOE updated",9,1,2,95,"D 19","","",TRUE,"OE","q","q",559,TRUE,1
"614","CVOE updated",9,1,2,96,"J 38","","",FALSE,"OE","p","p",952,TRUE,1
"615","CVOE updated",9,1,2,97,"I 56","","",TRUE,"OE","p","p",453,TRUE,1
"616","CVOE updated",9,1,2,98,"P 87","","",TRUE,"OE","q","q",504,TRUE,1
"617","CVOE updated",9,1,2,99,"O 80","","",TRUE,"OE","p","p",470,TRUE,1
"618","CVOE updated",9,1,2,100,"U 60","","",TRUE,"OE","p","p",404,TRUE,1
"619","CVOE updated",9,1,2,101,"P 48","","",FALSE,"OE","q","p",484,FALSE,0
"620","CVOE updated",9,1,2,102,"H 64","","",FALSE,"OE","p","p",565,TRUE,1
"621","CVOE updated",9,1,2,103,"A 13","","",FALSE,"OE","q","q",485,TRUE,1
"622","CVOE updated",9,1,2,104,"H 68","","",FALSE,"OE","p","p",597,TRUE,1
"623","CVOE updated",9,1,2,105,"E 16","","",TRUE,"OE","p","p",430,TRUE,1
"624","CVOE updated",9,1,2,106,"S 71","","",TRUE,"OE","q","q",468,TRUE,1
"625","CVOE updated",9,1,3,11,"A 44","Letter","N",TRUE,"CV","p","p",2527,TRUE,1
"626","CVOE updated",9,1,3,12,"D 94","Letter","N",FALSE,"CV","q","q",898,TRUE,1
"627","CVOE updated",9,1,3,13,"E 75","Number","Y",FALSE,"OE","q","p",1238,FALSE,0
"628","CVOE updated",9,1,3,14,"H 81","Number","N",TRUE,"OE","q","p",790,FALSE,0
"629","CVOE updated",9,1,3,15,"I 64","Letter","Y",TRUE,"CV","p","p",908,TRUE,1
"630","CVOE updated",9,1,3,16,"J 54","Letter","N",FALSE,"CV","q","q",794,TRUE,1
"631","CVOE updated",9,1,3,17,"O 23","Number","Y",FALSE,"OE","q","q",1051,TRUE,1
"632","CVOE updated",9,1,3,18,"P 05","Number","N",TRUE,"OE","q","q",782,TRUE,1
"633","CVOE updated",9,1,3,19,"S 34","Letter","Y",FALSE,"CV","q","q",956,TRUE,1
"634","CVOE updated",9,1,3,20,"U 88","Letter","N",TRUE,"CV","p","p",900,TRUE,1
"635","CVOE updated",9,1,3,21,"A 70","Number","Y",TRUE,"OE","p","p",1882,TRUE,1
"636","CVOE updated",9,1,3,22,"D 12","Number","N",FALSE,"OE","p","p",955,TRUE,1
"637","CVOE updated",9,1,3,23,"E 79","Letter","Y",FALSE,"CV","p","p",916,TRUE,1
"638","CVOE updated",9,1,3,24,"H 72","Letter","N",FALSE,"CV","q","q",876,TRUE,1
"639","CVOE updated",9,1,3,25,"I 41","Number","Y",FALSE,"OE","q","q",1141,TRUE,1
"640","CVOE updated",9,1,3,26,"J 63","Number","N",TRUE,"OE","q","q",875,TRUE,1
"641","CVOE updated",9,1,3,27,"O 03","Letter","Y",FALSE,"CV","p","p",1155,TRUE,1
"642","CVOE updated",9,1,3,28,"P 75","Letter","N",TRUE,"CV","q","q",820,TRUE,1
"643","CVOE updated",9,1,3,29,"S 61","Number","Y",TRUE,"OE","q","q",1343,TRUE,1
"644","CVOE updated",9,1,3,30,"U 28","Number","N",TRUE,"OE","p","p",797,TRUE,1
"645","CVOE updated",9,1,3,31,"A 21","Letter","Y",FALSE,"CV","p","p",1374,TRUE,1
"646","CVOE updated",9,1,3,32,"D 18","Letter","N",FALSE,"CV","q","q",1417,TRUE,1
"647","CVOE updated",9,1,3,33,"E 35","Number","Y",FALSE,"OE","q","q",2820,TRUE,1
"648","CVOE updated",9,1,3,34,"H 62","Number","N",FALSE,"OE","p","p",803,TRUE,1
"649","CVOE updated",9,1,3,35,"I 82","Letter","Y",TRUE,"CV","p","p",970,TRUE,1
"650","CVOE updated",9,1,3,36,"J 78","Letter","N",FALSE,"CV","q","q",1199,TRUE,1
"651","CVOE updated",9,1,3,37,"O 12","Number","Y",TRUE,"OE","p","p",1703,TRUE,1
"652","CVOE updated",9,1,3,38,"P 13","Number","N",TRUE,"OE","q","q",2326,TRUE,1
"653","CVOE updated",9,1,3,39,"S 07","Letter","Y",TRUE,"CV","q","q",1863,TRUE,1
"654","CVOE updated",9,1,3,40,"U 36","Letter","N",TRUE,"CV","p","p",1157,TRUE,1
"655","CVOE updated",9,1,3,41,"A 96","Number","Y",TRUE,"OE","p","p",974,TRUE,1
"656","CVOE updated",9,1,3,42,"D 04","Number","N",FALSE,"OE","p","p",713,TRUE,1
"657","CVOE updated",9,1,3,43,"E 60","Letter","Y",TRUE,"CV","p","p",823,TRUE,1
"658","CVOE updated",9,1,3,44,"H 83","Letter","N",TRUE,"CV","q","q",900,TRUE,1
"659","CVOE updated",9,1,3,45,"I 64","Number","Y",TRUE,"OE","p","p",754,TRUE,1
"660","CVOE updated",9,1,3,46,"J 76","Number","N",FALSE,"OE","p","p",907,TRUE,1
"661","CVOE updated",9,1,3,47,"O 78","Letter","Y",TRUE,"CV","p","p",1529,TRUE,1
"662","CVOE updated",9,1,3,48,"P 09","Letter","N",TRUE,"CV","q","q",1164,TRUE,1
"663","CVOE updated",9,1,3,49,"S 72","Number","Y",FALSE,"OE","p","p",1189,TRUE,1
"664","CVOE updated",9,1,3,50,"U 47","Number","N",FALSE,"OE","q","q",1442,TRUE,1
"665","CVOE updated",9,1,3,51,"A 31","Letter","Y",FALSE,"CV","p","p",931,TRUE,1
"666","CVOE updated",9,1,3,52,"D 96","Letter","N",FALSE,"CV","q","q",799,TRUE,1
"667","CVOE updated",9,1,3,53,"E 40","Number","Y",TRUE,"OE","p","p",1223,TRUE,1
"668","CVOE updated",9,1,3,54,"H 79","Number","N",TRUE,"OE","q","q",1229,TRUE,1
"669","CVOE updated",9,1,3,55,"I 15","Letter","Y",FALSE,"CV","p","p",1515,TRUE,1
"670","CVOE updated",9,1,3,56,"J 07","Letter","N",TRUE,"CV","q","q",1188,TRUE,1
"671","CVOE updated",9,1,3,57,"O 61","Number","Y",FALSE,"OE","q","q",970,TRUE,1
"672","CVOE updated",9,1,3,58,"P 58","Number","N",FALSE,"OE","p","p",1260,TRUE,1
"673","CVOE updated",9,1,3,59,"S 37","Letter","Y",TRUE,"CV","q","q",971,TRUE,1
"674","CVOE updated",9,1,3,60,"U 61","Letter","N",FALSE,"CV","p","p",1158,TRUE,1
"675","CVOE updated",9,1,3,61,"A 17","Number","Y",FALSE,"OE","q","q",1087,TRUE,1
"676","CVOE updated",9,1,3,62,"D 85","Number","N",TRUE,"OE","q","q",994,TRUE,1
"677","CVOE updated",9,1,3,63,"E 20","Letter","Y",TRUE,"CV","p","p",1211,TRUE,1
"678","CVOE updated",9,1,3,64,"H 86","Letter","N",FALSE,"CV","q","q",774,TRUE,1
"679","CVOE updated",9,1,3,65,"I 21","Number","Y",FALSE,"OE","q","q",1401,TRUE,1
"680","CVOE updated",9,1,3,66,"J 29","Number","N",TRUE,"OE","q","q",738,TRUE,1
"681","CVOE updated",9,1,3,67,"O 13","Letter","Y",FALSE,"CV","p","p",1173,TRUE,1
"682","CVOE updated",9,1,3,68,"P 82","Letter","N",FALSE,"CV","q","q",3137,TRUE,1
"683","CVOE updated",9,1,3,69,"S 72","Number","Y",FALSE,"OE","p","p",949,TRUE,1
"684","CVOE updated",9,1,3,70,"U 84","Number","N",TRUE,"OE","p","p",795,TRUE,1
"685","CVOE updated",9,1,3,71,"A 49","Letter","Y",FALSE,"CV","p","p",987,TRUE,1
"686","CVOE updated",9,1,3,72,"D 91","Letter","N",TRUE,"CV","q","q",1129,TRUE,1
"687","CVOE updated",9,1,3,73,"E 99","Number","Y",FALSE,"OE","q","q",996,TRUE,1
"688","CVOE updated",9,1,3,74,"H 16","Number","N",FALSE,"OE","p","p",1157,TRUE,1
"689","CVOE updated",9,1,3,75,"I 45","Letter","Y",FALSE,"CV","p","p",750,TRUE,1
"690","CVOE updated",9,1,3,76,"J 70","Letter","N",FALSE,"CV","q","q",1259,TRUE,1
"691","CVOE updated",9,1,3,77,"O 22","Number","Y",TRUE,"OE","p","p",743,TRUE,1
"692","CVOE updated",9,1,3,78,"P 41","Number","N",TRUE,"OE","q","q",844,TRUE,1
"693","CVOE updated",9,1,3,79,"S 93","Letter","Y",TRUE,"CV","q","q",1133,TRUE,1
"694","CVOE updated",9,1,3,80,"U 70","Letter","N",TRUE,"CV","p","p",1808,TRUE,1
"695","CVOE updated",9,1,3,81,"A 42","Number","Y",TRUE,"OE","p","p",860,TRUE,1
"696","CVOE updated",9,1,3,82,"D 85","Number","N",TRUE,"OE","q","q",935,TRUE,1
"697","CVOE updated",9,1,3,83,"E 68","Letter","Y",TRUE,"CV","p","p",794,TRUE,1
"698","CVOE updated",9,1,3,84,"H 17","Letter","N",TRUE,"CV","q","q",818,TRUE,1
"699","CVOE updated",9,1,3,85,"I 70","Number","Y",TRUE,"OE","p","p",758,TRUE,1
"700","CVOE updated",9,1,3,86,"J 88","Number","N",FALSE,"OE","p","p",998,TRUE,1
"701","CVOE updated",9,1,3,87,"O 32","Letter","Y",TRUE,"CV","p","p",1639,TRUE,1
"702","CVOE updated",9,1,3,88,"P 95","Letter","N",TRUE,"CV","q","q",688,TRUE,1
"703","CVOE updated",9,1,3,89,"S 98","Number","Y",FALSE,"OE","p","p",2483,TRUE,1
"704","CVOE updated",9,1,3,90,"U 37","Number","N",FALSE,"OE","q","q",1124,TRUE,1
"705","CVOE updated",9,1,3,91,"A 56","Letter","Y",TRUE,"CV","p","p",749,TRUE,1
"706","CVOE updated",9,1,3,92,"D 57","Letter","N",TRUE,"CV","q","q",947,TRUE,1
"707","CVOE updated",9,1,3,93,"E 93","Number","Y",FALSE,"OE","q","q",944,TRUE,1
"708","CVOE updated",9,1,3,94,"H 27","Number","N",TRUE,"OE","q","q",1078,TRUE,1
"709","CVOE updated",9,1,3,95,"I 35","Letter","Y",FALSE,"CV","p","p",807,TRUE,1
"710","CVOE updated",9,1,3,96,"J 03","Letter","N",TRUE,"CV","q","q",826,TRUE,1
"711","CVOE updated",9,1,3,97,"O 28","Number","Y",TRUE,"OE","p","p",736,TRUE,1
"712","CVOE updated",9,1,3,98,"P 59","Number","N",TRUE,"OE","q","q",971,TRUE,1
"713","CVOE updated",9,1,3,99,"S 77","Letter","Y",TRUE,"CV","q","q",1958,TRUE,1
"714","CVOE updated",9,1,3,100,"U 05","Letter","N",FALSE,"CV","p","p",783,TRUE,1
"715","CVOE updated",9,1,3,101,"A 56","Number","Y",TRUE,"OE","p","p",909,TRUE,1
"716","CVOE updated",9,1,3,102,"D 01","Number","N",TRUE,"OE","q","q",1203,TRUE,1
"717","CVOE updated",9,1,3,103,"E 02","Letter","Y",TRUE,"CV","p","p",1123,TRUE,1
"718","CVOE updated",9,1,3,104,"H 68","Letter","N",FALSE,"CV","q","q",988,TRUE,1
"719","CVOE updated",9,1,3,105,"I 05","Number","Y",FALSE,"OE","q","q",866,TRUE,1
"720","CVOE updated",9,1,3,106,"J 55","Number","N",TRUE,"OE","q","q",1200,TRUE,1
"721","CVOE updated",9,1,3,107,"O 73","Letter","Y",FALSE,"CV","p","p",1897,TRUE,1
"722","CVOE updated",9,1,3,108,"P 41","Letter","N",TRUE,"CV","q","q",2124,TRUE,1
"723","CVOE updated",9,1,3,109,"S 92","Number","Y",FALSE,"OE","p","p",1836,TRUE,1
"724","CVOE updated",9,1,3,110,"U 34","Number","N",TRUE,"OE","p","p",1574,TRUE,1
"725","CVOE updated",9,1,3,111,"A 09","Letter","Y",FALSE,"CV","p","p",905,TRUE,1
"726","CVOE updated",9,1,3,112,"D 92","Letter","N",FALSE,"CV","q","q",1000,TRUE,1
"727","CVOE updated",9,1,3,113,"E 48","Number","Y",TRUE,"OE","p","p",1976,TRUE,1
"728","CVOE updated",9,1,3,114,"H 76","Number","N",FALSE,"OE","p","p",836,TRUE,1
"729","CVOE updated",9,1,3,115,"I 44","Letter","Y",TRUE,"CV","p","p",812,TRUE,1
"730","CVOE updated",9,1,3,116,"J 67","Letter","N",TRUE,"CV","q","q",1022,TRUE,1
"731","CVOE updated",9,1,3,117,"O 48","Number","Y",TRUE,"OE","p","p",1068,TRUE,1
"732","CVOE updated",9,1,3,118,"P 22","Number","N",FALSE,"OE","p","p",1067,TRUE,1
"733","CVOE updated",9,1,3,119,"S 86","Letter","Y",FALSE,"CV","q","q",848,TRUE,1
"734","CVOE updated",9,1,3,120,"U 35","Letter","N",FALSE,"CV","p","p",1476,TRUE,1
"735","CVOE updated",9,1,3,121,"A 91","Number","Y",FALSE,"OE","q","q",836,TRUE,1
"736","CVOE updated",9,1,3,122,"D 78","Number","N",FALSE,"OE","p","p",1206,TRUE,1
"737","CVOE updated",9,1,3,123,"E 91","Letter","Y",FALSE,"CV","p","p",813,TRUE,1
"738","CVOE updated",9,1,3,124,"H 54","Letter","N",FALSE,"CV","q","q",753,TRUE,1
"739","CVOE updated",9,1,3,125,"I 65","Number","Y",FALSE,"OE","q","q",999,TRUE,1
"740","CVOE updated",9,1,3,126,"J 52","Number","N",FALSE,"OE","p","p",895,TRUE,1
"741","CVOE updated",9,1,3,127,"O 19","Letter","Y",FALSE,"CV","q","p",795,FALSE,0
"742","CVOE updated",9,1,3,128,"P 48","Letter","N",FALSE,"CV","q","q",2012,TRUE,1
"743","CVOE updated",9,1,3,129,"S 45","Number","Y",TRUE,"OE","q","q",1647,TRUE,1
"744","CVOE updated",9,1,3,130,"U 26","Number","N",TRUE,"OE","p","p",1811,TRUE,1
"745","CVOE updated",9,1,4,1,"U 38","Number","N",TRUE,"OE","p","p",2025,TRUE,1
"746","CVOE updated",9,1,4,2,"P 73","Number","N",TRUE,"OE","q","q",1150,TRUE,1
"747","CVOE updated",9,1,4,3,"U 95","Letter","Y",FALSE,"CV","p","p",764,TRUE,1
"748","CVOE updated",9,1,4,4,"J 61","Number","Y",TRUE,"OE","q","q",1037,TRUE,1
"749","CVOE updated",9,1,4,5,"D 51","Number","N",TRUE,"OE","q","q",806,TRUE,1
"750","CVOE updated",9,1,4,6,"S 28","Number","N",FALSE,"OE","p","p",943,TRUE,1
"751","CVOE updated",9,1,4,7,"A 56","Letter","Y",TRUE,"CV","p","p",1036,TRUE,1
"752","CVOE updated",9,1,4,8,"H 78","Letter","N",FALSE,"CV","q","q",1108,TRUE,1
"753","CVOE updated",9,1,4,9,"P 92","Letter","N",FALSE,"CV","q","q",1306,TRUE,1
"754","CVOE updated",9,1,4,10,"E 05","Number","Y",FALSE,"OE","q","q",849,TRUE,1
"755","CVOE updated",9,1,4,11,"P 57","Letter","Y",TRUE,"CV","q","q",868,TRUE,1
"756","CVOE updated",9,1,4,12,"D 88","Number","Y",FALSE,"OE","p","p",1146,TRUE,1
"757","CVOE updated",9,1,4,13,"O 89","Letter","Y",FALSE,"CV","p","p",1032,TRUE,1
"758","CVOE updated",9,1,4,14,"U 43","Number","Y",FALSE,"OE","q","q",909,TRUE,1
"759","CVOE updated",9,1,4,15,"H 10","Number","N",FALSE,"OE","p","p",1540,TRUE,1
"760","CVOE updated",9,1,4,16,"S 07","Letter","Y",TRUE,"CV","q","q",873,TRUE,1
"761","CVOE updated",9,1,4,17,"J 10","Letter","N",FALSE,"CV","q","q",1379,TRUE,1
"762","CVOE updated",9,1,4,18,"H 54","Number","Y",FALSE,"OE","p","p",798,TRUE,1
"763","CVOE updated",9,1,4,19,"E 99","Number","N",FALSE,"OE","q","q",927,TRUE,1
"764","CVOE updated",9,1,4,20,"J 36","Letter","Y",FALSE,"CV","q","q",1098,TRUE,1
"765","CVOE updated",9,1,4,21,"I 94","Letter","N",TRUE,"CV","p","p",869,TRUE,1
"766","CVOE updated",9,1,4,22,"A 82","Letter","N",TRUE,"CV","p","p",690,TRUE,1
"767","CVOE updated",9,1,4,23,"H 79","Number","Y",TRUE,"OE","q","q",942,TRUE,1
"768","CVOE updated",9,1,4,24,"J 60","Number","N",FALSE,"OE","p","p",1036,TRUE,1
"769","CVOE updated",9,1,4,25,"S 28","Letter","Y",FALSE,"CV","q","q",916,TRUE,1
"770","CVOE updated",9,1,4,26,"P 11","Number","Y",TRUE,"OE","q","q",900,TRUE,1
"771","CVOE updated",9,1,4,27,"D 39","Number","N",TRUE,"OE","q","q",954,TRUE,1
"772","CVOE updated",9,1,4,28,"E 90","Number","N",TRUE,"OE","p","p",867,TRUE,1
"773","CVOE updated",9,1,4,29,"I 38","Number","N",TRUE,"OE","p","p",1186,TRUE,1
"774","CVOE updated",9,1,4,30,"S 35","Letter","Y",TRUE,"CV","q","q",1168,TRUE,1
"775","CVOE updated",9,1,4,31,"D 41","Number","Y",TRUE,"OE","q","q",1178,TRUE,1
"776","CVOE updated",9,1,4,32,"E 06","Number","N",TRUE,"OE","p","p",862,TRUE,1
"777","CVOE updated",9,1,4,33,"A 27","Number","N",FALSE,"OE","q","q",1036,TRUE,1
"778","CVOE updated",9,1,4,34,"U 95","Letter","Y",FALSE,"CV","p","p",900,TRUE,1
"779","CVOE updated",9,1,4,35,"A 53","Letter","N",FALSE,"CV","p","p",2211,TRUE,1
"780","CVOE updated",9,1,4,36,"E 43","Letter","N",FALSE,"CV","p","p",1333,TRUE,1
"781","CVOE updated",9,1,4,37,"P 05","Number","Y",TRUE,"OE","q","q",1009,TRUE,1
"782","CVOE updated",9,1,4,38,"O 19","Letter","Y",FALSE,"CV","p","p",1476,TRUE,1
"783","CVOE updated",9,1,4,39,"I 96","Number","Y",TRUE,"OE","p","p",997,TRUE,1
"784","CVOE updated",9,1,4,40,"A 88","Number","N",TRUE,"OE","p","p",813,TRUE,1
"785","CVOE updated",9,1,4,41,"I 67","Number","N",FALSE,"OE","q","q",760,TRUE,1
"786","CVOE updated",9,1,4,42,"D 40","Number","N",FALSE,"OE","p","p",665,TRUE,1
"787","CVOE updated",9,1,4,43,"P 79","Letter","Y",TRUE,"CV","q","q",952,TRUE,1
"788","CVOE updated",9,1,4,44,"U 24","Number","Y",TRUE,"OE","p","p",717,TRUE,1
"789","CVOE updated",9,1,4,45,"P 74","Number","N",FALSE,"OE","p","p",1102,TRUE,1
"790","CVOE updated",9,1,4,46,"E 70","Number","N",TRUE,"OE","p","p",660,TRUE,1
"791","CVOE updated",9,1,4,47,"S 27","Number","N",TRUE,"OE","q","q",774,TRUE,1
"792","CVOE updated",9,1,4,48,"E 54","Letter","Y",TRUE,"CV","p","p",777,TRUE,1
"793","CVOE updated",9,1,4,49,"A 53","Letter","N",FALSE,"CV","p","p",789,TRUE,1
"794","CVOE updated",9,1,4,50,"P 34","Letter","N",FALSE,"CV","q","q",770,TRUE,1
"795","CVOE updated",9,1,4,51,"D 74","Number","Y",FALSE,"OE","p","p",1381,TRUE,1
"796","CVOE updated",9,1,4,52,"A 03","Letter","Y",FALSE,"CV","p","p",1373,TRUE,1
"797","CVOE updated",9,1,4,53,"E 24","Number","Y",TRUE,"OE","p","p",759,TRUE,1
"798","CVOE updated",9,1,4,54,"I 58","Letter","Y",TRUE,"CV","p","p",1336,TRUE,1
"799","CVOE updated",9,1,4,55,"D 77","Number","Y",TRUE,"OE","q","q",1683,TRUE,1
"800","CVOE updated",9,1,4,56,"S 75","Number","N",TRUE,"OE","q","q",908,TRUE,1
"801","CVOE updated",9,1,4,57,"I 20","Letter","Y",TRUE,"CV","p","p",833,TRUE,1
"802","CVOE updated",9,1,4,58,"J 52","Letter","N",FALSE,"CV","q","q",803,TRUE,1
"803","CVOE updated",9,1,4,59,"A 38","Number","Y",TRUE,"OE","p","p",1172,TRUE,1
"804","CVOE updated",9,1,4,60,"I 60","Letter","Y",TRUE,"CV","p","p",807,TRUE,1
"805","CVOE updated",9,1,4,61,"S 51","Number","Y",TRUE,"OE","q","q",1191,TRUE,1
"806","CVOE updated",9,1,4,62,"D 63","Letter","Y",TRUE,"CV","q","q",1516,TRUE,1
"807","CVOE updated",9,1,4,63,"U 27","Letter","N",FALSE,"CV","p","p",773,TRUE,1
"808","CVOE updated",9,1,4,64,"J 77","Letter","N",TRUE,"CV","q","q",704,TRUE,1
"809","CVOE updated",9,1,4,65,"O 15","Number","Y",FALSE,"OE","q","q",935,TRUE,1
"810","CVOE updated",9,1,4,66,"J 20","Letter","Y",FALSE,"CV","q","q",897,TRUE,1
"811","CVOE updated",9,1,4,67,"U 97","Number","Y",FALSE,"OE","q","q",860,TRUE,1
"812","CVOE updated",9,1,4,68,"H 03","Number","N",TRUE,"OE","q","q",1067,TRUE,1
"813","CVOE updated",9,1,4,69,"O 04","Letter","Y",TRUE,"CV","p","p",1089,TRUE,1
"814","CVOE updated",9,1,4,70,"E 10","Letter","N",TRUE,"CV","p","p",845,TRUE,1
"815","CVOE updated",9,1,4,71,"I 52","Letter","N",TRUE,"CV","p","p",700,TRUE,1
"816","CVOE updated",9,1,4,72,"H 81","Number","Y",TRUE,"OE","q","q",946,TRUE,1
"817","CVOE updated",9,1,4,73,"I 41","Number","N",FALSE,"OE","q","q",1104,TRUE,1
"818","CVOE updated",9,1,4,74,"U 19","Letter","Y",FALSE,"CV","p","p",1278,TRUE,1
"819","CVOE updated",9,1,4,75,"O 17","Number","Y",FALSE,"OE","q","q",902,TRUE,1
"820","CVOE updated",9,1,4,76,"A 10","Number","N",TRUE,"OE","p","p",1300,TRUE,1
"821","CVOE updated",9,1,4,77,"P 93","Letter","Y",TRUE,"CV","q","q",963,TRUE,1
"822","CVOE updated",9,1,4,78,"E 59","Letter","N",FALSE,"CV","p","p",708,TRUE,1
"823","CVOE updated",9,1,4,79,"O 53","Letter","N",FALSE,"CV","p","p",809,TRUE,1
"824","CVOE updated",9,1,4,80,"A 96","Letter","N",TRUE,"CV","p","p",797,TRUE,1
"825","CVOE updated",9,1,4,81,"H 36","Letter","Y",FALSE,"CV","q","q",717,TRUE,1
"826","CVOE updated",9,1,4,82,"A 63","Letter","N",FALSE,"CV","p","p",725,TRUE,1
"827","CVOE updated",9,1,4,83,"I 38","Letter","N",TRUE,"CV","p","p",654,TRUE,1
"828","CVOE updated",9,1,4,84,"O 51","Number","Y",FALSE,"OE","q","q",1256,TRUE,1
"829","CVOE updated",9,1,4,85,"J 26","Number","N",FALSE,"OE","p","p",1268,TRUE,1
"830","CVOE updated",9,1,4,86,"S 34","Letter","Y",FALSE,"CV","q","q",1171,TRUE,1
"831","CVOE updated",9,1,4,87,"U 85","Number","Y",FALSE,"OE","p","q",734,FALSE,0
"832","CVOE updated",9,1,4,88,"J 77","Number","N",TRUE,"OE","q","q",1641,TRUE,1
"833","CVOE updated",9,1,4,89,"I 73","Letter","Y",FALSE,"CV","q","p",970,FALSE,0
"834","CVOE updated",9,1,4,90,"H 46","Number","Y",FALSE,"OE","p","p",1621,TRUE,1
"835","CVOE updated",9,1,4,91,"D 04","Number","N",FALSE,"OE","p","p",1570,TRUE,1
"836","CVOE updated",9,1,4,92,"P 72","Letter","Y",FALSE,"CV","q","q",1686,TRUE,1
"837","CVOE updated",9,1,4,93,"D 99","Number","Y",TRUE,"OE","q","q",897,TRUE,1
"838","CVOE updated",9,1,4,94,"U 25","Letter","Y",FALSE,"CV","p","p",885,TRUE,1
"839","CVOE updated",9,1,4,95,"O 32","Letter","N",TRUE,"CV","p","p",901,TRUE,1
"840","CVOE updated",9,1,4,96,"E 80","Letter","N",TRUE,"CV","p","p",764,TRUE,1
"841","CVOE updated",9,1,4,97,"O 84","Number","Y",TRUE,"OE","p","p",876,TRUE,1
"842","CVOE updated",9,1,4,98,"A 78","Number","N",TRUE,"OE","p","p",892,TRUE,1
"843","CVOE updated",9,1,4,99,"S 05","Number","N",TRUE,"OE","q","q",776,TRUE,1
"844","CVOE updated",9,1,4,100,"U 35","Letter","Y",FALSE,"CV","p","p",778,TRUE,1
"845","CVOE updated",9,1,4,101,"H 14","Letter","N",FALSE,"CV","q","q",1351,TRUE,1
"846","CVOE updated",9,1,4,102,"U 15","Number","Y",FALSE,"OE","q","q",940,TRUE,1
"847","CVOE updated",9,1,4,103,"E 36","Letter","Y",TRUE,"CV","p","p",1107,TRUE,1
"848","CVOE updated",9,1,4,104,"P 70","Letter","N",FALSE,"CV","q","q",1287,TRUE,1
"849","CVOE updated",9,1,4,105,"O 44","Number","Y",TRUE,"OE","p","p",772,TRUE,1
"850","CVOE updated",9,1,4,106,"S 41","Letter","Y",TRUE,"CV","q","q",1158,TRUE,1
"851","CVOE updated",9,1,4,107,"D 83","Letter","N",TRUE,"CV","q","q",887,TRUE,1
"852","CVOE updated",9,1,4,108,"J 39","Letter","N",TRUE,"CV","q","q",699,TRUE,1
"853","CVOE updated",9,1,4,109,"S 22","Number","Y",FALSE,"OE","p","p",773,TRUE,1
"854","CVOE updated",9,1,4,110,"D 89","Letter","Y",TRUE,"CV","q","q",1689,TRUE,1
"855","CVOE updated",9,1,4,111,"P 87","Letter","N",TRUE,"CV","q","q",749,TRUE,1
"856","CVOE updated",9,1,4,112,"H 42","Letter","N",FALSE,"CV","q","q",705,TRUE,1
"857","CVOE updated",9,1,4,113,"S 49","Letter","N",TRUE,"CV","q","q",1159,TRUE,1
"858","CVOE updated",9,1,4,114,"J 20","Number","Y",FALSE,"OE","p","p",712,TRUE,1
"859","CVOE updated",9,1,4,115,"O 19","Letter","Y",FALSE,"CV","p","p",1478,TRUE,1
"860","CVOE updated",9,1,4,116,"H 50","Letter","N",FALSE,"CV","q","q",998,TRUE,1
"861","CVOE updated",9,1,4,117,"I 68","Number","Y",TRUE,"OE","p","p",767,TRUE,1
"862","CVOE updated",9,1,4,118,"J 72","Number","N",FALSE,"OE","p","p",1170,TRUE,1
"863","CVOE updated",9,1,4,119,"O 21","Number","N",FALSE,"OE","q","q",1623,TRUE,1
"864","CVOE updated",9,1,4,120,"H 22","Number","N",FALSE,"OE","p","p",1604,TRUE,1
"865","CVOE_B",10,1,1,11,"A 24","","",TRUE,"OE","q","p",189,FALSE,0
"866","CVOE_B",10,1,1,12,"O 83","","",FALSE,"OE","q","q",2930,TRUE,1
"867","CVOE_B",10,1,1,13,"H 55","","",TRUE,"OE","q","q",1758,TRUE,1
"868","CVOE_B",10,1,1,14,"P 10","","",FALSE,"OE","p","p",3031,TRUE,1
"869","CVOE_B",10,1,1,15,"D 30","","",FALSE,"OE","p","p",814,TRUE,1
"870","CVOE_B",10,1,1,16,"U 62","","",TRUE,"OE","p","p",753,TRUE,1
"871","CVOE_B",10,1,1,17,"P 95","","",TRUE,"OE","q","q",1271,TRUE,1
"872","CVOE_B",10,1,1,18,"U 06","","",TRUE,"OE","p","p",1621,TRUE,1
"873","CVOE_B",10,1,1,19,"E 75","","",FALSE,"OE","q","q",2779,TRUE,1
"874","CVOE_B",10,1,1,20,"I 67","","",FALSE,"OE","q","q",2255,TRUE,1
"875","CVOE_B",10,1,1,21,"S 13","","",TRUE,"OE","q","q",1227,TRUE,1
"876","CVOE_B",10,1,1,22,"P 78","","",FALSE,"OE","p","p",2528,TRUE,1
"877","CVOE_B",10,1,1,23,"I 15","","",FALSE,"OE","q","q",2588,TRUE,1
"878","CVOE_B",10,1,1,24,"D 27","","",TRUE,"OE","q","q",1827,TRUE,1
"879","CVOE_B",10,1,1,25,"O 94","","",TRUE,"OE","p","p",1089,TRUE,1
"880","CVOE_B",10,1,1,26,"A 65","","",FALSE,"OE","q","q",1037,TRUE,1
"881","CVOE_B",10,1,1,27,"I 42","","",TRUE,"OE","p","p",1709,TRUE,1
"882","CVOE_B",10,1,1,28,"E 25","","",FALSE,"OE","q","q",1500,TRUE,1
"883","CVOE_B",10,1,1,29,"H 49","","",TRUE,"OE","q","q",1239,TRUE,1
"884","CVOE_B",10,1,1,30,"S 18","","",FALSE,"OE","p","p",1664,TRUE,1
"885","CVOE_B",10,1,1,31,"H 51","","",TRUE,"OE","q","q",1062,TRUE,1
"886","CVOE_B",10,1,1,32,"U 14","","",TRUE,"OE","p","p",924,TRUE,1
"887","CVOE_B",10,1,1,33,"E 02","","",TRUE,"OE","p","p",2565,TRUE,1
"888","CVOE_B",10,1,1,34,"J 26","","",FALSE,"OE","p","p",1374,TRUE,1
"889","CVOE_B",10,1,1,35,"D 24","","",FALSE,"OE","p","p",897,TRUE,1
"890","CVOE_B",10,1,1,36,"O 50","","",TRUE,"OE","p","p",6605,TRUE,1
"891","CVOE_B",10,1,1,37,"U 16","","",TRUE,"OE","p","p",4759,TRUE,1
"892","CVOE_B",10,1,1,38,"O 15","","",FALSE,"OE","q","q",3497,TRUE,1
"893","CVOE_B",10,1,1,39,"D 32","","",FALSE,"OE","p","p",821,TRUE,1
"894","CVOE_B",10,1,1,40,"S 67","","",TRUE,"OE","q","q",2307,TRUE,1
"895","CVOE_B",10,1,1,41,"J 74","","",FALSE,"OE","p","p",714,TRUE,1
"896","CVOE_B",10,1,1,42,"D 92","","",FALSE,"OE","p","p",927,TRUE,1
"897","CVOE_B",10,1,1,43,"A 65","","",FALSE,"OE","q","q",2360,TRUE,1
"898","CVOE_B",10,1,1,44,"I 87","","",FALSE,"OE","q","q",833,TRUE,1
"899","CVOE_B",10,1,1,45,"H 61","","",TRUE,"OE","q","q",991,TRUE,1
"900","CVOE_B",10,1,1,46,"E 59","","",FALSE,"OE","q","q",1325,TRUE,1
"901","CVOE_B",10,1,1,47,"I 33","","",FALSE,"OE","q","q",1542,TRUE,1
"902","CVOE_B",10,1,1,48,"O 90","","",TRUE,"OE","p","p",2852,TRUE,1
"903","CVOE_B",10,1,1,49,"U 51","","",FALSE,"OE","q","q",1416,TRUE,1
"904","CVOE_B",10,1,1,50,"A 10","","",TRUE,"OE","p","p",1579,TRUE,1
"905","CVOE_B",10,1,1,51,"E 50","","",TRUE,"OE","p","p",550,TRUE,1
"906","CVOE_B",10,1,1,52,"D 92","","",FALSE,"OE","p","p",2828,TRUE,1
"907","CVOE_B",10,1,1,53,"E 60","","",TRUE,"OE","p","p",3395,TRUE,1
"908","CVOE_B",10,1,1,54,"A 95","","",FALSE,"OE","q","q",4388,TRUE,1
"909","CVOE_B",10,1,1,55,"E 64","","",TRUE,"OE","p","p",1019,TRUE,1
"910","CVOE_B",10,1,1,56,"P 20","","",FALSE,"OE","p","p",3399,TRUE,1
"911","CVOE_B",10,1,1,57,"S 06","","",FALSE,"OE","p","p",1280,TRUE,1
"912","CVOE_B",10,1,1,58,"P 64","","",FALSE,"OE","p","p",673,TRUE,1
"913","CVOE_B",10,1,1,59,"U 70","","",TRUE,"OE","p","p",647,TRUE,1
"914","CVOE_B",10,1,1,60,"S 16","","",FALSE,"OE","p","p",1159,TRUE,1
"915","CVOE_B",10,1,1,61,"E 35","","",FALSE,"OE","q","q",1368,TRUE,1
"916","CVOE_B",10,1,1,62,"I 93","","",FALSE,"OE","q","q",1451,TRUE,1
"917","CVOE_B",10,1,1,63,"D 63","","",TRUE,"OE","q","q",527,TRUE,1
"918","CVOE_B",10,1,1,64,"U 89","","",FALSE,"OE","q","q",1463,TRUE,1
"919","CVOE_B",10,1,1,65,"E 91","","",FALSE,"OE","q","q",1245,TRUE,1
"920","CVOE_B",10,1,1,66,"A 12","","",TRUE,"OE","p","p",10598,TRUE,1
"921","CVOE_B",10,1,1,67,"P 56","","",FALSE,"OE","p","p",866,TRUE,1
"922","CVOE_B",10,1,1,68,"S 65","","",TRUE,"OE","q","q",888,TRUE,1
"923","CVOE_B",10,1,1,69,"P 07","","",TRUE,"OE","q","q",1315,TRUE,1
"924","CVOE_B",10,1,1,70,"I 77","","",FALSE,"OE","q","q",620,TRUE,1
"925","CVOE_B",10,1,1,71,"J 19","","",TRUE,"OE","q","q",671,TRUE,1
"926","CVOE_B",10,1,1,72,"O 59","","",FALSE,"OE","q","q",637,TRUE,1
"927","CVOE_B",10,1,1,73,"J 15","","",TRUE,"OE","q","q",629,TRUE,1
"928","CVOE_B",10,1,1,74,"I 89","","",FALSE,"OE","q","q",715,TRUE,1
"929","CVOE_B",10,1,1,75,"O 97","","",FALSE,"OE","q","q",579,TRUE,1
"930","CVOE_B",10,1,1,76,"A 92","","",TRUE,"OE","p","p",934,TRUE,1
"931","CVOE_B",10,1,1,77,"J 90","","",FALSE,"OE","p","p",2554,TRUE,1
"932","CVOE_B",10,1,1,78,"H 65","","",TRUE,"OE","q","q",1552,TRUE,1
"933","CVOE_B",10,1,1,79,"H 17","","",TRUE,"OE","q","q",686,TRUE,1
"934","CVOE_B",10,1,1,80,"S 26","","",FALSE,"OE","p","p",3775,TRUE,1
"935","CVOE_B",10,1,1,81,"D 56","","",FALSE,"OE","p","p",579,TRUE,1
"936","CVOE_B",10,1,1,82,"I 91","","",FALSE,"OE","q","q",950,TRUE,1
"937","CVOE_B",10,1,1,83,"J 11","","",TRUE,"OE","q","q",708,TRUE,1
"938","CVOE_B",10,1,1,84,"O 28","","",TRUE,"OE","p","p",1426,TRUE,1
"939","CVOE_B",10,1,1,85,"H 29","","",TRUE,"OE","q","q",1008,TRUE,1
"940","CVOE_B",10,1,1,86,"J 25","","",TRUE,"OE","q","q",1459,TRUE,1
"941","CVOE_B",10,1,1,87,"A 73","","",FALSE,"OE","q","q",1078,TRUE,1
"942","CVOE_B",10,1,1,88,"J 63","","",TRUE,"OE","q","q",631,TRUE,1
"943","CVOE_B",10,1,1,89,"U 84","","",TRUE,"OE","p","p",1389,TRUE,1
"944","CVOE_B",10,1,1,90,"A 58","","",TRUE,"OE","p","p",979,TRUE,1
"945","CVOE_B",10,1,1,91,"S 43","","",TRUE,"OE","q","q",1838,TRUE,1
"946","CVOE_B",10,1,1,92,"H 54","","",FALSE,"OE","p","p",759,TRUE,1
"947","CVOE_B",10,1,1,93,"D 4","","",FALSE,"OE","p","p",3199,TRUE,1
"948","CVOE_B",10,1,1,94,"J 75","","",TRUE,"OE","q","q",1609,TRUE,1
"949","CVOE_B",10,1,1,95,"D 19","","",TRUE,"OE","q","q",1156,TRUE,1
"950","CVOE_B",10,1,1,96,"J 38","","",FALSE,"OE","p","p",1157,TRUE,1
"951","CVOE_B",10,1,1,97,"I 56","","",TRUE,"OE","p","p",766,TRUE,1
"952","CVOE_B",10,1,1,98,"P 87","","",TRUE,"OE","q","q",1230,TRUE,1
"953","CVOE_B",10,1,1,99,"O 80","","",TRUE,"OE","p","p",1380,TRUE,1
"954","CVOE_B",10,1,1,100,"U 60","","",TRUE,"OE","p","p",559,TRUE,1
"955","CVOE_B",10,1,1,101,"P 48","","",FALSE,"OE","p","p",4136,TRUE,1
"956","CVOE_B",10,1,1,102,"H 64","","",FALSE,"OE","p","p",684,TRUE,1
"957","CVOE_B",10,1,1,103,"A 13","","",FALSE,"OE","q","q",3189,TRUE,1
"958","CVOE_B",10,1,1,104,"H 68","","",FALSE,"OE","p","p",1908,TRUE,1
"959","CVOE_B",10,1,1,105,"E 16","","",TRUE,"OE","p","p",4114,TRUE,1
"960","CVOE_B",10,1,1,106,"S 71","","",TRUE,"OE","q","q",4204,TRUE,1
"961","CVOE_B",10,1,2,11,"A 71","","",FALSE,"CV","p","p",1228,TRUE,1
"962","CVOE_B",10,1,2,12,"I 66","","",TRUE,"CV","p","p",930,TRUE,1
"963","CVOE_B",10,1,2,13,"S 30","","",FALSE,"CV","q","q",950,TRUE,1
"964","CVOE_B",10,1,2,14,"D 20","","",FALSE,"CV","q","q",643,TRUE,1
"965","CVOE_B",10,1,2,15,"I 31","","",FALSE,"CV","p","p",732,TRUE,1
"966","CVOE_B",10,1,2,16,"P 16","","",FALSE,"CV","q","q",1455,TRUE,1
"967","CVOE_B",10,1,2,17,"A 49","","",FALSE,"CV","p","p",658,TRUE,1
"968","CVOE_B",10,1,2,18,"O 64","","",TRUE,"CV","p","p",758,TRUE,1
"969","CVOE_B",10,1,2,19,"D 02","","",FALSE,"CV","q","q",694,TRUE,1
"970","CVOE_B",10,1,2,20,"P 81","","",TRUE,"CV","p","q",577,FALSE,0
"971","CVOE_B",10,1,2,21,"J 58","","",FALSE,"CV","q","q",1428,TRUE,1
"972","CVOE_B",10,1,2,22,"A 22","","",TRUE,"CV","p","p",610,TRUE,1
"973","CVOE_B",10,1,2,23,"J 72","","",FALSE,"CV","q","q",533,TRUE,1
"974","CVOE_B",10,1,2,24,"P 91","","",TRUE,"CV","q","q",696,TRUE,1
"975","CVOE_B",10,1,2,25,"E 19","","",FALSE,"CV","p","p",780,TRUE,1
"976","CVOE_B",10,1,2,26,"I 30","","",TRUE,"CV","p","p",1223,TRUE,1
"977","CVOE_B",10,1,2,27,"D 91","","",TRUE,"CV","q","q",557,TRUE,1
"978","CVOE_B",10,1,2,28,"O 48","","",TRUE,"CV","p","p",1861,TRUE,1
"979","CVOE_B",10,1,2,29,"A 89","","",FALSE,"CV","p","p",651,TRUE,1
"980","CVOE_B",10,1,2,30,"U 11","","",FALSE,"CV","p","p",822,TRUE,1
"981","CVOE_B",10,1,2,31,"I 76","","",TRUE,"CV","p","p",652,TRUE,1
"982","CVOE_B",10,1,2,32,"U 89","","",FALSE,"CV","p","p",815,TRUE,1
"983","CVOE_B",10,1,2,33,"D 63","","",TRUE,"CV","q","q",603,TRUE,1
"984","CVOE_B",10,1,2,34,"H 70","","",FALSE,"CV","q","q",731,TRUE,1
"985","CVOE_B",10,1,2,35,"D 48","","",FALSE,"CV","q","q",630,TRUE,1
"986","CVOE_B",10,1,2,36,"P 56","","",FALSE,"CV","q","q",404,TRUE,1
"987","CVOE_B",10,1,2,37,"O 77","","",FALSE,"CV","p","p",948,TRUE,1
"988","CVOE_B",10,1,2,38,"P 42","","",FALSE,"CV","q","q",674,TRUE,1
"989","CVOE_B",10,1,2,39,"H 22","","",FALSE,"CV","q","q",1475,TRUE,1
"990","CVOE_B",10,1,2,40,"E 42","","",TRUE,"CV","p","p",555,TRUE,1
"991","CVOE_B",10,1,2,41,"J 28","","",FALSE,"CV","q","q",460,TRUE,1
"992","CVOE_B",10,1,2,42,"E 95","","",FALSE,"CV","p","p",679,TRUE,1
"993","CVOE_B",10,1,2,43,"S 63","","",TRUE,"CV","q","q",335,TRUE,1
"994","CVOE_B",10,1,2,44,"H 50","","",FALSE,"CV","q","q",554,TRUE,1
"995","CVOE_B",10,1,2,45,"S 33","","",TRUE,"CV","q","q",579,TRUE,1
"996","CVOE_B",10,1,2,46,"P 57","","",TRUE,"CV","q","q",574,TRUE,1
"997","CVOE_B",10,1,2,47,"E 23","","",FALSE,"CV","p","p",601,TRUE,1
"998","CVOE_B",10,1,2,48,"S 61","","",TRUE,"CV","q","q",697,TRUE,1
"999","CVOE_B",10,1,2,49,"U 67","","",FALSE,"CV","p","p",700,TRUE,1
"1000","CVOE_B",10,1,2,50,"H 32","","",FALSE,"CV","q","q",600,TRUE,1
"1001","CVOE_B",10,1,2,51,"U 50","","",TRUE,"CV","p","p",336,TRUE,1
"1002","CVOE_B",10,1,2,52,"O 49","","",FALSE,"CV","p","p",1555,TRUE,1
"1003","CVOE_B",10,1,2,53,"U 32","","",TRUE,"CV","p","p",580,TRUE,1
"1004","CVOE_B",10,1,2,54,"J 78","","",FALSE,"CV","q","q",623,TRUE,1
"1005","CVOE_B",10,1,2,55,"S 54","","",FALSE,"CV","q","q",613,TRUE,1
"1006","CVOE_B",10,1,2,56,"J 27","","",TRUE,"CV","q","q",608,TRUE,1
"1007","CVOE_B",10,1,2,57,"S 06","","",FALSE,"CV","q","q",1251,TRUE,1
"1008","CVOE_B",10,1,2,58,"D 67","","",TRUE,"CV","q","q",1094,TRUE,1
"1009","CVOE_B",10,1,2,59,"A 79","","",FALSE,"CV","p","p",513,TRUE,1
"1010","CVOE_B",10,1,2,60,"S 52","","",FALSE,"CV","q","q",535,TRUE,1
"1011","CVOE_B",10,1,2,61,"U 16","","",TRUE,"CV","p","p",1610,TRUE,1
"1012","CVOE_B",10,1,2,62,"O 82","","",TRUE,"CV","p","p",1174,TRUE,1
"1013","CVOE_B",10,1,2,63,"H 87","","",TRUE,"CV","q","q",801,TRUE,1
"1014","CVOE_B",10,1,2,64,"I 32","","",TRUE,"CV","p","p",489,TRUE,1
"1015","CVOE_B",10,1,2,65,"U 37","","",FALSE,"CV","p","p",541,TRUE,1
"1016","CVOE_B",10,1,2,66,"I 42","","",TRUE,"CV","p","p",522,TRUE,1
"1017","CVOE_B",10,1,2,67,"D 65","","",TRUE,"CV","q","q",939,TRUE,1
"1018","CVOE_B",10,1,2,68,"U 77","","",FALSE,"CV","p","p",2078,TRUE,1
"1019","CVOE_B",10,1,2,69,"E 12","","",TRUE,"CV","p","p",439,TRUE,1
"1020","CVOE_B",10,1,2,70,"I 60","","",TRUE,"CV","p","p",375,TRUE,1
"1021","CVOE_B",10,1,2,71,"J 36","","",FALSE,"CV","q","q",586,TRUE,1
"1022","CVOE_B",10,1,2,72,"H 75","","",TRUE,"CV","q","q",640,TRUE,1
"1023","CVOE_B",10,1,2,73,"I 50","","",TRUE,"CV","p","p",664,TRUE,1
"1024","CVOE_B",10,1,2,74,"E 99","","",FALSE,"CV","p","p",2926,TRUE,1
"1025","CVOE_B",10,1,2,75,"A 86","","",TRUE,"CV","p","p",720,TRUE,1
"1026","CVOE_B",10,1,2,76,"U 48","","",TRUE,"CV","p","p",752,TRUE,1
"1027","CVOE_B",10,1,2,77,"E 01","","",FALSE,"CV","p","p",574,TRUE,1
"1028","CVOE_B",10,1,2,78,"A 78","","",TRUE,"CV","p","p",409,TRUE,1
"1029","CVOE_B",10,1,2,79,"P 60","","",FALSE,"CV","q","q",588,TRUE,1
"1030","CVOE_B",10,1,2,80,"E 43","","",FALSE,"CV","p","p",538,TRUE,1
"1031","CVOE_B",10,1,2,81,"D 69","","",TRUE,"CV","q","q",1317,TRUE,1
"1032","CVOE_B",10,1,2,82,"H 11","","",TRUE,"CV","q","q",637,TRUE,1
"1033","CVOE_B",10,1,2,83,"P 43","","",TRUE,"CV","q","q",534,TRUE,1
"1034","CVOE_B",10,1,2,84,"O 67","","",FALSE,"CV","p","p",433,TRUE,1
"1035","CVOE_B",10,1,2,85,"S 91","","",FALSE,"CV","q","q",599,TRUE,1
"1036","CVOE_B",10,1,2,86,"J 68","","",TRUE,"CV","q","q",647,TRUE,1
"1037","CVOE_B",10,1,2,87,"S 47","","",FALSE,"CV","q","q",903,TRUE,1
"1038","CVOE_B",10,1,2,88,"I 81","","",TRUE,"CV","p","p",629,TRUE,1
"1039","CVOE_B",10,1,2,89,"J 39","","",FALSE,"CV","q","q",2691,TRUE,1
"1040","CVOE_B",10,1,2,90,"A 11","","",TRUE,"CV","p","p",359,TRUE,1
"1041","CVOE_B",10,1,2,91,"O 76","","",FALSE,"CV","p","p",343,TRUE,1
"1042","CVOE_B",10,1,2,92,"A 62","","",FALSE,"CV","p","p",629,TRUE,1
"1043","CVOE_B",10,1,2,93,"O 27","","",TRUE,"CV","p","p",1347,TRUE,1
"1044","CVOE_B",10,1,2,94,"E 66","","",FALSE,"CV","p","p",1249,TRUE,1
"1045","CVOE_B",10,1,2,95,"J 62","","",TRUE,"CV","q","q",476,TRUE,1
"1046","CVOE_B",10,1,2,96,"H 72","","",TRUE,"CV","q","q",549,TRUE,1
"1047","CVOE_B",10,1,2,97,"E 49","","",TRUE,"CV","p","p",762,TRUE,1
"1048","CVOE_B",10,1,2,98,"D 52","","",TRUE,"CV","q","q",747,TRUE,1
"1049","CVOE_B",10,1,2,99,"H 62","","",TRUE,"CV","q","q",673,TRUE,1
"1050","CVOE_B",10,1,2,100,"I 11","","",TRUE,"CV","p","p",1182,TRUE,1
"1051","CVOE_B",10,1,2,101,"A 98","","",FALSE,"CV","p","p",580,TRUE,1
"1052","CVOE_B",10,1,2,102,"H 29","","",FALSE,"CV","q","q",631,TRUE,1
"1053","CVOE_B",10,1,2,103,"E 83","","",TRUE,"CV","p","p",437,TRUE,1
"1054","CVOE_B",10,1,2,104,"D 43","","",FALSE,"CV","q","q",694,TRUE,1
"1055","CVOE_B",10,1,2,105,"P 45","","",TRUE,"CV","q","q",2057,TRUE,1
"1056","CVOE_B",10,1,2,106,"J 17","","",TRUE,"CV","q","q",524,TRUE,1
"1057","CVOE_B",10,1,3,11,"U 38","Number","N",TRUE,"OE","p","p",4924,TRUE,1
"1058","CVOE_B",10,1,3,12,"P 73","Number","N",TRUE,"OE","q","q",1638,TRUE,1
"1059","CVOE_B",10,1,3,13,"U 95","Letter","Y",FALSE,"CV","p","p",3606,TRUE,1
"1060","CVOE_B",10,1,3,14,"J 61","Number","Y",TRUE,"OE","q","p",2091,FALSE,0
"1061","CVOE_B",10,1,3,15,"D 51","Number","N",TRUE,"OE","q","p",1198,FALSE,0
"1062","CVOE_B",10,1,3,16,"S 28","Number","N",FALSE,"OE","p","q",3023,FALSE,0
"1063","CVOE_B",10,1,3,17,"A 56","Letter","Y",TRUE,"CV","p","q",1142,FALSE,0
"1064","CVOE_B",10,1,3,18,"H 78","Letter","N",FALSE,"CV","q","q",4284,TRUE,1
"1065","CVOE_B",10,1,3,19,"P 92","Letter","N",FALSE,"CV","q","q",1181,TRUE,1
"1066","CVOE_B",10,1,3,20,"E 05","Number","Y",FALSE,"OE","q","p",4787,FALSE,0
"1067","CVOE_B",10,1,3,21,"P 57","Letter","Y",TRUE,"CV","q","p",3403,FALSE,0
"1068","CVOE_B",10,1,3,22,"D 88","Number","Y",FALSE,"OE","p","p",3748,TRUE,1
"1069","CVOE_B",10,1,3,23,"O 89","Letter","Y",FALSE,"CV","p","p",2171,TRUE,1
"1070","CVOE_B",10,1,3,24,"U 43","Number","Y",FALSE,"OE","q","q",6303,TRUE,1
"1071","CVOE_B",10,1,3,25,"H 10","Number","N",FALSE,"OE","p","q",4648,FALSE,0
"1072","CVOE_B",10,1,3,26,"S 07","Letter","Y",TRUE,"CV","q","q",5339,TRUE,1
"1073","CVOE_B",10,1,3,27,"J 10","Letter","N",FALSE,"CV","q","p",5636,FALSE,0
"1074","CVOE_B",10,1,3,28,"H 54","Number","Y",FALSE,"OE","p","q",2574,FALSE,0
"1075","CVOE_B",10,1,3,29,"E 99","Number","N",FALSE,"OE","q","q",2729,TRUE,1
"1076","CVOE_B",10,1,3,30,"J 36","Letter","Y",FALSE,"CV","q","p",2766,FALSE,0
"1077","CVOE_B",10,1,3,31,"I 94","Letter","N",TRUE,"CV","p","p",2630,TRUE,1
"1078","CVOE_B",10,1,3,32,"A 82","Letter","N",TRUE,"CV","p","q",2350,FALSE,0
"1079","CVOE_B",10,1,3,33,"H 79","Number","Y",TRUE,"OE","q","q",7404,TRUE,1
"1080","CVOE_B",10,1,3,34,"J 60","Number","N",FALSE,"OE","p","p",3559,TRUE,1
"1081","CVOE_B",10,1,3,35,"S 28","Letter","Y",FALSE,"CV","q","p",1809,FALSE,0
"1082","CVOE_B",10,1,3,36,"P 11","Number","Y",TRUE,"OE","q","q",3020,TRUE,1
"1083","CVOE_B",10,1,3,37,"D 39","Number","N",TRUE,"OE","q","p",3267,FALSE,0
"1084","CVOE_B",10,1,3,38,"E 90","Number","N",TRUE,"OE","p","q",1538,FALSE,0
"1085","CVOE_B",10,1,3,39,"I 38","Number","N",TRUE,"OE","p","q",1685,FALSE,0
"1086","CVOE_B",10,1,3,40,"S 35","Letter","Y",TRUE,"CV","q","p",910,FALSE,0
"1087","CVOE_B",10,1,3,41,"D 41","Number","Y",TRUE,"OE","q","p",6460,FALSE,0
"1088","CVOE_B",10,1,3,42,"E 06","Number","N",TRUE,"OE","p","p",2476,TRUE,1
"1089","CVOE_B",10,1,3,43,"A 27","Number","N",FALSE,"OE","q","p",3317,FALSE,0
"1090","CVOE_B",10,1,3,44,"U 95","Letter","Y",FALSE,"CV","p","q",1638,FALSE,0
"1091","CVOE_B",10,1,3,45,"A 53","Letter","N",FALSE,"CV","p","p",1207,TRUE,1
"1092","CVOE_B",10,1,3,46,"E 43","Letter","N",FALSE,"CV","p","p",1104,TRUE,1
"1093","CVOE_B",10,1,3,47,"P 05","Number","Y",TRUE,"OE","q","p",2934,FALSE,0
"1094","CVOE_B",10,1,3,48,"O 19","Letter","Y",FALSE,"CV","q","q",3506,TRUE,1
"1095","CVOE_B",10,1,3,49,"I 96","Number","Y",TRUE,"OE","p","p",4377,TRUE,1
"1096","CVOE_B",10,1,3,50,"A 88","Number","N",TRUE,"OE","p","q",1389,FALSE,0
"1097","CVOE_B",10,1,3,51,"I 67","Number","N",FALSE,"OE","q","p",1963,FALSE,0
"1098","CVOE_B",10,1,3,52,"D 40","Number","N",FALSE,"OE","p","q",3484,FALSE,0
"1099","CVOE_B",10,1,3,53,"P 79","Letter","Y",TRUE,"CV","q","p",2238,FALSE,0
"1100","CVOE_B",10,1,3,54,"U 24","Number","Y",TRUE,"OE","p","q",5039,FALSE,0
"1101","CVOE_B",10,1,3,55,"P 74","Number","N",FALSE,"OE","p","p",2281,TRUE,1
"1102","CVOE_B",10,1,3,56,"E 70","Number","N",TRUE,"OE","p","q",1626,FALSE,0
"1103","CVOE_B",10,1,3,57,"S 27","Number","N",TRUE,"OE","q","q",1488,TRUE,1
"1104","CVOE_B",10,1,3,58,"E 54","Letter","Y",TRUE,"CV","p","p",1196,TRUE,1
"1105","CVOE_B",10,1,3,59,"A 53","Letter","N",FALSE,"CV","p","q",3132,FALSE,0
"1106","CVOE_B",10,1,3,60,"P 34","Letter","N",FALSE,"CV","q","p",7544,FALSE,0
"1107","CVOE_B",10,1,3,61,"D 74","Number","Y",FALSE,"OE","p","q",1977,FALSE,0
"1108","CVOE_B",10,1,3,62,"A 03","Letter","Y",FALSE,"CV","p","q",2148,FALSE,0
"1109","CVOE_B",10,1,3,63,"E 24","Number","Y",TRUE,"OE","p","p",3907,TRUE,1
"1110","CVOE_B",10,1,3,64,"I 58","Letter","Y",TRUE,"CV","p","q",2426,FALSE,0
"1111","CVOE_B",10,1,3,65,"D 77","Number","Y",TRUE,"OE","q","q",2152,TRUE,1
"1112","CVOE_B",10,1,3,66,"S 75","Number","N",TRUE,"OE","q","q",4526,TRUE,1
"1113","CVOE_B",10,1,3,67,"I 20","Letter","Y",TRUE,"CV","p","p",1379,TRUE,1
"1114","CVOE_B",10,1,3,68,"J 52","Letter","N",FALSE,"CV","q","q",4478,TRUE,1
"1115","CVOE_B",10,1,3,69,"A 38","Number","Y",TRUE,"OE","p","p",2472,TRUE,1
"1116","CVOE_B",10,1,3,70,"I 60","Letter","Y",TRUE,"CV","p","p",4311,TRUE,1
"1117","CVOE_B",10,1,3,71,"S 51","Number","Y",TRUE,"OE","q","p",4302,FALSE,0
"1118","CVOE_B",10,1,3,72,"D 63","Letter","Y",TRUE,"CV","q","q",3637,TRUE,1
"1119","CVOE_B",10,1,3,73,"U 27","Letter","N",FALSE,"CV","p","q",2343,FALSE,0
"1120","CVOE_B",10,1,3,74,"J 77","Letter","N",TRUE,"CV","q","p",877,FALSE,0
"1121","CVOE_B",10,1,3,75,"O 15","Number","Y",FALSE,"OE","q","p",4622,FALSE,0
"1122","CVOE_B",10,1,3,76,"J 20","Letter","Y",FALSE,"CV","q","q",1621,TRUE,1
"1123","CVOE_B",10,1,3,77,"U 97","Number","Y",FALSE,"OE","q","p",3579,FALSE,0
"1124","CVOE_B",10,1,3,78,"H 03","Number","N",TRUE,"OE","q","q",2719,TRUE,1
"1125","CVOE_B",10,1,3,79,"O 04","Letter","Y",TRUE,"CV","p","q",1881,FALSE,0
"1126","CVOE_B",10,1,3,80,"E 10","Letter","N",TRUE,"CV","p","p",961,TRUE,1
"1127","CVOE_B",10,1,3,81,"I 52","Letter","N",TRUE,"CV","p","p",914,TRUE,1
"1128","CVOE_B",10,1,3,82,"H 81","Number","Y",TRUE,"OE","q","q",856,TRUE,1
"1129","CVOE_B",10,1,3,83,"I 41","Number","N",FALSE,"OE","q","p",7131,FALSE,0
"1130","CVOE_B",10,1,3,84,"U 19","Letter","Y",FALSE,"CV","p","q",6745,FALSE,0
"1131","CVOE_B",10,1,3,85,"O 17","Number","Y",FALSE,"OE","q","p",4009,FALSE,0
"1132","CVOE_B",10,1,3,86,"A 10","Number","N",TRUE,"OE","p","p",4301,TRUE,1
"1133","CVOE_B",10,1,3,87,"P 93","Letter","Y",TRUE,"CV","q","p",1676,FALSE,0
"1134","CVOE_B",10,1,3,88,"E 59","Letter","N",FALSE,"CV","p","q",1221,FALSE,0
"1135","CVOE_B",10,1,3,89,"O 53","Letter","N",FALSE,"CV","p","p",995,TRUE,1
"1136","CVOE_B",10,1,3,90,"A 96","Letter","N",TRUE,"CV","p","q",1852,FALSE,0
"1137","CVOE_B",10,1,3,91,"H 36","Letter","Y",FALSE,"CV","q","p",1015,FALSE,0
"1138","CVOE_B",10,1,3,92,"A 63","Letter","N",FALSE,"CV","p","q",1210,FALSE,0
"1139","CVOE_B",10,1,3,93,"I 38","Letter","N",TRUE,"CV","p","q",1030,FALSE,0
"1140","CVOE_B",10,1,3,94,"O 51","Number","Y",FALSE,"OE","q","q",1444,TRUE,1
"1141","CVOE_B",10,1,3,95,"J 26","Number","N",FALSE,"OE","p","p",2180,TRUE,1
"1142","CVOE_B",10,1,3,96,"S 34","Letter","Y",FALSE,"CV","q","q",2747,TRUE,1
"1143","CVOE_B",10,1,3,97,"U 85","Number","Y",FALSE,"OE","q","p",6737,FALSE,0
"1144","CVOE_B",10,1,3,98,"J 77","Number","N",TRUE,"OE","q","q",2991,TRUE,1
"1145","CVOE_B",10,1,3,99,"I 73","Letter","Y",FALSE,"CV","p","q",3125,FALSE,0
"1146","CVOE_B",10,1,3,100,"H 46","Number","Y",FALSE,"OE","p","p",1623,TRUE,1
"1147","CVOE_B",10,1,3,101,"D 04","Number","N",FALSE,"OE","p","p",1333,TRUE,1
"1148","CVOE_B",10,1,3,102,"P 72","Letter","Y",FALSE,"CV","q","q",1704,TRUE,1
"1149","CVOE_B",10,1,3,103,"D 99","Number","Y",TRUE,"OE","q","p",3415,FALSE,0
"1150","CVOE_B",10,1,3,104,"U 25","Letter","Y",FALSE,"CV","p","q",3939,FALSE,0
"1151","CVOE_B",10,1,3,105,"O 32","Letter","N",TRUE,"CV","p","q",1015,FALSE,0
"1152","CVOE_B",10,1,3,106,"E 80","Letter","N",TRUE,"CV","p","q",802,FALSE,0
"1153","CVOE_B",10,1,3,107,"O 84","Number","Y",TRUE,"OE","p","p",3195,TRUE,1
"1154","CVOE_B",10,1,3,108,"A 78","Number","N",TRUE,"OE","p","q",6340,FALSE,0
"1155","CVOE_B",10,1,3,109,"S 05","Number","N",TRUE,"OE","q","p",2060,FALSE,0
"1156","CVOE_B",10,1,3,110,"U 35","Letter","Y",FALSE,"CV","p","p",1648,TRUE,1
"1157","CVOE_B",10,1,3,111,"H 14","Letter","N",FALSE,"CV","q","p",5435,FALSE,0
"1158","CVOE_B",10,1,3,112,"U 15","Number","Y",FALSE,"OE","q","q",3430,TRUE,1
"1159","CVOE_B",10,1,3,113,"E 36","Letter","Y",TRUE,"CV","p","p",2028,TRUE,1
"1160","CVOE_B",10,1,3,114,"P 70","Letter","N",FALSE,"CV","q","p",899,FALSE,0
"1161","CVOE_B",10,1,3,115,"O 44","Number","Y",TRUE,"OE","p","p",1566,TRUE,1
"1162","CVOE_B",10,1,3,116,"S 41","Letter","Y",TRUE,"CV","q","q",2823,TRUE,1
"1163","CVOE_B",10,1,3,117,"D 83","Letter","N",TRUE,"CV","q","p",3613,FALSE,0
"1164","CVOE_B",10,1,3,118,"J 39","Letter","N",TRUE,"CV","q","p",1201,FALSE,0
"1165","CVOE_B",10,1,3,119,"S 22","Number","Y",FALSE,"OE","p","q",1658,FALSE,0
"1166","CVOE_B",10,1,3,120,"D 89","Letter","Y",TRUE,"CV","q","p",1686,FALSE,0
"1167","CVOE_B",10,1,3,121,"P 87","Letter","N",TRUE,"CV","q","q",1206,TRUE,1
"1168","CVOE_B",10,1,3,122,"H 42","Letter","N",FALSE,"CV","q","p",903,FALSE,0
"1169","CVOE_B",10,1,3,123,"S 49","Letter","N",TRUE,"CV","q","p",829,FALSE,0
"1170","CVOE_B",10,1,3,124,"J 20","Number","Y",FALSE,"OE","p","q",3219,FALSE,0
"1171","CVOE_B",10,1,3,125,"O 19","Letter","Y",FALSE,"CV","p","q",1671,FALSE,0
"1172","CVOE_B",10,1,3,126,"H 50","Letter","N",FALSE,"CV","q","p",837,FALSE,0
"1173","CVOE_B",10,1,3,127,"I 68","Number","Y",TRUE,"OE","p","p",3774,TRUE,1
"1174","CVOE_B",10,1,3,128,"J 72","Number","N",FALSE,"OE","p","q",2434,FALSE,0
"1175","CVOE_B",10,1,3,129,"O 21","Number","N",FALSE,"OE","q","q",2355,TRUE,1
"1176","CVOE_B",10,1,3,130,"H 22","Number","N",FALSE,"OE","p","p",2028,TRUE,1
"1177","CVOE_B",10,1,4,1,"A 44","Letter","N",TRUE,"CV","p","p",7752,TRUE,1
"1178","CVOE_B",10,1,4,2,"D 94","Letter","N",FALSE,"CV","q","q",1291,TRUE,1
"1179","CVOE_B",10,1,4,3,"E 75","Number","Y",FALSE,"OE","q","p",4558,FALSE,0
"1180","CVOE_B",10,1,4,4,"H 81","Number","N",TRUE,"OE","q","q",3352,TRUE,1
"1181","CVOE_B",10,1,4,5,"I 64","Letter","Y",TRUE,"CV","p","q",1415,FALSE,0
"1182","CVOE_B",10,1,4,6,"J 54","Letter","N",FALSE,"CV","q","p",1850,FALSE,0
"1183","CVOE_B",10,1,4,7,"O 23","Number","Y",FALSE,"OE","q","p",1654,FALSE,0
"1184","CVOE_B",10,1,4,8,"P 05","Number","N",TRUE,"OE","q","q",1993,TRUE,1
"1185","CVOE_B",10,1,4,9,"S 34","Letter","Y",FALSE,"CV","q","q",2098,TRUE,1
"1186","CVOE_B",10,1,4,10,"U 88","Letter","N",TRUE,"CV","p","q",3182,FALSE,0
"1187","CVOE_B",10,1,4,11,"A 70","Number","Y",TRUE,"OE","p","q",2133,FALSE,0
"1188","CVOE_B",10,1,4,12,"D 12","Number","N",FALSE,"OE","p","p",2392,TRUE,1
"1189","CVOE_B",10,1,4,13,"E 79","Letter","Y",FALSE,"CV","p","p",4415,TRUE,1
"1190","CVOE_B",10,1,4,14,"H 72","Letter","N",FALSE,"CV","q","q",1155,TRUE,1
"1191","CVOE_B",10,1,4,15,"I 41","Number","Y",FALSE,"OE","q","p",1396,FALSE,0
"1192","CVOE_B",10,1,4,16,"J 63","Number","N",TRUE,"OE","q","q",1749,TRUE,1
"1193","CVOE_B",10,1,4,17,"O 03","Letter","Y",FALSE,"CV","p","q",1419,FALSE,0
"1194","CVOE_B",10,1,4,18,"P 75","Letter","N",TRUE,"CV","q","p",2990,FALSE,0
"1195","CVOE_B",10,1,4,19,"S 61","Number","Y",TRUE,"OE","q","q",2069,TRUE,1
"1196","CVOE_B",10,1,4,20,"U 28","Number","N",TRUE,"OE","p","q",2763,FALSE,0
"1197","CVOE_B",10,1,4,21,"A 21","Letter","Y",FALSE,"CV","p","p",1460,TRUE,1
"1198","CVOE_B",10,1,4,22,"D 18","Letter","N",FALSE,"CV","q","p",2274,FALSE,0
"1199","CVOE_B",10,1,4,23,"E 35","Number","Y",FALSE,"OE","q","q",2732,TRUE,1
"1200","CVOE_B",10,1,4,24,"H 62","Number","N",FALSE,"OE","p","p",3031,TRUE,1
"1201","CVOE_B",10,1,4,25,"I 82","Letter","Y",TRUE,"CV","p","q",1534,FALSE,0
"1202","CVOE_B",10,1,4,26,"J 78","Letter","N",FALSE,"CV","q","q",1490,TRUE,1
"1203","CVOE_B",10,1,4,27,"O 12","Number","Y",TRUE,"OE","p","q",3333,FALSE,0
"1204","CVOE_B",10,1,4,28,"P 13","Number","N",TRUE,"OE","q","p",6969,FALSE,0
"1205","CVOE_B",10,1,4,29,"S 07","Letter","Y",TRUE,"CV","q","p",7823,FALSE,0
"1206","CVOE_B",10,1,4,30,"U 36","Letter","N",TRUE,"CV","p","q",887,FALSE,0
"1207","CVOE_B",10,1,4,31,"A 96","Number","Y",TRUE,"OE","p","q",4042,FALSE,0
"1208","CVOE_B",10,1,4,32,"D 04","Number","N",FALSE,"OE","p","p",1588,TRUE,1
"1209","CVOE_B",10,1,4,33,"E 60","Letter","Y",TRUE,"CV","p","q",1218,FALSE,0
"1210","CVOE_B",10,1,4,34,"H 83","Letter","N",TRUE,"CV","q","p",1893,FALSE,0
"1211","CVOE_B",10,1,4,35,"I 64","Number","Y",TRUE,"OE","p","p",1441,TRUE,1
"1212","CVOE_B",10,1,4,36,"J 76","Number","N",FALSE,"OE","p","p",4530,TRUE,1
"1213","CVOE_B",10,1,4,37,"O 78","Letter","Y",TRUE,"CV","p","q",2422,FALSE,0
"1214","CVOE_B",10,1,4,38,"P 09","Letter","N",TRUE,"CV","q","p",1357,FALSE,0
"1215","CVOE_B",10,1,4,39,"S 72","Number","Y",FALSE,"OE","p","p",1542,TRUE,1
"1216","CVOE_B",10,1,4,40,"U 47","Number","N",FALSE,"OE","q","p",3364,FALSE,0
"1217","CVOE_B",10,1,4,41,"A 31","Letter","Y",FALSE,"CV","p","q",1789,FALSE,0
"1218","CVOE_B",10,1,4,42,"D 96","Letter","N",FALSE,"CV","q","p",2147,FALSE,0
"1219","CVOE_B",10,1,4,43,"E 40","Number","Y",TRUE,"OE","p","q",2418,FALSE,0
"1220","CVOE_B",10,1,4,44,"H 79","Number","N",TRUE,"OE","q","p",2093,FALSE,0
"1221","CVOE_B",10,1,4,45,"I 15","Letter","Y",FALSE,"CV","p","p",4105,TRUE,1
"1222","CVOE_B",10,1,4,46,"J 07","Letter","N",TRUE,"CV","q","p",1480,FALSE,0
"1223","CVOE_B",10,1,4,47,"O 61","Number","Y",FALSE,"OE","q","q",3945,TRUE,1
"1224","CVOE_B",10,1,4,48,"P 58","Number","N",FALSE,"OE","p","p",2104,TRUE,1
"1225","CVOE_B",10,1,4,49,"S 37","Letter","Y",TRUE,"CV","q","p",2782,FALSE,0
"1226","CVOE_B",10,1,4,50,"U 61","Letter","N",FALSE,"CV","p","q",1501,FALSE,0
"1227","CVOE_B",10,1,4,51,"A 17","Number","Y",FALSE,"OE","q","p",1531,FALSE,0
"1228","CVOE_B",10,1,4,52,"D 85","Number","N",TRUE,"OE","q","p",2126,FALSE,0
"1229","CVOE_B",10,1,4,53,"E 20","Letter","Y",TRUE,"CV","p","p",1914,TRUE,1
"1230","CVOE_B",10,1,4,54,"H 86","Letter","N",FALSE,"CV","q","p",1027,FALSE,0
"1231","CVOE_B",10,1,4,55,"I 21","Number","Y",FALSE,"OE","q","q",2065,TRUE,1
"1232","CVOE_B",10,1,4,56,"J 29","Number","N",TRUE,"OE","q","q",2472,TRUE,1
"1233","CVOE_B",10,1,4,57,"O 13","Letter","Y",FALSE,"CV","p","p",2551,TRUE,1
"1234","CVOE_B",10,1,4,58,"P 82","Letter","N",FALSE,"CV","q","q",4324,TRUE,1
"1235","CVOE_B",10,1,4,59,"S 72","Number","Y",FALSE,"OE","p","p",4359,TRUE,1
"1236","CVOE_B",10,1,4,60,"U 84","Number","N",TRUE,"OE","p","p",4496,TRUE,1
"1237","CVOE_B",10,1,4,61,"A 49","Letter","Y",FALSE,"CV","p","q",1822,FALSE,0
"1238","CVOE_B",10,1,4,62,"D 91","Letter","N",TRUE,"CV","q","q",1828,TRUE,1
"1239","CVOE_B",10,1,4,63,"E 99","Number","Y",FALSE,"OE","q","p",2202,FALSE,0
"1240","CVOE_B",10,1,4,64,"H 16","Number","N",FALSE,"OE","p","q",2963,FALSE,0
"1241","CVOE_B",10,1,4,65,"I 45","Letter","Y",FALSE,"CV","p","q",2108,FALSE,0
"1242","CVOE_B",10,1,4,66,"J 70","Letter","N",FALSE,"CV","q","q",947,TRUE,1
"1243","CVOE_B",10,1,4,67,"O 22","Number","Y",TRUE,"OE","p","q",1673,FALSE,0
"1244","CVOE_B",10,1,4,68,"P 41","Number","N",TRUE,"OE","q","q",7847,TRUE,1
"1245","CVOE_B",10,1,4,69,"S 93","Letter","Y",TRUE,"CV","q","p",853,FALSE,0
"1246","CVOE_B",10,1,4,70,"U 70","Letter","N",TRUE,"CV","p","p",1704,TRUE,1
"1247","CVOE_B",10,1,4,71,"A 42","Number","Y",TRUE,"OE","p","p",1782,TRUE,1
"1248","CVOE_B",10,1,4,72,"D 85","Number","N",TRUE,"OE","q","q",3948,TRUE,1
"1249","CVOE_B",10,1,4,73,"E 68","Letter","Y",TRUE,"CV","p","q",2691,FALSE,0
"1250","CVOE_B",10,1,4,74,"H 17","Letter","N",TRUE,"CV","q","p",4031,FALSE,0
"1251","CVOE_B",10,1,4,75,"I 70","Number","Y",TRUE,"OE","p","q",1142,FALSE,0
"1252","CVOE_B",10,1,4,76,"J 88","Number","N",FALSE,"OE","p","p",1532,TRUE,1
"1253","CVOE_B",10,1,4,77,"O 32","Letter","Y",TRUE,"CV","p","q",1399,FALSE,0
"1254","CVOE_B",10,1,4,78,"P 95","Letter","N",TRUE,"CV","q","p",1704,FALSE,0
"1255","CVOE_B",10,1,4,79,"S 98","Number","Y",FALSE,"OE","p","p",1182,TRUE,1
"1256","CVOE_B",10,1,4,80,"U 37","Number","N",FALSE,"OE","q","p",3324,FALSE,0
"1257","CVOE_B",10,1,4,81,"A 56","Letter","Y",TRUE,"CV","p","q",2262,FALSE,0
"1258","CVOE_B",10,1,4,82,"D 57","Letter","N",TRUE,"CV","q","p",3612,FALSE,0
"1259","CVOE_B",10,1,4,83,"E 93","Number","Y",FALSE,"OE","q","p",1648,FALSE,0
"1260","CVOE_B",10,1,4,84,"H 27","Number","N",TRUE,"OE","q","q",2412,TRUE,1
"1261","CVOE_B",10,1,4,85,"I 35","Letter","Y",FALSE,"CV","p","p",1088,TRUE,1
"1262","CVOE_B",10,1,4,86,"J 03","Letter","N",TRUE,"CV","q","q",619,TRUE,1
"1263","CVOE_B",10,1,4,87,"O 28","Number","Y",TRUE,"OE","p","q",2094,FALSE,0
"1264","CVOE_B",10,1,4,88,"P 59","Number","N",TRUE,"OE","q","q",2818,TRUE,1
"1265","CVOE_B",10,1,4,89,"S 77","Letter","Y",TRUE,"CV","q","p",1278,FALSE,0
"1266","CVOE_B",10,1,4,90,"U 05","Letter","N",FALSE,"CV","p","p",3622,TRUE,1
"1267","CVOE_B",10,1,4,91,"A 56","Number","Y",TRUE,"OE","p","p",2317,TRUE,1
"1268","CVOE_B",10,1,4,92,"D 01","Number","N",TRUE,"OE","q","q",3614,TRUE,1
"1269","CVOE_B",10,1,4,93,"E 02","Letter","Y",TRUE,"CV","p","q",1491,FALSE,0
"1270","CVOE_B",10,1,4,94,"H 68","Letter","N",FALSE,"CV","q","p",1310,FALSE,0
"1271","CVOE_B",10,1,4,95,"I 05","Number","Y",FALSE,"OE","q","p",1740,FALSE,0
"1272","CVOE_B",10,1,4,96,"J 55","Number","N",TRUE,"OE","q","p",3136,FALSE,0
"1273","CVOE_B",10,1,4,97,"O 73","Letter","Y",FALSE,"CV","p","p",4708,TRUE,1
"1274","CVOE_B",10,1,4,98,"P 41","Letter","N",TRUE,"CV","q","p",3227,FALSE,0
"1275","CVOE_B",10,1,4,99,"S 92","Number","Y",FALSE,"OE","p","q",1658,FALSE,0
"1276","CVOE_B",10,1,4,100,"U 34","Number","N",TRUE,"OE","p","p",1525,TRUE,1
"1277","CVOE_B",10,1,4,101,"A 09","Letter","Y",FALSE,"CV","p","q",1078,FALSE,0
"1278","CVOE_B",10,1,4,102,"D 92","Letter","N",FALSE,"CV","q","q",1839,TRUE,1
"1279","CVOE_B",10,1,4,103,"E 48","Number","Y",TRUE,"OE","p","p",1399,TRUE,1
"1280","CVOE_B",10,1,4,104,"H 76","Number","N",FALSE,"OE","p","q",6152,FALSE,0
"1281","CVOE_B",10,1,4,105,"I 44","Letter","Y",TRUE,"CV","p","p",1691,TRUE,1
"1282","CVOE_B",10,1,4,106,"J 67","Letter","N",TRUE,"CV","q","q",886,TRUE,1
"1283","CVOE_B",10,1,4,107,"O 48","Number","Y",TRUE,"OE","p","q",1231,FALSE,0
"1284","CVOE_B",10,1,4,108,"P 22","Number","N",FALSE,"OE","p","q",1845,FALSE,0
"1285","CVOE_B",10,1,4,109,"S 86","Letter","Y",FALSE,"CV","q","p",1326,FALSE,0
"1286","CVOE_B",10,1,4,110,"U 35","Letter","N",FALSE,"CV","p","q",894,FALSE,0
"1287","CVOE_B",10,1,4,111,"A 91","Number","Y",FALSE,"OE","q","q",1610,TRUE,1
"1288","CVOE_B",10,1,4,112,"D 78","Number","N",FALSE,"OE","p","q",1581,FALSE,0
"1289","CVOE_B",10,1,4,113,"E 91","Letter","Y",FALSE,"CV","p","q",4419,FALSE,0
"1290","CVOE_B",10,1,4,114,"H 54","Letter","N",FALSE,"CV","q","p",1016,FALSE,0
"1291","CVOE_B",10,1,4,115,"I 65","Number","Y",FALSE,"OE","p","p",1571,TRUE,1
"1292","CVOE_B",10,1,4,116,"J 52","Number","N",FALSE,"OE","p","q",2854,FALSE,0
"1293","CVOE_B",10,1,4,117,"O 19","Letter","Y",FALSE,"CV","p","p",3050,TRUE,1
"1294","CVOE_B",10,1,4,118,"P 48","Letter","N",FALSE,"CV","q","p",894,FALSE,0
"1295","CVOE_B",10,1,4,119,"S 45","Number","Y",TRUE,"OE","q","q",1290,TRUE,1
"1296","CVOE_B",10,1,4,120,"U 26","Number","N",TRUE,"OE","p","p",5109,TRUE,1
"1297","CVOE_B",6,1,1,11,"A 24","","",TRUE,"OE","p","p",4245,TRUE,1
"1298","CVOE_B",6,1,1,12,"O 83","","",FALSE,"OE","q","q",1111,TRUE,1
"1299","CVOE_B",6,1,1,13,"H 55","","",TRUE,"OE","q","q",1061,TRUE,1
"1300","CVOE_B",6,1,1,14,"P 10","","",FALSE,"OE","p","p",875,TRUE,1
"1301","CVOE_B",6,1,1,15,"D 30","","",FALSE,"OE","p","p",964,TRUE,1
"1302","CVOE_B",6,1,1,16,"U 62","","",TRUE,"OE","p","p",812,TRUE,1
"1303","CVOE_B",6,1,1,17,"P 95","","",TRUE,"OE","q","q",871,TRUE,1
"1304","CVOE_B",6,1,1,18,"U 06","","",TRUE,"OE","p","p",693,TRUE,1
"1305","CVOE_B",6,1,1,19,"E 75","","",FALSE,"OE","q","q",1136,TRUE,1
"1306","CVOE_B",6,1,1,20,"I 67","","",FALSE,"OE","q","q",788,TRUE,1
"1307","CVOE_B",6,1,1,21,"S 13","","",TRUE,"OE","q","q",857,TRUE,1
"1308","CVOE_B",6,1,1,22,"P 78","","",FALSE,"OE","p","p",693,TRUE,1
"1309","CVOE_B",6,1,1,23,"I 15","","",FALSE,"OE","q","q",1664,TRUE,1
"1310","CVOE_B",6,1,1,24,"D 27","","",TRUE,"OE","q","q",646,TRUE,1
"1311","CVOE_B",6,1,1,25,"O 94","","",TRUE,"OE","p","p",798,TRUE,1
"1312","CVOE_B",6,1,1,26,"A 65","","",FALSE,"OE","q","q",2471,TRUE,1
"1313","CVOE_B",6,1,1,27,"I 42","","",TRUE,"OE","p","p",1205,TRUE,1
"1314","CVOE_B",6,1,1,28,"E 25","","",FALSE,"OE","q","q",758,TRUE,1
"1315","CVOE_B",6,1,1,29,"H 49","","",TRUE,"OE","p","q",615,FALSE,0
"1316","CVOE_B",6,1,1,30,"S 18","","",FALSE,"OE","p","p",1618,TRUE,1
"1317","CVOE_B",6,1,1,31,"H 51","","",TRUE,"OE","q","q",677,TRUE,1
"1318","CVOE_B",6,1,1,32,"U 14","","",TRUE,"OE","p","p",1182,TRUE,1
"1319","CVOE_B",6,1,1,33,"E 02","","",TRUE,"OE","p","p",884,TRUE,1
"1320","CVOE_B",6,1,1,34,"J 26","","",FALSE,"OE","p","p",860,TRUE,1
"1321","CVOE_B",6,1,1,35,"D 24","","",FALSE,"OE","p","p",687,TRUE,1
"1322","CVOE_B",6,1,1,36,"O 50","","",TRUE,"OE","p","p",1042,TRUE,1
"1323","CVOE_B",6,1,1,37,"U 16","","",TRUE,"OE","p","p",587,TRUE,1
