"ExperimentName","Subject","Group","Block","Trial","STIM","TASK","Switch","Congruent","CVOE","Response","RT","block_type","letter","number","key2","response2","match2","score2"
"CVOE updated",89,1,1,11,"A 71","","",FALSE,"CV","p",2002,"cv","A","1","v","v",TRUE,1
"CVOE updated",89,1,1,12,"I 66","","",TRUE,"CV","p",646,"cv","I","6","v","v",TRUE,1
"CVOE updated",89,1,1,13,"S 30","","",FALSE,"CV","q",543,"cv","S","0","c","c",TRUE,1
"CVOE updated",89,1,1,14,"D 20","","",FALSE,"CV","q",620,"cv","D","0","c","c",TRUE,1
"CVOE updated",89,1,1,15,"I 31","","",FALSE,"CV","p",551,"cv","I","1","v","v",TRUE,1
"CVOE updated",89,1,1,16,"P 16","","",FALSE,"CV","q",452,"cv","P","6","c","c",TRUE,1
"CVOE updated",89,1,1,17,"A 49","","",FALSE,"CV","p",573,"cv","A","9","v","v",TRUE,1
"CVOE updated",89,1,1,18,"O 64","","",TRUE,"CV","p",498,"cv","O","4","v","v",TRUE,1
"CVOE updated",89,1,1,19,"D 02","","",FALSE,"CV","q",529,"cv","D","2","c","c",TRUE,1
"CVOE updated",89,1,1,20,"P 81","","",TRUE,"CV","q",463,"cv","P","1","c","c",TRUE,1
"CVOE updated",89,1,1,21,"J 58","","",FALSE,"CV","q",600,"cv","J","8","c","c",TRUE,1
"CVOE updated",89,1,1,22,"A 22","","",TRUE,"CV","p",491,"cv","A","2","v","v",TRUE,1
"CVOE updated",89,1,1,23,"J 72","","",FALSE,"CV","q",467,"cv","J","2","c","c",TRUE,1
"CVOE updated",89,1,1,24,"P 91","","",TRUE,"CV","p",339,"cv","P","1","c","v",FALSE,0
"CVOE updated",89,1,1,25,"E 19","","",FALSE,"CV","p",681,"cv","E","9","v","v",TRUE,1
"CVOE updated",89,1,1,26,"I 30","","",TRUE,"CV","p",561,"cv","I","0","v","v",TRUE,1
"CVOE updated",89,1,1,27,"D 91","","",TRUE,"CV","q",526,"cv","D","1","c","c",TRUE,1
"CVOE updated",89,1,1,28,"O 48","","",TRUE,"CV","p",540,"cv","O","8","v","v",TRUE,1
"CVOE updated",89,1,1,29,"A 89","","",FALSE,"CV","p",778,"cv","A","9","v","v",TRUE,1
"CVOE updated",89,1,1,30,"U 11","","",FALSE,"CV","p",558,"cv","U","1","v","v",TRUE,1
"CVOE updated",89,1,1,31,"I 76","","",TRUE,"CV","p",515,"cv","I","6","v","v",TRUE,1
"CVOE updated",89,1,1,32,"U 89","","",FALSE,"CV","p",657,"cv","U","9","v","v",TRUE,1
"CVOE updated",89,1,1,33,"D 63","","",TRUE,"CV","q",539,"cv","D","3","c","c",TRUE,1
"CVOE updated",89,1,1,34,"H 70","","",FALSE,"CV","q",553,"cv","H","0","c","c",TRUE,1
"CVOE updated",89,1,1,35,"D 48","","",FALSE,"CV","q",502,"cv","D","8","c","c",TRUE,1
"CVOE updated",89,1,1,36,"P 56","","",FALSE,"CV","q",581,"cv","P","6","c","c",TRUE,1
"CVOE updated",89,1,1,37,"O 77","","",FALSE,"CV","p",537,"cv","O","7","v","v",TRUE,1
"CVOE updated",89,1,1,38,"P 42","","",FALSE,"CV","q",503,"cv","P","2","c","c",TRUE,1
"CVOE updated",89,1,1,39,"H 22","","",FALSE,"CV","q",510,"cv","H","2","c","c",TRUE,1
"CVOE updated",89,1,1,40,"E 42","","",TRUE,"CV","p",669,"cv","E","2","v","v",TRUE,1
"CVOE updated",89,1,1,41,"J 28","","",FALSE,"CV","q",493,"cv","J","8","c","c",TRUE,1
"CVOE updated",89,1,1,42,"E 95","","",FALSE,"CV","p",541,"cv","E","5","v","v",TRUE,1
"CVOE updated",89,1,1,43,"S 63","","",TRUE,"CV","q",555,"cv","S","3","c","c",TRUE,1
"CVOE updated",89,1,1,44,"H 50","","",FALSE,"CV","q",584,"cv","H","0","c","c",TRUE,1
"CVOE updated",89,1,1,45,"S 33","","",TRUE,"CV","q",556,"cv","S","3","c","c",TRUE,1
"CVOE updated",89,1,1,46,"P 57","","",TRUE,"CV","q",593,"cv","P","7","c","c",TRUE,1
"CVOE updated",89,1,1,47,"E 23","","",FALSE,"CV","p",484,"cv","E","3","v","v",TRUE,1
"CVOE updated",89,1,1,48,"S 61","","",TRUE,"CV","q",500,"cv","S","1","c","c",TRUE,1
"CVOE updated",89,1,1,49,"U 67","","",FALSE,"CV","p",555,"cv","U","7","v","v",TRUE,1
"CVOE updated",89,1,1,50,"H 32","","",FALSE,"CV","q",473,"cv","H","2","c","c",TRUE,1
"CVOE updated",89,1,1,51,"U 50","","",TRUE,"CV","p",529,"cv","U","0","v","v",TRUE,1
"CVOE updated",89,1,1,52,"O 49","","",FALSE,"CV","p",535,"cv","O","9","v","v",TRUE,1
"CVOE updated",89,1,1,53,"U 32","","",TRUE,"CV","p",477,"cv","U","2","v","v",TRUE,1
"CVOE updated",89,1,1,54,"J 78","","",FALSE,"CV","q",453,"cv","J","8","c","c",TRUE,1
"CVOE updated",89,1,1,55,"S 54","","",FALSE,"CV","q",470,"cv","S","4","c","c",TRUE,1
"CVOE updated",89,1,1,56,"J 27","","",TRUE,"CV","q",511,"cv","J","7","c","c",TRUE,1
"CVOE updated",89,1,1,57,"S 06","","",FALSE,"CV","q",414,"cv","S","6","c","c",TRUE,1
"CVOE updated",89,1,1,58,"D 67","","",TRUE,"CV","q",912,"cv","D","7","c","c",TRUE,1
"CVOE updated",89,1,1,59,"A 79","","",FALSE,"CV","p",711,"cv","A","9","v","v",TRUE,1
"CVOE updated",89,1,1,60,"S 52","","",FALSE,"CV","q",741,"cv","S","2","c","c",TRUE,1
"CVOE updated",89,1,1,61,"U 16","","",TRUE,"CV","p",539,"cv","U","6","v","v",TRUE,1
"CVOE updated",89,1,1,62,"O 82","","",TRUE,"CV","p",1041,"cv","O","2","v","v",TRUE,1
"CVOE updated",89,1,1,63,"H 87","","",TRUE,"CV","q",555,"cv","H","7","c","c",TRUE,1
"CVOE updated",89,1,1,64,"I 32","","",TRUE,"CV","p",600,"cv","I","2","v","v",TRUE,1
"CVOE updated",89,1,1,65,"U 37","","",FALSE,"CV","p",540,"cv","U","7","v","v",TRUE,1
"CVOE updated",89,1,1,66,"I 42","","",TRUE,"CV","p",489,"cv","I","2","v","v",TRUE,1
"CVOE updated",89,1,1,67,"D 65","","",TRUE,"CV","q",553,"cv","D","5","c","c",TRUE,1
"CVOE updated",89,1,1,68,"U 77","","",FALSE,"CV","p",567,"cv","U","7","v","v",TRUE,1
"CVOE updated",89,1,1,69,"E 12","","",TRUE,"CV","p",579,"cv","E","2","v","v",TRUE,1
"CVOE updated",89,1,1,70,"I 60","","",TRUE,"CV","p",391,"cv","I","0","v","v",TRUE,1
"CVOE updated",89,1,1,71,"J 36","","",FALSE,"CV","q",507,"cv","J","6","c","c",TRUE,1
"CVOE updated",89,1,1,72,"H 75","","",TRUE,"CV","q",810,"cv","H","5","c","c",TRUE,1
"CVOE updated",89,1,1,73,"I 50","","",TRUE,"CV","p",469,"cv","I","0","v","v",TRUE,1
"CVOE updated",89,1,1,74,"E 99","","",FALSE,"CV","p",1086,"cv","E","9","v","v",TRUE,1
"CVOE updated",89,1,1,75,"A 86","","",TRUE,"CV","p",605,"cv","A","6","v","v",TRUE,1
"CVOE updated",89,1,1,76,"U 48","","",TRUE,"CV","p",585,"cv","U","8","v","v",TRUE,1
"CVOE updated",89,1,1,77,"E 01","","",FALSE,"CV","p",605,"cv","E","1","v","v",TRUE,1
"CVOE updated",89,1,1,78,"A 78","","",TRUE,"CV","p",536,"cv","A","8","v","v",TRUE,1
"CVOE updated",89,1,1,79,"P 60","","",FALSE,"CV","q",542,"cv","P","0","c","c",TRUE,1
"CVOE updated",89,1,1,80,"E 43","","",FALSE,"CV","p",684,"cv","E","3","v","v",TRUE,1
"CVOE updated",89,1,1,81,"D 69","","",TRUE,"CV","q",508,"cv","D","9","c","c",TRUE,1
"CVOE updated",89,1,1,82,"H 11","","",TRUE,"CV","q",627,"cv","H","1","c","c",TRUE,1
"CVOE updated",89,1,1,83,"P 43","","",TRUE,"CV","q",573,"cv","P","3","c","c",TRUE,1
"CVOE updated",89,1,1,84,"O 67","","",FALSE,"CV","p",505,"cv","O","7","v","v",TRUE,1
"CVOE updated",89,1,1,85,"S 91","","",FALSE,"CV","q",601,"cv","S","1","c","c",TRUE,1
"CVOE updated",89,1,1,86,"J 68","","",TRUE,"CV","q",628,"cv","J","8","c","c",TRUE,1
"CVOE updated",89,1,1,87,"S 47","","",FALSE,"CV","q",486,"cv","S","7","c","c",TRUE,1
"CVOE updated",89,1,1,88,"I 81","","",TRUE,"CV","p",1118,"cv","I","1","v","v",TRUE,1
"CVOE updated",89,1,1,89,"J 39","","",FALSE,"CV","q",980,"cv","J","9","c","c",TRUE,1
"CVOE updated",89,1,1,90,"A 11","","",TRUE,"CV","p",584,"cv","A","1","v","v",TRUE,1
"CVOE updated",89,1,1,91,"O 76","","",FALSE,"CV","p",604,"cv","O","6","v","v",TRUE,1
"CVOE updated",89,1,1,92,"A 62","","",FALSE,"CV","p",479,"cv","A","2","v","v",TRUE,1
"CVOE updated",89,1,1,93,"O 27","","",TRUE,"CV","p",615,"cv","O","7","v","v",TRUE,1
"CVOE updated",89,1,1,94,"E 66","","",FALSE,"CV","p",650,"cv","E","6","v","v",TRUE,1
"CVOE updated",89,1,1,95,"J 62","","",TRUE,"CV","q",611,"cv","J","2","c","c",TRUE,1
"CVOE updated",89,1,1,96,"H 72","","",TRUE,"CV","q",582,"cv","H","2","c","c",TRUE,1
"CVOE updated",89,1,1,97,"E 49","","",TRUE,"CV","p",626,"cv","E","9","v","v",TRUE,1
"CVOE updated",89,1,1,98,"D 52","","",TRUE,"CV","q",3668,"cv","D","2","c","c",TRUE,1
"CVOE updated",89,1,1,99,"H 62","","",TRUE,"CV","q",532,"cv","H","2","c","c",TRUE,1
"CVOE updated",89,1,1,100,"I 11","","",TRUE,"CV","p",514,"cv","I","1","v","v",TRUE,1
"CVOE updated",89,1,1,101,"A 98","","",FALSE,"CV","p",673,"cv","A","8","v","v",TRUE,1
"CVOE updated",89,1,1,102,"H 29","","",FALSE,"CV","q",585,"cv","H","9","c","c",TRUE,1
"CVOE updated",89,1,1,103,"E 83","","",TRUE,"CV","p",573,"cv","E","3","v","v",TRUE,1
"CVOE updated",89,1,1,104,"D 43","","",FALSE,"CV","q",530,"cv","D","3","c","c",TRUE,1
"CVOE updated",89,1,1,105,"P 45","","",TRUE,"CV","q",504,"cv","P","5","c","c",TRUE,1
"CVOE updated",89,1,1,106,"J 17","","",TRUE,"CV","q",599,"cv","J","7","c","c",TRUE,1
"CVOE_B",90,1,2,11,"A 71","","",FALSE,"CV","p",1601,"cv","A","1","v","v",TRUE,1
"CVOE_B",90,1,2,12,"I 66","","",TRUE,"CV","p",411,"cv","I","6","v","v",TRUE,1
"CVOE_B",90,1,2,13,"S 30","","",FALSE,"CV","q",534,"cv","S","0","c","c",TRUE,1
"CVOE_B",90,1,2,14,"D 20","","",FALSE,"CV","q",932,"cv","D","0","c","c",TRUE,1
"CVOE_B",90,1,2,15,"I 31","","",FALSE,"CV","p",698,"cv","I","1","v","v",TRUE,1
"CVOE_B",90,1,2,16,"P 16","","",FALSE,"CV","q",2321,"cv","P","6","c","c",TRUE,1
"CVOE_B",90,1,2,17,"A 49","","",FALSE,"CV","p",432,"cv","A","9","v","v",TRUE,1
"CVOE_B",90,1,2,18,"O 64","","",TRUE,"CV","p",610,"cv","O","4","v","v",TRUE,1
"CVOE_B",90,1,2,19,"D 02","","",FALSE,"CV","p",356,"cv","D","2","c","v",FALSE,0
"CVOE_B",90,1,2,20,"P 81","","",TRUE,"CV","q",610,"cv","P","1","c","c",TRUE,1
"CVOE_B",90,1,2,21,"J 58","","",FALSE,"CV","q",364,"cv","J","8","c","c",TRUE,1
"CVOE_B",90,1,2,22,"A 22","","",TRUE,"CV","p",433,"cv","A","2","v","v",TRUE,1
"CVOE_B",90,1,2,23,"J 72","","",FALSE,"CV","q",530,"cv","J","2","c","c",TRUE,1
"CVOE_B",90,1,2,24,"P 91","","",TRUE,"CV","q",529,"cv","P","1","c","c",TRUE,1
"CVOE_B",90,1,2,25,"E 19","","",FALSE,"CV","p",671,"cv","E","9","v","v",TRUE,1
"CVOE_B",90,1,2,26,"I 30","","",TRUE,"CV","p",495,"cv","I","0","v","v",TRUE,1
"CVOE_B",90,1,2,27,"D 91","","",TRUE,"CV","q",463,"cv","D","1","c","c",TRUE,1
"CVOE_B",90,1,2,28,"O 48","","",TRUE,"CV","p",415,"cv","O","8","v","v",TRUE,1
"CVOE_B",90,1,2,29,"A 89","","",FALSE,"CV","p",482,"cv","A","9","v","v",TRUE,1
"CVOE_B",90,1,2,30,"U 11","","",FALSE,"CV","q",634,"cv","U","1","v","c",FALSE,0
"CVOE_B",90,1,2,31,"I 76","","",TRUE,"CV","p",1188,"cv","I","6","v","v",TRUE,1
"CVOE_B",90,1,2,32,"U 89","","",FALSE,"CV","p",575,"cv","U","9","v","v",TRUE,1
"CVOE_B",90,1,2,33,"D 63","","",TRUE,"CV","q",628,"cv","D","3","c","c",TRUE,1
"CVOE_B",90,1,2,34,"H 70","","",FALSE,"CV","q",622,"cv","H","0","c","c",TRUE,1
"CVOE_B",90,1,2,35,"D 48","","",FALSE,"CV","q",361,"cv","D","8","c","c",TRUE,1
"CVOE_B",90,1,2,36,"P 56","","",FALSE,"CV","q",429,"cv","P","6","c","c",TRUE,1
"CVOE_B",90,1,2,37,"O 77","","",FALSE,"CV","p",399,"cv","O","7","v","v",TRUE,1
"CVOE_B",90,1,2,38,"P 42","","",FALSE,"CV","q",402,"cv","P","2","c","c",TRUE,1
"CVOE_B",90,1,2,39,"H 22","","",FALSE,"CV","q",414,"cv","H","2","c","c",TRUE,1
"CVOE_B",90,1,2,40,"E 42","","",TRUE,"CV","p",424,"cv","E","2","v","v",TRUE,1
"CVOE_B",90,1,2,41,"J 28","","",FALSE,"CV","q",339,"cv","J","8","c","c",TRUE,1
"CVOE_B",90,1,2,42,"E 95","","",FALSE,"CV","q",481,"cv","E","5","v","c",FALSE,0
"CVOE_B",90,1,2,43,"S 63","","",TRUE,"CV","q",609,"cv","S","3","c","c",TRUE,1
"CVOE_B",90,1,2,44,"H 50","","",FALSE,"CV","q",420,"cv","H","0","c","c",TRUE,1
"CVOE_B",90,1,2,45,"S 33","","",TRUE,"CV","q",423,"cv","S","3","c","c",TRUE,1
"CVOE_B",90,1,2,46,"P 57","","",TRUE,"CV","q",401,"cv","P","7","c","c",TRUE,1
"CVOE_B",90,1,2,47,"E 23","","",FALSE,"CV","p",596,"cv","E","3","v","v",TRUE,1
"CVOE_B",90,1,2,48,"S 61","","",TRUE,"CV","q",464,"cv","S","1","c","c",TRUE,1
"CVOE_B",90,1,2,49,"U 67","","",FALSE,"CV","p",504,"cv","U","7","v","v",TRUE,1
"CVOE_B",90,1,2,50,"H 32","","",FALSE,"CV","q",1096,"cv","H","2","c","c",TRUE,1
"CVOE_B",90,1,2,51,"U 50","","",TRUE,"CV","p",583,"cv","U","0","v","v",TRUE,1
"CVOE_B",90,1,2,52,"O 49","","",FALSE,"CV","p",475,"cv","O","9","v","v",TRUE,1
"CVOE_B",90,1,2,53,"U 32","","",TRUE,"CV","p",875,"cv","U","2","v","v",TRUE,1
"CVOE_B",90,1,2,54,"J 78","","",FALSE,"CV","q",492,"cv","J","8","c","c",TRUE,1
"CVOE_B",90,1,2,55,"S 54","","",FALSE,"CV","q",476,"cv","S","4","c","c",TRUE,1
"CVOE_B",90,1,2,56,"J 27","","",TRUE,"CV","q",404,"cv","J","7","c","c",TRUE,1
"CVOE_B",90,1,2,57,"S 06","","",FALSE,"CV","q",376,"cv","S","6","c","c",TRUE,1
"CVOE_B",90,1,2,58,"D 67","","",TRUE,"CV","q",516,"cv","D","7","c","c",TRUE,1
"CVOE_B",90,1,2,59,"A 79","","",FALSE,"CV","p",834,"cv","A","9","v","v",TRUE,1
"CVOE_B",90,1,2,60,"S 52","","",FALSE,"CV","q",428,"cv","S","2","c","c",TRUE,1
"CVOE_B",90,1,2,61,"U 16","","",TRUE,"CV","p",382,"cv","U","6","v","v",TRUE,1
"CVOE_B",90,1,2,62,"O 82","","",TRUE,"CV","p",386,"cv","O","2","v","v",TRUE,1
"CVOE_B",90,1,2,63,"H 87","","",TRUE,"CV","q",526,"cv","H","7","c","c",TRUE,1
"CVOE_B",90,1,2,64,"I 32","","",TRUE,"CV","p",932,"cv","I","2","v","v",TRUE,1
"CVOE_B",90,1,2,65,"U 37","","",FALSE,"CV","p",586,"cv","U","7","v","v",TRUE,1
"CVOE_B",90,1,2,66,"I 42","","",TRUE,"CV","p",830,"cv","I","2","v","v",TRUE,1
"CVOE_B",90,1,2,67,"D 65","","",TRUE,"CV","q",624,"cv","D","5","c","c",TRUE,1
"CVOE_B",90,1,2,68,"U 77","","",FALSE,"CV","p",682,"cv","U","7","v","v",TRUE,1
"CVOE_B",90,1,2,69,"E 12","","",TRUE,"CV","p",866,"cv","E","2","v","v",TRUE,1
"CVOE_B",90,1,2,70,"I 60","","",TRUE,"CV","p",419,"cv","I","0","v","v",TRUE,1
"CVOE_B",90,1,2,71,"J 36","","",FALSE,"CV","q",469,"cv","J","6","c","c",TRUE,1
"CVOE_B",90,1,2,72,"H 75","","",TRUE,"CV","q",518,"cv","H","5","c","c",TRUE,1
"CVOE_B",90,1,2,73,"I 50","","",TRUE,"CV","p",812,"cv","I","0","v","v",TRUE,1
"CVOE_B",90,1,2,74,"E 99","","",FALSE,"CV","p",543,"cv","E","9","v","v",TRUE,1
"CVOE_B",90,1,2,75,"A 86","","",TRUE,"CV","p",740,"cv","A","6","v","v",TRUE,1
"CVOE_B",90,1,2,76,"U 48","","",TRUE,"CV","p",522,"cv","U","8","v","v",TRUE,1
"CVOE_B",90,1,2,77,"E 01","","",FALSE,"CV","p",457,"cv","E","1","v","v",TRUE,1
"CVOE_B",90,1,2,78,"A 78","","",TRUE,"CV","p",394,"cv","A","8","v","v",TRUE,1
"CVOE_B",90,1,2,79,"P 60","","",FALSE,"CV","q",517,"cv","P","0","c","c",TRUE,1
"CVOE_B",90,1,2,80,"E 43","","",FALSE,"CV","p",404,"cv","E","3","v","v",TRUE,1
"CVOE_B",90,1,2,81,"D 69","","",TRUE,"CV","q",503,"cv","D","9","c","c",TRUE,1
"CVOE_B",90,1,2,82,"H 11","","",TRUE,"CV","q",678,"cv","H","1","c","c",TRUE,1
"CVOE_B",90,1,2,83,"P 43","","",TRUE,"CV","q",374,"cv","P","3","c","c",TRUE,1
"CVOE_B",90,1,2,84,"O 67","","",FALSE,"CV","p",515,"cv","O","7","v","v",TRUE,1
"CVOE_B",90,1,2,85,"S 91","","",FALSE,"CV","q",642,"cv","S","1","c","c",TRUE,1
"CVOE_B",90,1,2,86,"J 68","","",TRUE,"CV","q",380,"cv","J","8","c","c",TRUE,1
"CVOE_B",90,1,2,87,"S 47","","",FALSE,"CV","q",391,"cv","S","7","c","c",TRUE,1
"CVOE_B",90,1,2,88,"I 81","","",TRUE,"CV","p",611,"cv","I","1","v","v",TRUE,1
"CVOE_B",90,1,2,89,"J 39","","",FALSE,"CV","q",638,"cv","J","9","c","c",TRUE,1
"CVOE_B",90,1,2,90,"A 11","","",TRUE,"CV","p",624,"cv","A","1","v","v",TRUE,1
"CVOE_B",90,1,2,91,"O 76","","",FALSE,"CV","p",706,"cv","O","6","v","v",TRUE,1
"CVOE_B",90,1,2,92,"A 62","","",FALSE,"CV","p",1074,"cv","A","2","v","v",TRUE,1
"CVOE_B",90,1,2,93,"O 27","","",TRUE,"CV","p",442,"cv","O","7","v","v",TRUE,1
"CVOE_B",90,1,2,94,"E 66","","",FALSE,"CV","p",348,"cv","E","6","v","v",TRUE,1
"CVOE_B",90,1,2,95,"J 62","","",TRUE,"CV","q",618,"cv","J","2","c","c",TRUE,1
"CVOE_B",90,1,2,96,"H 72","","",TRUE,"CV","q",636,"cv","H","2","c","c",TRUE,1
"CVOE_B",90,1,2,97,"E 49","","",TRUE,"CV","p",806,"cv","E","9","v","v",TRUE,1
"CVOE_B",90,1,2,98,"D 52","","",TRUE,"CV","q",3617,"cv","D","2","c","c",TRUE,1
"CVOE_B",90,1,2,99,"H 62","","",TRUE,"CV","q",892,"cv","H","2","c","c",TRUE,1
"CVOE_B",90,1,2,100,"I 11","","",TRUE,"CV","q",340,"cv","I","1","v","c",FALSE,0
"CVOE_B",90,1,2,101,"A 98","","",FALSE,"CV","p",530,"cv","A","8","v","v",TRUE,1
"CVOE_B",90,1,2,102,"H 29","","",FALSE,"CV","q",495,"cv","H","9","c","c",TRUE,1
"CVOE_B",90,1,2,103,"E 83","","",TRUE,"CV","p",455,"cv","E","3","v","v",TRUE,1
"CVOE_B",90,1,2,104,"D 43","","",FALSE,"CV","q",440,"cv","D","3","c","c",TRUE,1
"CVOE_B",90,1,2,105,"P 45","","",TRUE,"CV","q",362,"cv","P","5","c","c",TRUE,1
"CVOE_B",90,1,2,106,"J 17","","",TRUE,"CV","q",447,"cv","J","7","c","c",TRUE,1
"CVOE_C",91,1,2,11,"A 71","","",FALSE,"CV","p",1686,"cv","A","1","v","v",TRUE,1
"CVOE_C",91,1,2,12,"I 66","","",TRUE,"CV","p",456,"cv","I","6","v","v",TRUE,1
"CVOE_C",91,1,2,13,"S 30","","",FALSE,"CV","q",423,"cv","S","0","c","c",TRUE,1
"CVOE_C",91,1,2,14,"D 20","","",FALSE,"CV","q",510,"cv","D","0","c","c",TRUE,1
"CVOE_C",91,1,2,15,"I 31","","",FALSE,"CV","p",493,"cv","I","1","v","v",TRUE,1
"CVOE_C",91,1,2,16,"P 16","","",FALSE,"CV","q",459,"cv","P","6","c","c",TRUE,1
"CVOE_C",91,1,2,17,"A 49","","",FALSE,"CV","p",606,"cv","A","9","v","v",TRUE,1
"CVOE_C",91,1,2,18,"O 64","","",TRUE,"CV","p",469,"cv","O","4","v","v",TRUE,1
"CVOE_C",91,1,2,19,"D 02","","",FALSE,"CV","q",434,"cv","D","2","c","c",TRUE,1
"CVOE_C",91,1,2,20,"P 81","","",TRUE,"CV","q",502,"cv","P","1","c","c",TRUE,1
"CVOE_C",91,1,2,21,"J 58","","",FALSE,"CV","q",432,"cv","J","8","c","c",TRUE,1
"CVOE_C",91,1,2,22,"A 22","","",TRUE,"CV","p",446,"cv","A","2","v","v",TRUE,1
"CVOE_C",91,1,2,23,"J 72","","",FALSE,"CV","q",444,"cv","J","2","c","c",TRUE,1
"CVOE_C",91,1,2,24,"P 91","","",TRUE,"CV","q",609,"cv","P","1","c","c",TRUE,1
"CVOE_C",91,1,2,25,"E 19","","",FALSE,"CV","p",503,"cv","E","9","v","v",TRUE,1
"CVOE_C",91,1,2,26,"I 30","","",TRUE,"CV","p",702,"cv","I","0","v","v",TRUE,1
"CVOE_C",91,1,2,27,"D 91","","",TRUE,"CV","q",460,"cv","D","1","c","c",TRUE,1
"CVOE_C",91,1,2,28,"O 48","","",TRUE,"CV","p",475,"cv","O","8","v","v",TRUE,1
"CVOE_C",91,1,2,29,"A 89","","",FALSE,"CV","p",451,"cv","A","9","v","v",TRUE,1
"CVOE_C",91,1,2,30,"U 11","","",FALSE,"CV","p",374,"cv","U","1","v","v",TRUE,1
"CVOE_C",91,1,2,31,"I 76","","",TRUE,"CV","p",436,"cv","I","6","v","v",TRUE,1
"CVOE_C",91,1,2,32,"U 89","","",FALSE,"CV","p",411,"cv","U","9","v","v",TRUE,1
"CVOE_C",91,1,2,33,"D 63","","",TRUE,"CV","q",480,"cv","D","3","c","c",TRUE,1
"CVOE_C",91,1,2,34,"H 70","","",FALSE,"CV","q",563,"cv","H","0","c","c",TRUE,1
"CVOE_C",91,1,2,35,"D 48","","",FALSE,"CV","q",450,"cv","D","8","c","c",TRUE,1
"CVOE_C",91,1,2,36,"P 56","","",FALSE,"CV","q",426,"cv","P","6","c","c",TRUE,1
"CVOE_C",91,1,2,37,"O 77","","",FALSE,"CV","p",551,"cv","O","7","v","v",TRUE,1
"CVOE_C",91,1,2,38,"P 42","","",FALSE,"CV","q",488,"cv","P","2","c","c",TRUE,1
"CVOE_C",91,1,2,39,"H 22","","",FALSE,"CV","q",415,"cv","H","2","c","c",TRUE,1
"CVOE_C",91,1,2,40,"E 42","","",TRUE,"CV","p",439,"cv","E","2","v","v",TRUE,1
"CVOE_C",91,1,2,41,"J 28","","",FALSE,"CV","q",430,"cv","J","8","c","c",TRUE,1
"CVOE_C",91,1,2,42,"E 95","","",FALSE,"CV","p",418,"cv","E","5","v","v",TRUE,1
"CVOE_C",91,1,2,43,"S 63","","",TRUE,"CV","q",463,"cv","S","3","c","c",TRUE,1
"CVOE_C",91,1,2,44,"H 50","","",FALSE,"CV","q",481,"cv","H","0","c","c",TRUE,1
"CVOE_C",91,1,2,45,"S 33","","",TRUE,"CV","q",488,"cv","S","3","c","c",TRUE,1
"CVOE_C",91,1,2,46,"P 57","","",TRUE,"CV","q",379,"cv","P","7","c","c",TRUE,1
"CVOE_C",91,1,2,47,"E 23","","",FALSE,"CV","p",456,"cv","E","3","v","v",TRUE,1
"CVOE_C",91,1,2,48,"S 61","","",TRUE,"CV","q",444,"cv","S","1","c","c",TRUE,1
"CVOE_C",91,1,2,49,"U 67","","",FALSE,"CV","p",409,"cv","U","7","v","v",TRUE,1
"CVOE_C",91,1,2,50,"H 32","","",FALSE,"CV","q",408,"cv","H","2","c","c",TRUE,1
"CVOE_C",91,1,2,51,"U 50","","",TRUE,"CV","p",631,"cv","U","0","v","v",TRUE,1
"CVOE_C",91,1,2,52,"O 49","","",FALSE,"CV","p",431,"cv","O","9","v","v",TRUE,1
"CVOE_C",91,1,2,53,"U 32","","",TRUE,"CV","p",581,"cv","U","2","v","v",TRUE,1
"CVOE_C",91,1,2,54,"J 78","","",FALSE,"CV","q",489,"cv","J","8","c","c",TRUE,1
"CVOE_C",91,1,2,55,"S 54","","",FALSE,"CV","q",575,"cv","S","4","c","c",TRUE,1
"CVOE_C",91,1,2,56,"J 27","","",TRUE,"CV","q",390,"cv","J","7","c","c",TRUE,1
"CVOE_C",91,1,2,57,"S 06","","",FALSE,"CV","q",403,"cv","S","6","c","c",TRUE,1
"CVOE_C",91,1,2,58,"D 67","","",TRUE,"CV","q",613,"cv","D","7","c","c",TRUE,1
"CVOE_C",91,1,2,59,"A 79","","",FALSE,"CV","p",436,"cv","A","9","v","v",TRUE,1
"CVOE_C",91,1,2,60,"S 52","","",FALSE,"CV","q",470,"cv","S","2","c","c",TRUE,1
"CVOE_C",91,1,2,61,"U 16","","",TRUE,"CV","p",427,"cv","U","6","v","v",TRUE,1
"CVOE_C",91,1,2,62,"O 82","","",TRUE,"CV","p",547,"cv","O","2","v","v",TRUE,1
"CVOE_C",91,1,2,63,"H 87","","",TRUE,"CV","q",428,"cv","H","7","c","c",TRUE,1
"CVOE_C",91,1,2,64,"I 32","","",TRUE,"CV","p",407,"cv","I","2","v","v",TRUE,1
"CVOE_C",91,1,2,65,"U 37","","",FALSE,"CV","p",700,"cv","U","7","v","v",TRUE,1
"CVOE_C",91,1,2,66,"I 42","","",TRUE,"CV","p",481,"cv","I","2","v","v",TRUE,1
"CVOE_C",91,1,2,67,"D 65","","",TRUE,"CV","q",632,"cv","D","5","c","c",TRUE,1
"CVOE_C",91,1,2,68,"U 77","","",FALSE,"CV","p",583,"cv","U","7","v","v",TRUE,1
"CVOE_C",91,1,2,69,"E 12","","",TRUE,"CV","p",454,"cv","E","2","v","v",TRUE,1
"CVOE_C",91,1,2,70,"I 60","","",TRUE,"CV","p",348,"cv","I","0","v","v",TRUE,1
"CVOE_C",91,1,2,71,"J 36","","",FALSE,"CV","q",513,"cv","J","6","c","c",TRUE,1
"CVOE_C",91,1,2,72,"H 75","","",TRUE,"CV","q",502,"cv","H","5","c","c",TRUE,1
"CVOE_C",91,1,2,73,"I 50","","",TRUE,"CV","p",428,"cv","I","0","v","v",TRUE,1
"CVOE_C",91,1,2,74,"E 99","","",FALSE,"CV","p",383,"cv","E","9","v","v",TRUE,1
"CVOE_C",91,1,2,75,"A 86","","",TRUE,"CV","p",321,"cv","A","6","v","v",TRUE,1
"CVOE_C",91,1,2,76,"U 48","","",TRUE,"CV","p",406,"cv","U","8","v","v",TRUE,1
"CVOE_C",91,1,2,77,"E 01","","",FALSE,"CV","p",313,"cv","E","1","v","v",TRUE,1
"CVOE_C",91,1,2,78,"A 78","","",TRUE,"CV","p",309,"cv","A","8","v","v",TRUE,1
"CVOE_C",91,1,2,79,"P 60","","",FALSE,"CV","q",476,"cv","P","0","c","c",TRUE,1
"CVOE_C",91,1,2,80,"E 43","","",FALSE,"CV","p",450,"cv","E","3","v","v",TRUE,1
"CVOE_C",91,1,2,81,"D 69","","",TRUE,"CV","q",453,"cv","D","9","c","c",TRUE,1
"CVOE_C",91,1,2,82,"H 11","","",TRUE,"CV","q",489,"cv","H","1","c","c",TRUE,1
"CVOE_C",91,1,2,83,"P 43","","",TRUE,"CV","q",411,"cv","P","3","c","c",TRUE,1
"CVOE_C",91,1,2,84,"O 67","","",FALSE,"CV","p",448,"cv","O","7","v","v",TRUE,1
"CVOE_C",91,1,2,85,"S 91","","",FALSE,"CV","q",370,"cv","S","1","c","c",TRUE,1
"CVOE_C",91,1,2,86,"J 68","","",TRUE,"CV","q",366,"cv","J","8","c","c",TRUE,1
"CVOE_C",91,1,2,87,"S 47","","",FALSE,"CV","q",332,"cv","S","7","c","c",TRUE,1
"CVOE_C",91,1,2,88,"I 81","","",TRUE,"CV","p",473,"cv","I","1","v","v",TRUE,1
"CVOE_C",91,1,2,89,"J 39","","",FALSE,"CV","q",466,"cv","J","9","c","c",TRUE,1
"CVOE_C",91,1,2,90,"A 11","","",TRUE,"CV","p",451,"cv","A","1","v","v",TRUE,1
"CVOE_C",91,1,2,91,"O 76","","",FALSE,"CV","p",533,"cv","O","6","v","v",TRUE,1
"CVOE_C",91,1,2,92,"A 62","","",FALSE,"CV","p",440,"cv","A","2","v","v",TRUE,1
"CVOE_C",91,1,2,93,"O 27","","",TRUE,"CV","p",399,"cv","O","7","v","v",TRUE,1
"CVOE_C",91,1,2,94,"E 66","","",FALSE,"CV","p",318,"cv","E","6","v","v",TRUE,1
"CVOE_C",91,1,2,95,"J 62","","",TRUE,"CV","q",483,"cv","J","2","c","c",TRUE,1
"CVOE_C",91,1,2,96,"H 72","","",TRUE,"CV","q",522,"cv","H","2","c","c",TRUE,1
"CVOE_C",91,1,2,97,"E 49","","",TRUE,"CV","p",378,"cv","E","9","v","v",TRUE,1
"CVOE_C",91,1,2,98,"D 52","","",TRUE,"CV","q",533,"cv","D","2","c","c",TRUE,1
"CVOE_C",91,1,2,99,"H 62","","",TRUE,"CV","q",390,"cv","H","2","c","c",TRUE,1
"CVOE_C",91,1,2,100,"I 11","","",TRUE,"CV","p",452,"cv","I","1","v","v",TRUE,1
"CVOE_C",91,1,2,101,"A 98","","",FALSE,"CV","p",429,"cv","A","8","v","v",TRUE,1
"CVOE_C",91,1,2,102,"H 29","","",FALSE,"CV","q",427,"cv","H","9","c","c",TRUE,1
"CVOE_C",91,1,2,103,"E 83","","",TRUE,"CV","p",466,"cv","E","3","v","v",TRUE,1
"CVOE_C",91,1,2,104,"D 43","","",FALSE,"CV","q",433,"cv","D","3","c","c",TRUE,1
"CVOE_C",91,1,2,105,"P 45","","",TRUE,"CV","q",382,"cv","P","5","c","c",TRUE,1
"CVOE_C",91,1,2,106,"J 17","","",TRUE,"CV","q",463,"cv","J","7","c","c",TRUE,1
"CVOE_D",88,1,1,11,"A 71","","",FALSE,"CV","p",951,"cv","A","1","v","v",TRUE,1
"CVOE_D",88,1,1,12,"I 66","","",TRUE,"CV","p",596,"cv","I","6","v","v",TRUE,1
"CVOE_D",88,1,1,13,"S 30","","",FALSE,"CV","q",503,"cv","S","0","c","c",TRUE,1
"CVOE_D",88,1,1,14,"D 20","","",FALSE,"CV","q",494,"cv","D","0","c","c",TRUE,1
"CVOE_D",88,1,1,15,"I 31","","",FALSE,"CV","p",430,"cv","I","1","v","v",TRUE,1
"CVOE_D",88,1,1,16,"P 16","","",FALSE,"CV","q",432,"cv","P","6","c","c",TRUE,1
"CVOE_D",88,1,1,17,"A 49","","",FALSE,"CV","p",386,"cv","A","9","v","v",TRUE,1
"CVOE_D",88,1,1,18,"O 64","","",TRUE,"CV","p",726,"cv","O","4","v","v",TRUE,1
"CVOE_D",88,1,1,19,"D 02","","",FALSE,"CV","q",548,"cv","D","2","c","c",TRUE,1
"CVOE_D",88,1,1,20,"P 81","","",TRUE,"CV","q",649,"cv","P","1","c","c",TRUE,1
"CVOE_D",88,1,1,21,"J 58","","",FALSE,"CV","q",531,"cv","J","8","c","c",TRUE,1
"CVOE_D",88,1,1,22,"A 22","","",TRUE,"CV","p",489,"cv","A","2","v","v",TRUE,1
"CVOE_D",88,1,1,23,"J 72","","",FALSE,"CV","q",648,"cv","J","2","c","c",TRUE,1
"CVOE_D",88,1,1,24,"P 91","","",TRUE,"CV","q",850,"cv","P","1","c","c",TRUE,1
"CVOE_D",88,1,1,25,"E 19","","",FALSE,"CV","p",459,"cv","E","9","v","v",TRUE,1
"CVOE_D",88,1,1,26,"I 30","","",TRUE,"CV","p",516,"cv","I","0","v","v",TRUE,1
"CVOE_D",88,1,1,27,"D 91","","",TRUE,"CV","q",451,"cv","D","1","c","c",TRUE,1
"CVOE_D",88,1,1,28,"O 48","","",TRUE,"CV","p",428,"cv","O","8","v","v",TRUE,1
"CVOE_D",88,1,1,29,"A 89","","",FALSE,"CV","p",558,"cv","A","9","v","v",TRUE,1
"CVOE_D",88,1,1,30,"U 11","","",FALSE,"CV","p",523,"cv","U","1","v","v",TRUE,1
"CVOE_D",88,1,1,31,"I 76","","",TRUE,"CV","p",482,"cv","I","6","v","v",TRUE,1
"CVOE_D",88,1,1,32,"U 89","","",FALSE,"CV","p",450,"cv","U","9","v","v",TRUE,1
"CVOE_D",88,1,1,33,"D 63","","",TRUE,"CV","q",499,"cv","D","3","c","c",TRUE,1
"CVOE_D",88,1,1,34,"H 70","","",FALSE,"CV","q",466,"cv","H","0","c","c",TRUE,1
"CVOE_D",88,1,1,35,"D 48","","",FALSE,"CV","q",603,"cv","D","8","c","c",TRUE,1
"CVOE_D",88,1,1,36,"P 56","","",FALSE,"CV","q",454,"cv","P","6","c","c",TRUE,1
"CVOE_D",88,1,1,37,"O 77","","",FALSE,"CV","p",647,"cv","O","7","v","v",TRUE,1
"CVOE_D",88,1,1,38,"P 42","","",FALSE,"CV","q",705,"cv","P","2","c","c",TRUE,1
"CVOE_D",88,1,1,39,"H 22","","",FALSE,"CV","q",1032,"cv","H","2","c","c",TRUE,1
"CVOE_D",88,1,1,40,"E 42","","",TRUE,"CV","p",490,"cv","E","2","v","v",TRUE,1
"CVOE_D",88,1,1,41,"J 28","","",FALSE,"CV","q",642,"cv","J","8","c","c",TRUE,1
"CVOE_D",88,1,1,42,"E 95","","",FALSE,"CV","p",540,"cv","E","5","v","v",TRUE,1
"CVOE_D",88,1,1,43,"S 63","","",TRUE,"CV","q",594,"cv","S","3","c","c",TRUE,1
"CVOE_D",88,1,1,44,"H 50","","",FALSE,"CV","q",725,"cv","H","0","c","c",TRUE,1
"CVOE_D",88,1,1,45,"S 33","","",TRUE,"CV","q",459,"cv","S","3","c","c",TRUE,1
"CVOE_D",88,1,1,46,"P 57","","",TRUE,"CV","q",492,"cv","P","7","c","c",TRUE,1
"CVOE_D",88,1,1,47,"E 23","","",FALSE,"CV","p",564,"cv","E","3","v","v",TRUE,1
"CVOE_D",88,1,1,48,"S 61","","",TRUE,"CV","q",1441,"cv","S","1","c","c",TRUE,1
"CVOE_D",88,1,1,49,"U 67","","",FALSE,"CV","p",858,"cv","U","7","v","v",TRUE,1
"CVOE_D",88,1,1,50,"H 32","","",FALSE,"CV","q",692,"cv","H","2","c","c",TRUE,1
"CVOE_D",88,1,1,51,"U 50","","",TRUE,"CV","p",724,"cv","U","0","v","v",TRUE,1
"CVOE_D",88,1,1,52,"O 49","","",FALSE,"CV","p",898,"cv","O","9","v","v",TRUE,1
"CVOE_D",88,1,1,53,"U 32","","",TRUE,"CV","p",825,"cv","U","2","v","v",TRUE,1
"CVOE_D",88,1,1,54,"J 78","","",FALSE,"CV","q",700,"cv","J","8","c","c",TRUE,1
"CVOE_D",88,1,1,55,"S 54","","",FALSE,"CV","q",587,"cv","S","4","c","c",TRUE,1
"CVOE_D",88,1,1,56,"J 27","","",TRUE,"CV","q",655,"cv","J","7","c","c",TRUE,1
"CVOE_D",88,1,1,57,"S 06","","",FALSE,"CV","q",632,"cv","S","6","c","c",TRUE,1
"CVOE_D",88,1,1,58,"D 67","","",TRUE,"CV","q",618,"cv","D","7","c","c",TRUE,1
"CVOE_D",88,1,1,59,"A 79","","",FALSE,"CV","p",653,"cv","A","9","v","v",TRUE,1
"CVOE_D",88,1,1,60,"S 52","","",FALSE,"CV","q",1030,"cv","S","2","c","c",TRUE,1
"CVOE_D",88,1,1,61,"U 16","","",TRUE,"CV","p",560,"cv","U","6","v","v",TRUE,1
"CVOE_D",88,1,1,62,"O 82","","",TRUE,"CV","p",653,"cv","O","2","v","v",TRUE,1
"CVOE_D",88,1,1,63,"H 87","","",TRUE,"CV","q",734,"cv","H","7","c","c",TRUE,1
"CVOE_D",88,1,1,64,"I 32","","",TRUE,"CV","p",468,"cv","I","2","v","v",TRUE,1
"CVOE_D",88,1,1,65,"U 37","","",FALSE,"CV","p",484,"cv","U","7","v","v",TRUE,1
"CVOE_D",88,1,1,66,"I 42","","",TRUE,"CV","p",540,"cv","I","2","v","v",TRUE,1
"CVOE_D",88,1,1,67,"D 65","","",TRUE,"CV","q",594,"cv","D","5","c","c",TRUE,1
"CVOE_D",88,1,1,68,"U 77","","",FALSE,"CV","p",486,"cv","U","7","v","v",TRUE,1
"CVOE_D",88,1,1,69,"E 12","","",TRUE,"CV","p",453,"cv","E","2","v","v",TRUE,1
"CVOE_D",88,1,1,70,"I 60","","",TRUE,"CV","p",503,"cv","I","0","v","v",TRUE,1
"CVOE_D",88,1,1,71,"J 36","","",FALSE,"CV","q",438,"cv","J","6","c","c",TRUE,1
"CVOE_D",88,1,1,72,"H 75","","",TRUE,"CV","q",432,"cv","H","5","c","c",TRUE,1
"CVOE_D",88,1,1,73,"I 50","","",TRUE,"CV","p",586,"cv","I","0","v","v",TRUE,1
"CVOE_D",88,1,1,74,"E 99","","",FALSE,"CV","p",510,"cv","E","9","v","v",TRUE,1
"CVOE_D",88,1,1,75,"A 86","","",TRUE,"CV","p",420,"cv","A","6","v","v",TRUE,1
"CVOE_D",88,1,1,76,"U 48","","",TRUE,"CV","p",423,"cv","U","8","v","v",TRUE,1
"CVOE_D",88,1,1,77,"E 01","","",FALSE,"CV","p",426,"cv","E","1","v","v",TRUE,1
"CVOE_D",88,1,1,78,"A 78","","",TRUE,"CV","p",412,"cv","A","8","v","v",TRUE,1
"CVOE_D",88,1,1,79,"P 60","","",FALSE,"CV","q",479,"cv","P","0","c","c",TRUE,1
"CVOE_D",88,1,1,80,"E 43","","",FALSE,"CV","p",463,"cv","E","3","v","v",TRUE,1
"CVOE_D",88,1,1,81,"D 69","","",TRUE,"CV","q",487,"cv","D","9","c","c",TRUE,1
"CVOE_D",88,1,1,82,"H 11","","",TRUE,"CV","q",599,"cv","H","1","c","c",TRUE,1
"CVOE_D",88,1,1,83,"P 43","","",TRUE,"CV","q",555,"cv","P","3","c","c",TRUE,1
"CVOE_D",88,1,1,84,"O 67","","",FALSE,"CV","p",912,"cv","O","7","v","v",TRUE,1
"CVOE_D",88,1,1,85,"S 91","","",FALSE,"CV","q",1014,"cv","S","1","c","c",TRUE,1
"CVOE_D",88,1,1,86,"J 68","","",TRUE,"CV","q",537,"cv","J","8","c","c",TRUE,1
"CVOE_D",88,1,1,87,"S 47","","",FALSE,"CV","q",431,"cv","S","7","c","c",TRUE,1
"CVOE_D",88,1,1,88,"I 81","","",TRUE,"CV","p",553,"cv","I","1","v","v",TRUE,1
"CVOE_D",88,1,1,89,"J 39","","",FALSE,"CV","q",502,"cv","J","9","c","c",TRUE,1
"CVOE_D",88,1,1,90,"A 11","","",TRUE,"CV","p",485,"cv","A","1","v","v",TRUE,1
"CVOE_D",88,1,1,91,"O 76","","",FALSE,"CV","p",501,"cv","O","6","v","v",TRUE,1
"CVOE_D",88,1,1,92,"A 62","","",FALSE,"CV","p",436,"cv","A","2","v","v",TRUE,1
"CVOE_D",88,1,1,93,"O 27","","",TRUE,"CV","p",486,"cv","O","7","v","v",TRUE,1
"CVOE_D",88,1,1,94,"E 66","","",FALSE,"CV","p",462,"cv","E","6","v","v",TRUE,1
"CVOE_D",88,1,1,95,"J 62","","",TRUE,"CV","q",487,"cv","J","2","c","c",TRUE,1
"CVOE_D",88,1,1,96,"H 72","","",TRUE,"CV","q",1223,"cv","H","2","c","c",TRUE,1
"CVOE_D",88,1,1,97,"E 49","","",TRUE,"CV","p",625,"cv","E","9","v","v",TRUE,1
"CVOE_D",88,1,1,98,"D 52","","",TRUE,"CV","q",452,"cv","D","2","c","c",TRUE,1
"CVOE_D",88,1,1,99,"H 62","","",TRUE,"CV","q",421,"cv","H","2","c","c",TRUE,1
"CVOE_D",88,1,1,100,"I 11","","",TRUE,"CV","p",696,"cv","I","1","v","v",TRUE,1
"CVOE_D",88,1,1,101,"A 98","","",FALSE,"CV","p",535,"cv","A","8","v","v",TRUE,1
"CVOE_D",88,1,1,102,"H 29","","",FALSE,"CV","q",733,"cv","H","9","c","c",TRUE,1
"CVOE_D",88,1,1,103,"E 83","","",TRUE,"CV","p",811,"cv","E","3","v","v",TRUE,1
"CVOE_D",88,1,1,104,"D 43","","",FALSE,"CV","q",814,"cv","D","3","c","c",TRUE,1
"CVOE_D",88,1,1,105,"P 45","","",TRUE,"CV","q",1120,"cv","P","5","c","c",TRUE,1
"CVOE_D",88,1,1,106,"J 17","","",TRUE,"CV","q",775,"cv","J","7","c","c",TRUE,1
"CVOE_D",92,1,1,11,"A 71","","",FALSE,"CV","p",884,"cv","A","1","v","v",TRUE,1
"CVOE_D",92,1,1,12,"I 66","","",TRUE,"CV","p",420,"cv","I","6","v","v",TRUE,1
"CVOE_D",92,1,1,13,"S 30","","",FALSE,"CV","q",439,"cv","S","0","c","c",TRUE,1
"CVOE_D",92,1,1,14,"D 20","","",FALSE,"CV","q",345,"cv","D","0","c","c",TRUE,1
"CVOE_D",92,1,1,15,"I 31","","",FALSE,"CV","p",462,"cv","I","1","v","v",TRUE,1
"CVOE_D",92,1,1,16,"P 16","","",FALSE,"CV","q",543,"cv","P","6","c","c",TRUE,1
"CVOE_D",92,1,1,17,"A 49","","",FALSE,"CV","p",436,"cv","A","9","v","v",TRUE,1
"CVOE_D",92,1,1,18,"O 64","","",TRUE,"CV","p",446,"cv","O","4","v","v",TRUE,1
"CVOE_D",92,1,1,19,"D 02","","",FALSE,"CV","q",455,"cv","D","2","c","c",TRUE,1
"CVOE_D",92,1,1,20,"P 81","","",TRUE,"CV","q",504,"cv","P","1","c","c",TRUE,1
"CVOE_D",92,1,1,21,"J 58","","",FALSE,"CV","q",496,"cv","J","8","c","c",TRUE,1
"CVOE_D",92,1,1,22,"A 22","","",TRUE,"CV","p",423,"cv","A","2","v","v",TRUE,1
"CVOE_D",92,1,1,23,"J 72","","",FALSE,"CV","q",514,"cv","J","2","c","c",TRUE,1
"CVOE_D",92,1,1,24,"P 91","","",TRUE,"CV","q",320,"cv","P","1","c","c",TRUE,1
"CVOE_D",92,1,1,25,"E 19","","",FALSE,"CV","p",495,"cv","E","9","v","v",TRUE,1
"CVOE_D",92,1,1,26,"I 30","","",TRUE,"CV","p",678,"cv","I","0","v","v",TRUE,1
"CVOE_D",92,1,1,27,"D 91","","",TRUE,"CV","q",502,"cv","D","1","c","c",TRUE,1
"CVOE_D",92,1,1,28,"O 48","","",TRUE,"CV","p",421,"cv","O","8","v","v",TRUE,1
"CVOE_D",92,1,1,29,"A 89","","",FALSE,"CV","p",352,"cv","A","9","v","v",TRUE,1
"CVOE_D",92,1,1,30,"U 11","","",FALSE,"CV","p",357,"cv","U","1","v","v",TRUE,1
"CVOE_D",92,1,1,31,"I 76","","",TRUE,"CV","q",354,"cv","I","6","v","c",FALSE,0
"CVOE_D",92,1,1,32,"U 89","","",FALSE,"CV","p",584,"cv","U","9","v","v",TRUE,1
"CVOE_D",92,1,1,33,"D 63","","",TRUE,"CV","q",460,"cv","D","3","c","c",TRUE,1
"CVOE_D",92,1,1,34,"H 70","","",FALSE,"CV","p",484,"cv","H","0","c","v",FALSE,0
"CVOE_D",92,1,1,35,"D 48","","",FALSE,"CV","q",916,"cv","D","8","c","c",TRUE,1
"CVOE_D",92,1,1,36,"P 56","","",FALSE,"CV","q",619,"cv","P","6","c","c",TRUE,1
"CVOE_D",92,1,1,37,"O 77","","",FALSE,"CV","p",485,"cv","O","7","v","v",TRUE,1
"CVOE_D",92,1,1,38,"P 42","","",FALSE,"CV","q",917,"cv","P","2","c","c",TRUE,1
"CVOE_D",92,1,1,39,"H 22","","",FALSE,"CV","q",732,"cv","H","2","c","c",TRUE,1
"CVOE_D",92,1,1,40,"E 42","","",TRUE,"CV","p",482,"cv","E","2","v","v",TRUE,1
"CVOE_D",92,1,1,41,"J 28","","",FALSE,"CV","q",530,"cv","J","8","c","c",TRUE,1
"CVOE_D",92,1,1,42,"E 95","","",FALSE,"CV","p",568,"cv","E","5","v","v",TRUE,1
"CVOE_D",92,1,1,43,"S 63","","",TRUE,"CV","q",620,"cv","S","3","c","c",TRUE,1
"CVOE_D",92,1,1,44,"H 50","","",FALSE,"CV","q",503,"cv","H","0","c","c",TRUE,1
"CVOE_D",92,1,1,45,"S 33","","",TRUE,"CV","q",406,"cv","S","3","c","c",TRUE,1
"CVOE_D",92,1,1,46,"P 57","","",TRUE,"CV","q",489,"cv","P","7","c","c",TRUE,1
"CVOE_D",92,1,1,47,"E 23","","",FALSE,"CV","p",433,"cv","E","3","v","v",TRUE,1
"CVOE_D",92,1,1,48,"S 61","","",TRUE,"CV","q",403,"cv","S","1","c","c",TRUE,1
"CVOE_D",92,1,1,49,"U 67","","",FALSE,"CV","p",334,"cv","U","7","v","v",TRUE,1
"CVOE_D",92,1,1,50,"H 32","","",FALSE,"CV","q",428,"cv","H","2","c","c",TRUE,1
"CVOE_D",92,1,1,51,"U 50","","",TRUE,"CV","p",462,"cv","U","0","v","v",TRUE,1
"CVOE_D",92,1,1,52,"O 49","","",FALSE,"CV","p",407,"cv","O","9","v","v",TRUE,1
"CVOE_D",92,1,1,53,"U 32","","",TRUE,"CV","p",482,"cv","U","2","v","v",TRUE,1
"CVOE_D",92,1,1,54,"J 78","","",FALSE,"CV","q",418,"cv","J","8","c","c",TRUE,1
"CVOE_D",92,1,1,55,"S 54","","",FALSE,"CV","q",597,"cv","S","4","c","c",TRUE,1
"CVOE_D",92,1,1,56,"J 27","","",TRUE,"CV","q",560,"cv","J","7","c","c",TRUE,1
"CVOE_D",92,1,1,57,"S 06","","",FALSE,"CV","q",517,"cv","S","6","c","c",TRUE,1
"CVOE_D",92,1,1,58,"D 67","","",TRUE,"CV","q",371,"cv","D","7","c","c",TRUE,1
"CVOE_D",92,1,1,59,"A 79","","",FALSE,"CV","p",480,"cv","A","9","v","v",TRUE,1
"CVOE_D",92,1,1,60,"S 52","","",FALSE,"CV","q",392,"cv","S","2","c","c",TRUE,1
"CVOE_D",92,1,1,61,"U 16","","",TRUE,"CV","p",364,"cv","U","6","v","v",TRUE,1
"CVOE_D",92,1,1,62,"O 82","","",TRUE,"CV","p",496,"cv","O","2","v","v",TRUE,1
"CVOE_D",92,1,1,63,"H 87","","",TRUE,"CV","q",503,"cv","H","7","c","c",TRUE,1
"CVOE_D",92,1,1,64,"I 32","","",TRUE,"CV","q",335,"cv","I","2","v","c",FALSE,0
"CVOE_D",92,1,1,65,"U 37","","",FALSE,"CV","q",493,"cv","U","7","v","c",FALSE,0
"CVOE_D",92,1,1,66,"I 42","","",TRUE,"CV","p",492,"cv","I","2","v","v",TRUE,1
"CVOE_D",92,1,1,67,"D 65","","",TRUE,"CV","q",452,"cv","D","5","c","c",TRUE,1
"CVOE_D",92,1,1,68,"U 77","","",FALSE,"CV","p",445,"cv","U","7","v","v",TRUE,1
"CVOE_D",92,1,1,69,"E 12","","",TRUE,"CV","q",542,"cv","E","2","v","c",FALSE,0
"CVOE_D",92,1,1,70,"I 60","","",TRUE,"CV","p",1252,"cv","I","0","v","v",TRUE,1
"CVOE_D",92,1,1,71,"J 36","","",FALSE,"CV","q",541,"cv","J","6","c","c",TRUE,1
"CVOE_D",92,1,1,72,"H 75","","",TRUE,"CV","q",691,"cv","H","5","c","c",TRUE,1
"CVOE_D",92,1,1,73,"I 50","","",TRUE,"CV","p",443,"cv","I","0","v","v",TRUE,1
"CVOE_D",92,1,1,74,"E 99","","",FALSE,"CV","p",428,"cv","E","9","v","v",TRUE,1
"CVOE_D",92,1,1,75,"A 86","","",TRUE,"CV","p",478,"cv","A","6","v","v",TRUE,1
"CVOE_D",92,1,1,76,"U 48","","",TRUE,"CV","p",454,"cv","U","8","v","v",TRUE,1
"CVOE_D",92,1,1,77,"E 01","","",FALSE,"CV","p",575,"cv","E","1","v","v",TRUE,1
"CVOE_D",92,1,1,78,"A 78","","",TRUE,"CV","p",524,"cv","A","8","v","v",TRUE,1
"CVOE_D",92,1,1,79,"P 60","","",FALSE,"CV","q",442,"cv","P","0","c","c",TRUE,1
"CVOE_D",92,1,1,80,"E 43","","",FALSE,"CV","p",540,"cv","E","3","v","v",TRUE,1
"CVOE_D",92,1,1,81,"D 69","","",TRUE,"CV","q",426,"cv","D","9","c","c",TRUE,1
"CVOE_D",92,1,1,82,"H 11","","",TRUE,"CV","q",612,"cv","H","1","c","c",TRUE,1
"CVOE_D",92,1,1,83,"P 43","","",TRUE,"CV","p",671,"cv","P","3","c","v",FALSE,0
"CVOE_D",92,1,1,84,"O 67","","",FALSE,"CV","p",719,"cv","O","7","v","v",TRUE,1
"CVOE_D",92,1,1,85,"S 91","","",FALSE,"CV","q",798,"cv","S","1","c","c",TRUE,1
"CVOE_D",92,1,1,86,"J 68","","",TRUE,"CV","q",401,"cv","J","8","c","c",TRUE,1
"CVOE_D",92,1,1,87,"S 47","","",FALSE,"CV","q",516,"cv","S","7","c","c",TRUE,1
"CVOE_D",92,1,1,88,"I 81","","",TRUE,"CV","p",643,"cv","I","1","v","v",TRUE,1
"CVOE_D",92,1,1,89,"J 39","","",FALSE,"CV","q",572,"cv","J","9","c","c",TRUE,1
"CVOE_D",92,1,1,90,"A 11","","",TRUE,"CV","p",721,"cv","A","1","v","v",TRUE,1
"CVOE_D",92,1,1,91,"O 76","","",FALSE,"CV","p",879,"cv","O","6","v","v",TRUE,1
"CVOE_D",92,1,1,92,"A 62","","",FALSE,"CV","p",439,"cv","A","2","v","v",TRUE,1
"CVOE_D",92,1,1,93,"O 27","","",TRUE,"CV","p",457,"cv","O","7","v","v",TRUE,1
"CVOE_D",92,1,1,94,"E 66","","",FALSE,"CV","p",411,"cv","E","6","v","v",TRUE,1
"CVOE_D",92,1,1,95,"J 62","","",TRUE,"CV","q",493,"cv","J","2","c","c",TRUE,1
"CVOE_D",92,1,1,96,"H 72","","",TRUE,"CV","q",572,"cv","H","2","c","c",TRUE,1
"CVOE_D",92,1,1,97,"E 49","","",TRUE,"CV","p",529,"cv","E","9","v","v",TRUE,1
"CVOE_D",92,1,1,98,"D 52","","",TRUE,"CV","q",631,"cv","D","2","c","c",TRUE,1
"CVOE_D",92,1,1,99,"H 62","","",TRUE,"CV","q",385,"cv","H","2","c","c",TRUE,1
"CVOE_D",92,1,1,100,"I 11","","",TRUE,"CV","p",573,"cv","I","1","v","v",TRUE,1
"CVOE_D",92,1,1,101,"A 98","","",FALSE,"CV","p",593,"cv","A","8","v","v",TRUE,1
"CVOE_D",92,1,1,102,"H 29","","",FALSE,"CV","q",541,"cv","H","9","c","c",TRUE,1
"CVOE_D",92,1,1,103,"E 83","","",TRUE,"CV","p",523,"cv","E","3","v","v",TRUE,1
"CVOE_D",92,1,1,104,"D 43","","",FALSE,"CV","q",441,"cv","D","3","c","c",TRUE,1
"CVOE_D",92,1,1,105,"P 45","","",TRUE,"CV","q",459,"cv","P","5","c","c",TRUE,1
"CVOE_D",92,1,1,106,"J 17","","",TRUE,"CV","q",420,"cv","J","7","c","c",TRUE,1
"CVOE updated",89,1,2,11,"A 24","","",TRUE,"OE","p",1671,"oe","A","4","e","e",TRUE,1
"CVOE updated",89,1,2,12,"O 83","","",FALSE,"OE","q",751,"oe","O","3","o","o",TRUE,1
"CVOE updated",89,1,2,13,"H 55","","",TRUE,"OE","q",572,"oe","H","5","o","o",TRUE,1
"CVOE updated",89,1,2,14,"P 10","","",FALSE,"OE","p",649,"oe","P","0","e","e",TRUE,1
"CVOE updated",89,1,2,15,"D 30","","",FALSE,"OE","p",650,"oe","D","0","e","e",TRUE,1
"CVOE updated",89,1,2,16,"U 62","","",TRUE,"OE","p",491,"oe","U","2","e","e",TRUE,1
"CVOE updated",89,1,2,17,"P 95","","",TRUE,"OE","q",547,"oe","P","5","o","o",TRUE,1
"CVOE updated",89,1,2,18,"U 06","","",TRUE,"OE","p",537,"oe","U","6","e","e",TRUE,1
"CVOE updated",89,1,2,19,"E 75","","",FALSE,"OE","q",471,"oe","E","5","o","o",TRUE,1
"CVOE updated",89,1,2,20,"I 67","","",FALSE,"OE","q",719,"oe","I","7","o","o",TRUE,1
"CVOE updated",89,1,2,21,"S 13","","",TRUE,"OE","q",702,"oe","S","3","o","o",TRUE,1
"CVOE updated",89,1,2,22,"P 78","","",FALSE,"OE","p",621,"oe","P","8","e","e",TRUE,1
"CVOE updated",89,1,2,23,"I 15","","",FALSE,"OE","q",560,"oe","I","5","o","o",TRUE,1
"CVOE updated",89,1,2,24,"D 27","","",TRUE,"OE","q",524,"oe","D","7","o","o",TRUE,1
"CVOE updated",89,1,2,25,"O 94","","",TRUE,"OE","p",627,"oe","O","4","e","e",TRUE,1
"CVOE updated",89,1,2,26,"A 65","","",FALSE,"OE","q",485,"oe","A","5","o","o",TRUE,1
"CVOE updated",89,1,2,27,"I 42","","",TRUE,"OE","p",589,"oe","I","2","e","e",TRUE,1
"CVOE updated",89,1,2,28,"E 25","","",FALSE,"OE","q",497,"oe","E","5","o","o",TRUE,1
"CVOE updated",89,1,2,29,"H 49","","",TRUE,"OE","q",624,"oe","H","9","o","o",TRUE,1
"CVOE updated",89,1,2,30,"S 18","","",FALSE,"OE","p",602,"oe","S","8","e","e",TRUE,1
"CVOE updated",89,1,2,31,"H 51","","",TRUE,"OE","q",614,"oe","H","1","o","o",TRUE,1
"CVOE updated",89,1,2,32,"U 14","","",TRUE,"OE","p",464,"oe","U","4","e","e",TRUE,1
"CVOE updated",89,1,2,33,"E 02","","",TRUE,"OE","p",545,"oe","E","2","e","e",TRUE,1
"CVOE updated",89,1,2,34,"J 26","","",FALSE,"OE","p",558,"oe","J","6","e","e",TRUE,1
"CVOE updated",89,1,2,35,"D 24","","",FALSE,"OE","p",611,"oe","D","4","e","e",TRUE,1
"CVOE updated",89,1,2,36,"O 50","","",TRUE,"OE","p",566,"oe","O","0","e","e",TRUE,1
"CVOE updated",89,1,2,37,"U 16","","",TRUE,"OE","p",435,"oe","U","6","e","e",TRUE,1
"CVOE updated",89,1,2,38,"O 15","","",FALSE,"OE","q",468,"oe","O","5","o","o",TRUE,1
"CVOE updated",89,1,2,39,"D 32","","",FALSE,"OE","p",461,"oe","D","2","e","e",TRUE,1
"CVOE updated",89,1,2,40,"S 67","","",TRUE,"OE","q",486,"oe","S","7","o","o",TRUE,1
"CVOE updated",89,1,2,41,"J 74","","",FALSE,"OE","p",710,"oe","J","4","e","e",TRUE,1
"CVOE updated",89,1,2,42,"D 92","","",FALSE,"OE","p",772,"oe","D","2","e","e",TRUE,1
"CVOE updated",89,1,2,43,"A 65","","",FALSE,"OE","q",481,"oe","A","5","o","o",TRUE,1
"CVOE updated",89,1,2,44,"I 87","","",FALSE,"OE","q",681,"oe","I","7","o","o",TRUE,1
"CVOE updated",89,1,2,45,"H 61","","",TRUE,"OE","q",593,"oe","H","1","o","o",TRUE,1
"CVOE updated",89,1,2,46,"E 59","","",FALSE,"OE","q",444,"oe","E","9","o","o",TRUE,1
"CVOE updated",89,1,2,47,"I 33","","",FALSE,"OE","q",565,"oe","I","3","o","o",TRUE,1
"CVOE updated",89,1,2,48,"O 90","","",TRUE,"OE","p",634,"oe","O","0","e","e",TRUE,1
"CVOE updated",89,1,2,49,"U 51","","",FALSE,"OE","q",636,"oe","U","1","o","o",TRUE,1
"CVOE updated",89,1,2,50,"A 10","","",TRUE,"OE","p",598,"oe","A","0","e","e",TRUE,1
"CVOE updated",89,1,2,51,"E 50","","",TRUE,"OE","p",385,"oe","E","0","e","e",TRUE,1
"CVOE updated",89,1,2,52,"D 92","","",FALSE,"OE","p",517,"oe","D","2","e","e",TRUE,1
"CVOE updated",89,1,2,53,"E 60","","",TRUE,"OE","p",435,"oe","E","0","e","e",TRUE,1
"CVOE updated",89,1,2,54,"A 95","","",FALSE,"OE","q",549,"oe","A","5","o","o",TRUE,1
"CVOE updated",89,1,2,55,"E 64","","",TRUE,"OE","p",523,"oe","E","4","e","e",TRUE,1
"CVOE updated",89,1,2,56,"P 20","","",FALSE,"OE","p",481,"oe","P","0","e","e",TRUE,1
"CVOE updated",89,1,2,57,"S 06","","",FALSE,"OE","p",545,"oe","S","6","e","e",TRUE,1
"CVOE updated",89,1,2,58,"P 64","","",FALSE,"OE","p",582,"oe","P","4","e","e",TRUE,1
"CVOE updated",89,1,2,59,"U 70","","",TRUE,"OE","p",554,"oe","U","0","e","e",TRUE,1
"CVOE updated",89,1,2,60,"S 16","","",FALSE,"OE","p",512,"oe","S","6","e","e",TRUE,1
"CVOE updated",89,1,2,61,"E 35","","",FALSE,"OE","q",590,"oe","E","5","o","o",TRUE,1
"CVOE updated",89,1,2,62,"I 93","","",FALSE,"OE","q",874,"oe","I","3","o","o",TRUE,1
"CVOE updated",89,1,2,63,"D 63","","",TRUE,"OE","q",483,"oe","D","3","o","o",TRUE,1
"CVOE updated",89,1,2,64,"U 89","","",FALSE,"OE","q",643,"oe","U","9","o","o",TRUE,1
"CVOE updated",89,1,2,65,"E 91","","",FALSE,"OE","q",516,"oe","E","1","o","o",TRUE,1
"CVOE updated",89,1,2,66,"A 12","","",TRUE,"OE","p",538,"oe","A","2","e","e",TRUE,1
"CVOE updated",89,1,2,67,"P 56","","",FALSE,"OE","p",608,"oe","P","6","e","e",TRUE,1
"CVOE updated",89,1,2,68,"S 65","","",TRUE,"OE","q",564,"oe","S","5","o","o",TRUE,1
"CVOE updated",89,1,2,69,"P 07","","",TRUE,"OE","q",688,"oe","P","7","o","o",TRUE,1
"CVOE updated",89,1,2,70,"I 77","","",FALSE,"OE","q",560,"oe","I","7","o","o",TRUE,1
"CVOE updated",89,1,2,71,"J 19","","",TRUE,"OE","q",733,"oe","J","9","o","o",TRUE,1
"CVOE updated",89,1,2,72,"O 59","","",FALSE,"OE","q",491,"oe","O","9","o","o",TRUE,1
"CVOE updated",89,1,2,73,"J 15","","",TRUE,"OE","q",891,"oe","J","5","o","o",TRUE,1
"CVOE updated",89,1,2,74,"I 89","","",FALSE,"OE","q",546,"oe","I","9","o","o",TRUE,1
"CVOE updated",89,1,2,75,"O 97","","",FALSE,"OE","q",1128,"oe","O","7","o","o",TRUE,1
"CVOE updated",89,1,2,76,"A 92","","",TRUE,"OE","p",542,"oe","A","2","e","e",TRUE,1
"CVOE updated",89,1,2,77,"J 90","","",FALSE,"OE","p",620,"oe","J","0","e","e",TRUE,1
"CVOE updated",89,1,2,78,"H 65","","",TRUE,"OE","q",566,"oe","H","5","o","o",TRUE,1
"CVOE updated",89,1,2,79,"H 17","","",TRUE,"OE","q",603,"oe","H","7","o","o",TRUE,1
"CVOE updated",89,1,2,80,"S 26","","",FALSE,"OE","q",830,"oe","S","6","e","o",FALSE,0
"CVOE updated",89,1,2,81,"D 56","","",FALSE,"OE","p",600,"oe","D","6","e","e",TRUE,1
"CVOE updated",89,1,2,82,"I 91","","",FALSE,"OE","q",547,"oe","I","1","o","o",TRUE,1
"CVOE updated",89,1,2,83,"J 11","","",TRUE,"OE","q",512,"oe","J","1","o","o",TRUE,1
"CVOE updated",89,1,2,84,"O 28","","",TRUE,"OE","p",503,"oe","O","8","e","e",TRUE,1
"CVOE updated",89,1,2,85,"H 29","","",TRUE,"OE","q",646,"oe","H","9","o","o",TRUE,1
"CVOE updated",89,1,2,86,"J 25","","",TRUE,"OE","q",527,"oe","J","5","o","o",TRUE,1
"CVOE updated",89,1,2,87,"A 73","","",FALSE,"OE","q",1205,"oe","A","3","o","o",TRUE,1
"CVOE updated",89,1,2,88,"J 63","","",TRUE,"OE","q",473,"oe","J","3","o","o",TRUE,1
"CVOE updated",89,1,2,89,"U 84","","",TRUE,"OE","p",425,"oe","U","4","e","e",TRUE,1
"CVOE updated",89,1,2,90,"A 58","","",TRUE,"OE","p",485,"oe","A","8","e","e",TRUE,1
"CVOE updated",89,1,2,91,"S 43","","",TRUE,"OE","q",516,"oe","S","3","o","o",TRUE,1
"CVOE updated",89,1,2,92,"H 54","","",FALSE,"OE","q",578,"oe","H","4","e","o",FALSE,0
"CVOE updated",89,1,2,93,"D 4","","",FALSE,"OE","p",518,"oe","D","","o","e",FALSE,0
"CVOE updated",89,1,2,94,"J 75","","",TRUE,"OE","q",621,"oe","J","5","o","o",TRUE,1
"CVOE updated",89,1,2,95,"D 19","","",TRUE,"OE","p",503,"oe","D","9","o","e",FALSE,0
"CVOE updated",89,1,2,96,"J 38","","",FALSE,"OE","p",1559,"oe","J","8","e","e",TRUE,1
"CVOE updated",89,1,2,97,"I 56","","",TRUE,"OE","p",2388,"oe","I","6","e","e",TRUE,1
"CVOE updated",89,1,2,98,"P 87","","",TRUE,"OE","q",1016,"oe","P","7","o","o",TRUE,1
"CVOE updated",89,1,2,99,"O 80","","",TRUE,"OE","p",1386,"oe","O","0","e","e",TRUE,1
"CVOE updated",89,1,2,100,"U 60","","",TRUE,"OE","p",590,"oe","U","0","e","e",TRUE,1
"CVOE updated",89,1,2,101,"P 48","","",FALSE,"OE","p",1114,"oe","P","8","e","e",TRUE,1
"CVOE updated",89,1,2,102,"H 64","","",FALSE,"OE","p",937,"oe","H","4","e","e",TRUE,1
"CVOE updated",89,1,2,103,"A 13","","",FALSE,"OE","q",935,"oe","A","3","o","o",TRUE,1
"CVOE updated",89,1,2,104,"H 68","","",FALSE,"OE","p",900,"oe","H","8","e","e",TRUE,1
"CVOE updated",89,1,2,105,"E 16","","",TRUE,"OE","p",1444,"oe","E","6","e","e",TRUE,1
"CVOE updated",89,1,2,106,"S 71","","",TRUE,"OE","q",965,"oe","S","1","o","o",TRUE,1
"CVOE_B",90,1,1,11,"A 24","","",TRUE,"OE","p",1565,"oe","A","4","e","e",TRUE,1
"CVOE_B",90,1,1,12,"O 83","","",FALSE,"OE","q",546,"oe","O","3","o","o",TRUE,1
"CVOE_B",90,1,1,13,"H 55","","",TRUE,"OE","q",439,"oe","H","5","o","o",TRUE,1
"CVOE_B",90,1,1,14,"P 10","","",FALSE,"OE","p",497,"oe","P","0","e","e",TRUE,1
"CVOE_B",90,1,1,15,"D 30","","",FALSE,"OE","p",360,"oe","D","0","e","e",TRUE,1
"CVOE_B",90,1,1,16,"U 62","","",TRUE,"OE","p",405,"oe","U","2","e","e",TRUE,1
"CVOE_B",90,1,1,17,"P 95","","",TRUE,"OE","q",488,"oe","P","5","o","o",TRUE,1
"CVOE_B",90,1,1,18,"U 06","","",TRUE,"OE","p",448,"oe","U","6","e","e",TRUE,1
"CVOE_B",90,1,1,19,"E 75","","",FALSE,"OE","q",569,"oe","E","5","o","o",TRUE,1
"CVOE_B",90,1,1,20,"I 67","","",FALSE,"OE","q",422,"oe","I","7","o","o",TRUE,1
"CVOE_B",90,1,1,21,"S 13","","",TRUE,"OE","q",464,"oe","S","3","o","o",TRUE,1
"CVOE_B",90,1,1,22,"P 78","","",FALSE,"OE","p",457,"oe","P","8","e","e",TRUE,1
"CVOE_B",90,1,1,23,"I 15","","",FALSE,"OE","q",410,"oe","I","5","o","o",TRUE,1
"CVOE_B",90,1,1,24,"D 27","","",TRUE,"OE","q",389,"oe","D","7","o","o",TRUE,1
"CVOE_B",90,1,1,25,"O 94","","",TRUE,"OE","p",489,"oe","O","4","e","e",TRUE,1
"CVOE_B",90,1,1,26,"A 65","","",FALSE,"OE","q",561,"oe","A","5","o","o",TRUE,1
"CVOE_B",90,1,1,27,"I 42","","",TRUE,"OE","p",469,"oe","I","2","e","e",TRUE,1
"CVOE_B",90,1,1,28,"E 25","","",FALSE,"OE","q",566,"oe","E","5","o","o",TRUE,1
"CVOE_B",90,1,1,29,"H 49","","",TRUE,"OE","p",459,"oe","H","9","o","e",FALSE,0
"CVOE_B",90,1,1,30,"S 18","","",FALSE,"OE","p",804,"oe","S","8","e","e",TRUE,1
"CVOE_B",90,1,1,31,"H 51","","",TRUE,"OE","q",559,"oe","H","1","o","o",TRUE,1
"CVOE_B",90,1,1,32,"U 14","","",TRUE,"OE","p",652,"oe","U","4","e","e",TRUE,1
"CVOE_B",90,1,1,33,"E 02","","",TRUE,"OE","p",461,"oe","E","2","e","e",TRUE,1
"CVOE_B",90,1,1,34,"J 26","","",FALSE,"OE","p",685,"oe","J","6","e","e",TRUE,1
"CVOE_B",90,1,1,35,"D 24","","",FALSE,"OE","p",429,"oe","D","4","e","e",TRUE,1
"CVOE_B",90,1,1,36,"O 50","","",TRUE,"OE","p",559,"oe","O","0","e","e",TRUE,1
"CVOE_B",90,1,1,37,"U 16","","",TRUE,"OE","p",468,"oe","U","6","e","e",TRUE,1
"CVOE_B",90,1,1,38,"O 15","","",FALSE,"OE","q",525,"oe","O","5","o","o",TRUE,1
"CVOE_B",90,1,1,39,"D 32","","",FALSE,"OE","q",467,"oe","D","2","e","o",FALSE,0
"CVOE_B",90,1,1,40,"S 67","","",TRUE,"OE","q",620,"oe","S","7","o","o",TRUE,1
"CVOE_B",90,1,1,41,"J 74","","",FALSE,"OE","p",582,"oe","J","4","e","e",TRUE,1
"CVOE_B",90,1,1,42,"D 92","","",FALSE,"OE","p",386,"oe","D","2","e","e",TRUE,1
"CVOE_B",90,1,1,43,"A 65","","",FALSE,"OE","q",622,"oe","A","5","o","o",TRUE,1
"CVOE_B",90,1,1,44,"I 87","","",FALSE,"OE","q",521,"oe","I","7","o","o",TRUE,1
"CVOE_B",90,1,1,45,"H 61","","",TRUE,"OE","q",639,"oe","H","1","o","o",TRUE,1
"CVOE_B",90,1,1,46,"E 59","","",FALSE,"OE","q",545,"oe","E","9","o","o",TRUE,1
"CVOE_B",90,1,1,47,"I 33","","",FALSE,"OE","q",1487,"oe","I","3","o","o",TRUE,1
"CVOE_B",90,1,1,48,"O 90","","",TRUE,"OE","p",686,"oe","O","0","e","e",TRUE,1
"CVOE_B",90,1,1,49,"U 51","","",FALSE,"OE","q",750,"oe","U","1","o","o",TRUE,1
"CVOE_B",90,1,1,50,"A 10","","",TRUE,"OE","p",868,"oe","A","0","e","e",TRUE,1
"CVOE_B",90,1,1,51,"E 50","","",TRUE,"OE","p",1668,"oe","E","0","e","e",TRUE,1
"CVOE_B",90,1,1,52,"D 92","","",FALSE,"OE","p",685,"oe","D","2","e","e",TRUE,1
"CVOE_B",90,1,1,53,"E 60","","",TRUE,"OE","p",517,"oe","E","0","e","e",TRUE,1
"CVOE_B",90,1,1,54,"A 95","","",FALSE,"OE","q",851,"oe","A","5","o","o",TRUE,1
"CVOE_B",90,1,1,55,"E 64","","",TRUE,"OE","p",604,"oe","E","4","e","e",TRUE,1
"CVOE_B",90,1,1,56,"P 20","","",FALSE,"OE","p",1192,"oe","P","0","e","e",TRUE,1
"CVOE_B",90,1,1,57,"S 06","","",FALSE,"OE","p",652,"oe","S","6","e","e",TRUE,1
"CVOE_B",90,1,1,58,"P 64","","",FALSE,"OE","p",637,"oe","P","4","e","e",TRUE,1
"CVOE_B",90,1,1,59,"U 70","","",TRUE,"OE","p",615,"oe","U","0","e","e",TRUE,1
"CVOE_B",90,1,1,60,"S 16","","",FALSE,"OE","p",457,"oe","S","6","e","e",TRUE,1
"CVOE_B",90,1,1,61,"E 35","","",FALSE,"OE","q",563,"oe","E","5","o","o",TRUE,1
"CVOE_B",90,1,1,62,"I 93","","",FALSE,"OE","q",535,"oe","I","3","o","o",TRUE,1
"CVOE_B",90,1,1,63,"D 63","","",TRUE,"OE","q",517,"oe","D","3","o","o",TRUE,1
"CVOE_B",90,1,1,64,"U 89","","",FALSE,"OE","q",460,"oe","U","9","o","o",TRUE,1
"CVOE_B",90,1,1,65,"E 91","","",FALSE,"OE","q",524,"oe","E","1","o","o",TRUE,1
"CVOE_B",90,1,1,66,"A 12","","",TRUE,"OE","p",507,"oe","A","2","e","e",TRUE,1
"CVOE_B",90,1,1,67,"P 56","","",FALSE,"OE","p",474,"oe","P","6","e","e",TRUE,1
"CVOE_B",90,1,1,68,"S 65","","",TRUE,"OE","q",835,"oe","S","5","o","o",TRUE,1
"CVOE_B",90,1,1,69,"P 07","","",TRUE,"OE","q",413,"oe","P","7","o","o",TRUE,1
"CVOE_B",90,1,1,70,"I 77","","",FALSE,"OE","q",447,"oe","I","7","o","o",TRUE,1
"CVOE_B",90,1,1,71,"J 19","","",TRUE,"OE","q",457,"oe","J","9","o","o",TRUE,1
"CVOE_B",90,1,1,72,"O 59","","",FALSE,"OE","q",594,"oe","O","9","o","o",TRUE,1
"CVOE_B",90,1,1,73,"J 15","","",TRUE,"OE","q",581,"oe","J","5","o","o",TRUE,1
"CVOE_B",90,1,1,74,"I 89","","",FALSE,"OE","q",617,"oe","I","9","o","o",TRUE,1
"CVOE_B",90,1,1,75,"O 97","","",FALSE,"OE","q",884,"oe","O","7","o","o",TRUE,1
"CVOE_B",90,1,1,76,"A 92","","",TRUE,"OE","p",899,"oe","A","2","e","e",TRUE,1
"CVOE_B",90,1,1,77,"J 90","","",FALSE,"OE","p",603,"oe","J","0","e","e",TRUE,1
"CVOE_B",90,1,1,78,"H 65","","",TRUE,"OE","q",494,"oe","H","5","o","o",TRUE,1
"CVOE_B",90,1,1,79,"H 17","","",TRUE,"OE","q",485,"oe","H","7","o","o",TRUE,1
"CVOE_B",90,1,1,80,"S 26","","",FALSE,"OE","p",501,"oe","S","6","e","e",TRUE,1
"CVOE_B",90,1,1,81,"D 56","","",FALSE,"OE","p",540,"oe","D","6","e","e",TRUE,1
"CVOE_B",90,1,1,82,"I 91","","",FALSE,"OE","q",426,"oe","I","1","o","o",TRUE,1
"CVOE_B",90,1,1,83,"J 11","","",TRUE,"OE","q",452,"oe","J","1","o","o",TRUE,1
"CVOE_B",90,1,1,84,"O 28","","",TRUE,"OE","p",462,"oe","O","8","e","e",TRUE,1
"CVOE_B",90,1,1,85,"H 29","","",TRUE,"OE","q",518,"oe","H","9","o","o",TRUE,1
"CVOE_B",90,1,1,86,"J 25","","",TRUE,"OE","q",1110,"oe","J","5","o","o",TRUE,1
"CVOE_B",90,1,1,87,"A 73","","",FALSE,"OE","q",875,"oe","A","3","o","o",TRUE,1
"CVOE_B",90,1,1,88,"J 63","","",TRUE,"OE","q",467,"oe","J","3","o","o",TRUE,1
"CVOE_B",90,1,1,89,"U 84","","",TRUE,"OE","p",516,"oe","U","4","e","e",TRUE,1
"CVOE_B",90,1,1,90,"A 58","","",TRUE,"OE","p",475,"oe","A","8","e","e",TRUE,1
"CVOE_B",90,1,1,91,"S 43","","",TRUE,"OE","q",531,"oe","S","3","o","o",TRUE,1
"CVOE_B",90,1,1,92,"H 54","","",FALSE,"OE","q",513,"oe","H","4","e","o",FALSE,0
"CVOE_B",90,1,1,93,"D 4","","",FALSE,"OE","p",824,"oe","D","","o","e",FALSE,0
"CVOE_B",90,1,1,94,"J 75","","",TRUE,"OE","q",626,"oe","J","5","o","o",TRUE,1
"CVOE_B",90,1,1,95,"D 19","","",TRUE,"OE","q",444,"oe","D","9","o","o",TRUE,1
"CVOE_B",90,1,1,96,"J 38","","",FALSE,"OE","p",637,"oe","J","8","e","e",TRUE,1
"CVOE_B",90,1,1,97,"I 56","","",TRUE,"OE","p",519,"oe","I","6","e","e",TRUE,1
"CVOE_B",90,1,1,98,"P 87","","",TRUE,"OE","q",566,"oe","P","7","o","o",TRUE,1
"CVOE_B",90,1,1,99,"O 80","","",TRUE,"OE","p",618,"oe","O","0","e","e",TRUE,1
"CVOE_B",90,1,1,100,"U 60","","",TRUE,"OE","p",421,"oe","U","0","e","e",TRUE,1
"CVOE_B",90,1,1,101,"P 48","","",FALSE,"OE","p",624,"oe","P","8","e","e",TRUE,1
"CVOE_B",90,1,1,102,"H 64","","",FALSE,"OE","p",626,"oe","H","4","e","e",TRUE,1
"CVOE_B",90,1,1,103,"A 13","","",FALSE,"OE","q",652,"oe","A","3","o","o",TRUE,1
"CVOE_B",90,1,1,104,"H 68","","",FALSE,"OE","p",646,"oe","H","8","e","e",TRUE,1
"CVOE_B",90,1,1,105,"E 16","","",TRUE,"OE","p",591,"oe","E","6","e","e",TRUE,1
"CVOE_B",90,1,1,106,"S 71","","",TRUE,"OE","q",675,"oe","S","1","o","o",TRUE,1
"CVOE_C",91,1,1,11,"A 24","","",TRUE,"OE","p",1272,"oe","A","4","e","e",TRUE,1
"CVOE_C",91,1,1,12,"O 83","","",FALSE,"OE","q",541,"oe","O","3","o","o",TRUE,1
"CVOE_C",91,1,1,13,"H 55","","",TRUE,"OE","q",505,"oe","H","5","o","o",TRUE,1
"CVOE_C",91,1,1,14,"P 10","","",FALSE,"OE","p",540,"oe","P","0","e","e",TRUE,1
"CVOE_C",91,1,1,15,"D 30","","",FALSE,"OE","p",525,"oe","D","0","e","e",TRUE,1
"CVOE_C",91,1,1,16,"U 62","","",TRUE,"OE","p",530,"oe","U","2","e","e",TRUE,1
"CVOE_C",91,1,1,17,"P 95","","",TRUE,"OE","q",484,"oe","P","5","o","o",TRUE,1
"CVOE_C",91,1,1,18,"U 06","","",TRUE,"OE","p",554,"oe","U","6","e","e",TRUE,1
"CVOE_C",91,1,1,19,"E 75","","",FALSE,"OE","q",511,"oe","E","5","o","o",TRUE,1
"CVOE_C",91,1,1,20,"I 67","","",FALSE,"OE","q",541,"oe","I","7","o","o",TRUE,1
"CVOE_C",91,1,1,21,"S 13","","",TRUE,"OE","q",513,"oe","S","3","o","o",TRUE,1
"CVOE_C",91,1,1,22,"P 78","","",FALSE,"OE","p",519,"oe","P","8","e","e",TRUE,1
"CVOE_C",91,1,1,23,"I 15","","",FALSE,"OE","q",547,"oe","I","5","o","o",TRUE,1
"CVOE_C",91,1,1,24,"D 27","","",TRUE,"OE","q",688,"oe","D","7","o","o",TRUE,1
"CVOE_C",91,1,1,25,"O 94","","",TRUE,"OE","p",783,"oe","O","4","e","e",TRUE,1
"CVOE_C",91,1,1,26,"A 65","","",FALSE,"OE","q",571,"oe","A","5","o","o",TRUE,1
"CVOE_C",91,1,1,27,"I 42","","",TRUE,"OE","p",703,"oe","I","2","e","e",TRUE,1
"CVOE_C",91,1,1,28,"E 25","","",FALSE,"OE","q",635,"oe","E","5","o","o",TRUE,1
"CVOE_C",91,1,1,29,"H 49","","",TRUE,"OE","q",505,"oe","H","9","o","o",TRUE,1
"CVOE_C",91,1,1,30,"S 18","","",FALSE,"OE","p",597,"oe","S","8","e","e",TRUE,1
"CVOE_C",91,1,1,31,"H 51","","",TRUE,"OE","q",718,"oe","H","1","o","o",TRUE,1
"CVOE_C",91,1,1,32,"U 14","","",TRUE,"OE","p",683,"oe","U","4","e","e",TRUE,1
"CVOE_C",91,1,1,33,"E 02","","",TRUE,"OE","p",628,"oe","E","2","e","e",TRUE,1
"CVOE_C",91,1,1,34,"J 26","","",FALSE,"OE","p",537,"oe","J","6","e","e",TRUE,1
"CVOE_C",91,1,1,35,"D 24","","",FALSE,"OE","p",612,"oe","D","4","e","e",TRUE,1
"CVOE_C",91,1,1,36,"O 50","","",TRUE,"OE","p",647,"oe","O","0","e","e",TRUE,1
"CVOE_C",91,1,1,37,"U 16","","",TRUE,"OE","p",572,"oe","U","6","e","e",TRUE,1
"CVOE_C",91,1,1,38,"O 15","","",FALSE,"OE","q",479,"oe","O","5","o","o",TRUE,1
"CVOE_C",91,1,1,39,"D 32","","",FALSE,"OE","p",593,"oe","D","2","e","e",TRUE,1
"CVOE_C",91,1,1,40,"S 67","","",TRUE,"OE","q",640,"oe","S","7","o","o",TRUE,1
"CVOE_C",91,1,1,41,"J 74","","",FALSE,"OE","p",633,"oe","J","4","e","e",TRUE,1
"CVOE_C",91,1,1,42,"D 92","","",FALSE,"OE","p",593,"oe","D","2","e","e",TRUE,1
"CVOE_C",91,1,1,43,"A 65","","",FALSE,"OE","q",681,"oe","A","5","o","o",TRUE,1
"CVOE_C",91,1,1,44,"I 87","","",FALSE,"OE","q",1184,"oe","I","7","o","o",TRUE,1
"CVOE_C",91,1,1,45,"H 61","","",TRUE,"OE","q",615,"oe","H","1","o","o",TRUE,1
"CVOE_C",91,1,1,46,"E 59","","",FALSE,"OE","q",631,"oe","E","9","o","o",TRUE,1
"CVOE_C",91,1,1,47,"I 33","","",FALSE,"OE","q",486,"oe","I","3","o","o",TRUE,1
"CVOE_C",91,1,1,48,"O 90","","",TRUE,"OE","p",593,"oe","O","0","e","e",TRUE,1
"CVOE_C",91,1,1,49,"U 51","","",FALSE,"OE","q",540,"oe","U","1","o","o",TRUE,1
"CVOE_C",91,1,1,50,"A 10","","",TRUE,"OE","p",531,"oe","A","0","e","e",TRUE,1
"CVOE_C",91,1,1,51,"E 50","","",TRUE,"OE","p",611,"oe","E","0","e","e",TRUE,1
"CVOE_C",91,1,1,52,"D 92","","",FALSE,"OE","p",565,"oe","D","2","e","e",TRUE,1
"CVOE_C",91,1,1,53,"E 60","","",TRUE,"OE","p",538,"oe","E","0","e","e",TRUE,1
"CVOE_C",91,1,1,54,"A 95","","",FALSE,"OE","q",662,"oe","A","5","o","o",TRUE,1
"CVOE_C",91,1,1,55,"E 64","","",TRUE,"OE","p",591,"oe","E","4","e","e",TRUE,1
"CVOE_C",91,1,1,56,"P 20","","",FALSE,"OE","p",473,"oe","P","0","e","e",TRUE,1
"CVOE_C",91,1,1,57,"S 06","","",FALSE,"OE","p",507,"oe","S","6","e","e",TRUE,1
"CVOE_C",91,1,1,58,"P 64","","",FALSE,"OE","p",430,"oe","P","4","e","e",TRUE,1
"CVOE_C",91,1,1,59,"U 70","","",TRUE,"OE","p",568,"oe","U","0","e","e",TRUE,1
"CVOE_C",91,1,1,60,"S 16","","",FALSE,"OE","p",391,"oe","S","6","e","e",TRUE,1
"CVOE_C",91,1,1,61,"E 35","","",FALSE,"OE","q",496,"oe","E","5","o","o",TRUE,1
"CVOE_C",91,1,1,62,"I 93","","",FALSE,"OE","q",440,"oe","I","3","o","o",TRUE,1
"CVOE_C",91,1,1,63,"D 63","","",TRUE,"OE","q",488,"oe","D","3","o","o",TRUE,1
"CVOE_C",91,1,1,64,"U 89","","",FALSE,"OE","q",466,"oe","U","9","o","o",TRUE,1
"CVOE_C",91,1,1,65,"E 91","","",FALSE,"OE","q",491,"oe","E","1","o","o",TRUE,1
"CVOE_C",91,1,1,66,"A 12","","",TRUE,"OE","p",515,"oe","A","2","e","e",TRUE,1
"CVOE_C",91,1,1,67,"P 56","","",FALSE,"OE","p",624,"oe","P","6","e","e",TRUE,1
"CVOE_C",91,1,1,68,"S 65","","",TRUE,"OE","q",487,"oe","S","5","o","o",TRUE,1
"CVOE_C",91,1,1,69,"P 07","","",TRUE,"OE","q",755,"oe","P","7","o","o",TRUE,1
"CVOE_C",91,1,1,70,"I 77","","",FALSE,"OE","q",529,"oe","I","7","o","o",TRUE,1
"CVOE_C",91,1,1,71,"J 19","","",TRUE,"OE","q",435,"oe","J","9","o","o",TRUE,1
"CVOE_C",91,1,1,72,"O 59","","",FALSE,"OE","q",381,"oe","O","9","o","o",TRUE,1
"CVOE_C",91,1,1,73,"J 15","","",TRUE,"OE","q",429,"oe","J","5","o","o",TRUE,1
"CVOE_C",91,1,1,74,"I 89","","",FALSE,"OE","q",502,"oe","I","9","o","o",TRUE,1
"CVOE_C",91,1,1,75,"O 97","","",FALSE,"OE","q",428,"oe","O","7","o","o",TRUE,1
"CVOE_C",91,1,1,76,"A 92","","",TRUE,"OE","p",561,"oe","A","2","e","e",TRUE,1
"CVOE_C",91,1,1,77,"J 90","","",FALSE,"OE","p",462,"oe","J","0","e","e",TRUE,1
"CVOE_C",91,1,1,78,"H 65","","",TRUE,"OE","q",458,"oe","H","5","o","o",TRUE,1
"CVOE_C",91,1,1,79,"H 17","","",TRUE,"OE","q",412,"oe","H","7","o","o",TRUE,1
"CVOE_C",91,1,1,80,"S 26","","",FALSE,"OE","p",474,"oe","S","6","e","e",TRUE,1
"CVOE_C",91,1,1,81,"D 56","","",FALSE,"OE","p",565,"oe","D","6","e","e",TRUE,1
"CVOE_C",91,1,1,82,"I 91","","",FALSE,"OE","q",539,"oe","I","1","o","o",TRUE,1
"CVOE_C",91,1,1,83,"J 11","","",TRUE,"OE","q",621,"oe","J","1","o","o",TRUE,1
"CVOE_C",91,1,1,84,"O 28","","",TRUE,"OE","q",327,"oe","O","8","e","o",FALSE,0
"CVOE_C",91,1,1,85,"H 29","","",TRUE,"OE","q",653,"oe","H","9","o","o",TRUE,1
"CVOE_C",91,1,1,86,"J 25","","",TRUE,"OE","q",743,"oe","J","5","o","o",TRUE,1
"CVOE_C",91,1,1,87,"A 73","","",FALSE,"OE","q",522,"oe","A","3","o","o",TRUE,1
"CVOE_C",91,1,1,88,"J 63","","",TRUE,"OE","q",553,"oe","J","3","o","o",TRUE,1
"CVOE_C",91,1,1,89,"U 84","","",TRUE,"OE","p",460,"oe","U","4","e","e",TRUE,1
"CVOE_C",91,1,1,90,"A 58","","",TRUE,"OE","p",547,"oe","A","8","e","e",TRUE,1
"CVOE_C",91,1,1,91,"S 43","","",TRUE,"OE","q",1050,"oe","S","3","o","o",TRUE,1
"CVOE_C",91,1,1,92,"H 54","","",FALSE,"OE","p",493,"oe","H","4","e","e",TRUE,1
"CVOE_C",91,1,1,93,"D 4","","",FALSE,"OE","p",624,"oe","D","","o","e",FALSE,0
"CVOE_C",91,1,1,94,"J 75","","",TRUE,"OE","q",809,"oe","J","5","o","o",TRUE,1
"CVOE_C",91,1,1,95,"D 19","","",TRUE,"OE","q",1059,"oe","D","9","o","o",TRUE,1
"CVOE_C",91,1,1,96,"J 38","","",FALSE,"OE","p",582,"oe","J","8","e","e",TRUE,1
"CVOE_C",91,1,1,97,"I 56","","",TRUE,"OE","p",600,"oe","I","6","e","e",TRUE,1
"CVOE_C",91,1,1,98,"P 87","","",TRUE,"OE","q",644,"oe","P","7","o","o",TRUE,1
"CVOE_C",91,1,1,99,"O 80","","",TRUE,"OE","p",968,"oe","O","0","e","e",TRUE,1
"CVOE_C",91,1,1,100,"U 60","","",TRUE,"OE","p",514,"oe","U","0","e","e",TRUE,1
"CVOE_C",91,1,1,101,"P 48","","",FALSE,"OE","p",822,"oe","P","8","e","e",TRUE,1
"CVOE_C",91,1,1,102,"H 64","","",FALSE,"OE","p",573,"oe","H","4","e","e",TRUE,1
"CVOE_C",91,1,1,103,"A 13","","",FALSE,"OE","q",488,"oe","A","3","o","o",TRUE,1
"CVOE_C",91,1,1,104,"H 68","","",FALSE,"OE","p",709,"oe","H","8","e","e",TRUE,1
"CVOE_C",91,1,1,105,"E 16","","",TRUE,"OE","p",709,"oe","E","6","e","e",TRUE,1
"CVOE_C",91,1,1,106,"S 71","","",TRUE,"OE","q",471,"oe","S","1","o","o",TRUE,1
"CVOE_D",88,1,2,11,"A 24","","",TRUE,"OE","p",1136,"oe","A","4","e","e",TRUE,1
"CVOE_D",88,1,2,12,"O 83","","",FALSE,"OE","q",806,"oe","O","3","o","o",TRUE,1
"CVOE_D",88,1,2,13,"H 55","","",TRUE,"OE","q",658,"oe","H","5","o","o",TRUE,1
"CVOE_D",88,1,2,14,"P 10","","",FALSE,"OE","p",1195,"oe","P","0","e","e",TRUE,1
"CVOE_D",88,1,2,15,"D 30","","",FALSE,"OE","p",542,"oe","D","0","e","e",TRUE,1
"CVOE_D",88,1,2,16,"U 62","","",TRUE,"OE","p",556,"oe","U","2","e","e",TRUE,1
"CVOE_D",88,1,2,17,"P 95","","",TRUE,"OE","q",513,"oe","P","5","o","o",TRUE,1
"CVOE_D",88,1,2,18,"U 06","","",TRUE,"OE","p",840,"oe","U","6","e","e",TRUE,1
"CVOE_D",88,1,2,19,"E 75","","",FALSE,"OE","q",634,"oe","E","5","o","o",TRUE,1
"CVOE_D",88,1,2,20,"I 67","","",FALSE,"OE","q",1604,"oe","I","7","o","o",TRUE,1
"CVOE_D",88,1,2,21,"S 13","","",TRUE,"OE","q",703,"oe","S","3","o","o",TRUE,1
"CVOE_D",88,1,2,22,"P 78","","",FALSE,"OE","p",750,"oe","P","8","e","e",TRUE,1
"CVOE_D",88,1,2,23,"I 15","","",FALSE,"OE","q",611,"oe","I","5","o","o",TRUE,1
"CVOE_D",88,1,2,24,"D 27","","",TRUE,"OE","q",582,"oe","D","7","o","o",TRUE,1
"CVOE_D",88,1,2,25,"O 94","","",TRUE,"OE","p",930,"oe","O","4","e","e",TRUE,1
"CVOE_D",88,1,2,26,"A 65","","",FALSE,"OE","q",1400,"oe","A","5","o","o",TRUE,1
"CVOE_D",88,1,2,27,"I 42","","",TRUE,"OE","p",587,"oe","I","2","e","e",TRUE,1
"CVOE_D",88,1,2,28,"E 25","","",FALSE,"OE","q",703,"oe","E","5","o","o",TRUE,1
"CVOE_D",88,1,2,29,"H 49","","",TRUE,"OE","q",982,"oe","H","9","o","o",TRUE,1
"CVOE_D",88,1,2,30,"S 18","","",FALSE,"OE","p",802,"oe","S","8","e","e",TRUE,1
"CVOE_D",88,1,2,31,"H 51","","",TRUE,"OE","q",1037,"oe","H","1","o","o",TRUE,1
"CVOE_D",88,1,2,32,"U 14","","",TRUE,"OE","p",983,"oe","U","4","e","e",TRUE,1
"CVOE_D",88,1,2,33,"E 02","","",TRUE,"OE","p",611,"oe","E","2","e","e",TRUE,1
"CVOE_D",88,1,2,34,"J 26","","",FALSE,"OE","p",678,"oe","J","6","e","e",TRUE,1
"CVOE_D",88,1,2,35,"D 24","","",FALSE,"OE","p",470,"oe","D","4","e","e",TRUE,1
"CVOE_D",88,1,2,36,"O 50","","",TRUE,"OE","p",878,"oe","O","0","e","e",TRUE,1
"CVOE_D",88,1,2,37,"U 16","","",TRUE,"OE","p",814,"oe","U","6","e","e",TRUE,1
"CVOE_D",88,1,2,38,"O 15","","",FALSE,"OE","q",697,"oe","O","5","o","o",TRUE,1
"CVOE_D",88,1,2,39,"D 32","","",FALSE,"OE","p",528,"oe","D","2","e","e",TRUE,1
"CVOE_D",88,1,2,40,"S 67","","",TRUE,"OE","q",838,"oe","S","7","o","o",TRUE,1
"CVOE_D",88,1,2,41,"J 74","","",FALSE,"OE","p",640,"oe","J","4","e","e",TRUE,1
"CVOE_D",88,1,2,42,"D 92","","",FALSE,"OE","p",666,"oe","D","2","e","e",TRUE,1
"CVOE_D",88,1,2,43,"A 65","","",FALSE,"OE","q",746,"oe","A","5","o","o",TRUE,1
"CVOE_D",88,1,2,44,"I 87","","",FALSE,"OE","p",752,"oe","I","7","o","e",FALSE,0
"CVOE_D",88,1,2,45,"H 61","","",TRUE,"OE","q",813,"oe","H","1","o","o",TRUE,1
"CVOE_D",88,1,2,46,"E 59","","",FALSE,"OE","q",2727,"oe","E","9","o","o",TRUE,1
"CVOE_D",88,1,2,47,"I 33","","",FALSE,"OE","q",821,"oe","I","3","o","o",TRUE,1
"CVOE_D",88,1,2,48,"O 90","","",TRUE,"OE","p",808,"oe","O","0","e","e",TRUE,1
"CVOE_D",88,1,2,49,"U 51","","",FALSE,"OE","q",1083,"oe","U","1","o","o",TRUE,1
"CVOE_D",88,1,2,50,"A 10","","",TRUE,"OE","p",787,"oe","A","0","e","e",TRUE,1
"CVOE_D",88,1,2,51,"E 50","","",TRUE,"OE","p",647,"oe","E","0","e","e",TRUE,1
"CVOE_D",88,1,2,52,"D 92","","",FALSE,"OE","p",776,"oe","D","2","e","e",TRUE,1
"CVOE_D",88,1,2,53,"E 60","","",TRUE,"OE","p",620,"oe","E","0","e","e",TRUE,1
"CVOE_D",88,1,2,54,"A 95","","",FALSE,"OE","q",998,"oe","A","5","o","o",TRUE,1
"CVOE_D",88,1,2,55,"E 64","","",TRUE,"OE","p",594,"oe","E","4","e","e",TRUE,1
"CVOE_D",88,1,2,56,"P 20","","",FALSE,"OE","q",653,"oe","P","0","e","o",FALSE,0
"CVOE_D",88,1,2,57,"S 06","","",FALSE,"OE","p",3150,"oe","S","6","e","e",TRUE,1
"CVOE_D",88,1,2,58,"P 64","","",FALSE,"OE","p",803,"oe","P","4","e","e",TRUE,1
"CVOE_D",88,1,2,59,"U 70","","",TRUE,"OE","p",711,"oe","U","0","e","e",TRUE,1
"CVOE_D",88,1,2,60,"S 16","","",FALSE,"OE","p",653,"oe","S","6","e","e",TRUE,1
"CVOE_D",88,1,2,61,"E 35","","",FALSE,"OE","q",710,"oe","E","5","o","o",TRUE,1
"CVOE_D",88,1,2,62,"I 93","","",FALSE,"OE","q",853,"oe","I","3","o","o",TRUE,1
"CVOE_D",88,1,2,63,"D 63","","",TRUE,"OE","q",622,"oe","D","3","o","o",TRUE,1
"CVOE_D",88,1,2,64,"U 89","","",FALSE,"OE","q",833,"oe","U","9","o","o",TRUE,1
"CVOE_D",88,1,2,65,"E 91","","",FALSE,"OE","q",827,"oe","E","1","o","o",TRUE,1
"CVOE_D",88,1,2,66,"A 12","","",TRUE,"OE","p",589,"oe","A","2","e","e",TRUE,1
"CVOE_D",88,1,2,67,"P 56","","",FALSE,"OE","p",625,"oe","P","6","e","e",TRUE,1
"CVOE_D",88,1,2,68,"S 65","","",TRUE,"OE","q",635,"oe","S","5","o","o",TRUE,1
"CVOE_D",88,1,2,69,"P 07","","",TRUE,"OE","p",493,"oe","P","7","o","e",FALSE,0
"CVOE_D",88,1,2,70,"I 77","","",FALSE,"OE","q",956,"oe","I","7","o","o",TRUE,1
"CVOE_D",88,1,2,71,"J 19","","",TRUE,"OE","q",626,"oe","J","9","o","o",TRUE,1
"CVOE_D",88,1,2,72,"O 59","","",FALSE,"OE","q",612,"oe","O","9","o","o",TRUE,1
"CVOE_D",88,1,2,73,"J 15","","",TRUE,"OE","q",1071,"oe","J","5","o","o",TRUE,1
"CVOE_D",88,1,2,74,"I 89","","",FALSE,"OE","q",695,"oe","I","9","o","o",TRUE,1
"CVOE_D",88,1,2,75,"O 97","","",FALSE,"OE","q",614,"oe","O","7","o","o",TRUE,1
"CVOE_D",88,1,2,76,"A 92","","",TRUE,"OE","p",625,"oe","A","2","e","e",TRUE,1
"CVOE_D",88,1,2,77,"J 90","","",FALSE,"OE","p",636,"oe","J","0","e","e",TRUE,1
"CVOE_D",88,1,2,78,"H 65","","",TRUE,"OE","q",726,"oe","H","5","o","o",TRUE,1
"CVOE_D",88,1,2,79,"H 17","","",TRUE,"OE","q",804,"oe","H","7","o","o",TRUE,1
"CVOE_D",88,1,2,80,"S 26","","",FALSE,"OE","p",759,"oe","S","6","e","e",TRUE,1
"CVOE_D",88,1,2,81,"D 56","","",FALSE,"OE","p",836,"oe","D","6","e","e",TRUE,1
"CVOE_D",88,1,2,82,"I 91","","",FALSE,"OE","q",718,"oe","I","1","o","o",TRUE,1
"CVOE_D",88,1,2,83,"J 11","","",TRUE,"OE","q",700,"oe","J","1","o","o",TRUE,1
"CVOE_D",88,1,2,84,"O 28","","",TRUE,"OE","p",716,"oe","O","8","e","e",TRUE,1
"CVOE_D",88,1,2,85,"H 29","","",TRUE,"OE","q",754,"oe","H","9","o","o",TRUE,1
"CVOE_D",88,1,2,86,"J 25","","",TRUE,"OE","q",1200,"oe","J","5","o","o",TRUE,1
"CVOE_D",88,1,2,87,"A 73","","",FALSE,"OE","q",899,"oe","A","3","o","o",TRUE,1
"CVOE_D",88,1,2,88,"J 63","","",TRUE,"OE","q",698,"oe","J","3","o","o",TRUE,1
"CVOE_D",88,1,2,89,"U 84","","",TRUE,"OE","p",1313,"oe","U","4","e","e",TRUE,1
"CVOE_D",88,1,2,90,"A 58","","",TRUE,"OE","p",696,"oe","A","8","e","e",TRUE,1
"CVOE_D",88,1,2,91,"S 43","","",TRUE,"OE","q",1623,"oe","S","3","o","o",TRUE,1
"CVOE_D",88,1,2,92,"H 54","","",FALSE,"OE","p",834,"oe","H","4","e","e",TRUE,1
"CVOE_D",88,1,2,93,"D 4","","",FALSE,"OE","p",851,"oe","D","","o","e",FALSE,0
"CVOE_D",88,1,2,94,"J 75","","",TRUE,"OE","q",845,"oe","J","5","o","o",TRUE,1
"CVOE_D",88,1,2,95,"D 19","","",TRUE,"OE","q",758,"oe","D","9","o","o",TRUE,1
"CVOE_D",88,1,2,96,"J 38","","",FALSE,"OE","p",1603,"oe","J","8","e","e",TRUE,1
"CVOE_D",88,1,2,97,"I 56","","",TRUE,"OE","p",646,"oe","I","6","e","e",TRUE,1
"CVOE_D",88,1,2,98,"P 87","","",TRUE,"OE","q",664,"oe","P","7","o","o",TRUE,1
"CVOE_D",88,1,2,99,"O 80","","",TRUE,"OE","p",656,"oe","O","0","e","e",TRUE,1
"CVOE_D",88,1,2,100,"U 60","","",TRUE,"OE","p",489,"oe","U","0","e","e",TRUE,1
"CVOE_D",88,1,2,101,"P 48","","",FALSE,"OE","p",545,"oe","P","8","e","e",TRUE,1
"CVOE_D",88,1,2,102,"H 64","","",FALSE,"OE","p",607,"oe","H","4","e","e",TRUE,1
"CVOE_D",88,1,2,103,"A 13","","",FALSE,"OE","q",914,"oe","A","3","o","o",TRUE,1
"CVOE_D",88,1,2,104,"H 68","","",FALSE,"OE","p",488,"oe","H","8","e","e",TRUE,1
"CVOE_D",88,1,2,105,"E 16","","",TRUE,"OE","p",456,"oe","E","6","e","e",TRUE,1
"CVOE_D",88,1,2,106,"S 71","","",TRUE,"OE","q",682,"oe","S","1","o","o",TRUE,1
"CVOE_D",92,1,2,11,"A 24","","",TRUE,"OE","p",749,"oe","A","4","e","e",TRUE,1
"CVOE_D",92,1,2,12,"O 83","","",FALSE,"OE","q",458,"oe","O","3","o","o",TRUE,1
"CVOE_D",92,1,2,13,"H 55","","",TRUE,"OE","q",387,"oe","H","5","o","o",TRUE,1
"CVOE_D",92,1,2,14,"P 10","","",FALSE,"OE","q",551,"oe","P","0","e","o",FALSE,0
"CVOE_D",92,1,2,15,"D 30","","",FALSE,"OE","p",549,"oe","D","0","e","e",TRUE,1
"CVOE_D",92,1,2,16,"U 62","","",TRUE,"OE","p",490,"oe","U","2","e","e",TRUE,1
"CVOE_D",92,1,2,17,"P 95","","",TRUE,"OE","q",434,"oe","P","5","o","o",TRUE,1
"CVOE_D",92,1,2,18,"U 06","","",TRUE,"OE","p",484,"oe","U","6","e","e",TRUE,1
"CVOE_D",92,1,2,19,"E 75","","",FALSE,"OE","q",404,"oe","E","5","o","o",TRUE,1
"CVOE_D",92,1,2,20,"I 67","","",FALSE,"OE","q",599,"oe","I","7","o","o",TRUE,1
"CVOE_D",92,1,2,21,"S 13","","",TRUE,"OE","q",442,"oe","S","3","o","o",TRUE,1
"CVOE_D",92,1,2,22,"P 78","","",FALSE,"OE","p",468,"oe","P","8","e","e",TRUE,1
"CVOE_D",92,1,2,23,"I 15","","",FALSE,"OE","q",429,"oe","I","5","o","o",TRUE,1
"CVOE_D",92,1,2,24,"D 27","","",TRUE,"OE","q",471,"oe","D","7","o","o",TRUE,1
"CVOE_D",92,1,2,25,"O 94","","",TRUE,"OE","p",519,"oe","O","4","e","e",TRUE,1
"CVOE_D",92,1,2,26,"A 65","","",FALSE,"OE","q",654,"oe","A","5","o","o",TRUE,1
"CVOE_D",92,1,2,27,"I 42","","",TRUE,"OE","p",831,"oe","I","2","e","e",TRUE,1
"CVOE_D",92,1,2,28,"E 25","","",FALSE,"OE","q",521,"oe","E","5","o","o",TRUE,1
"CVOE_D",92,1,2,29,"H 49","","",TRUE,"OE","q",592,"oe","H","9","o","o",TRUE,1
"CVOE_D",92,1,2,30,"S 18","","",FALSE,"OE","p",516,"oe","S","8","e","e",TRUE,1
"CVOE_D",92,1,2,31,"H 51","","",TRUE,"OE","q",450,"oe","H","1","o","o",TRUE,1
"CVOE_D",92,1,2,32,"U 14","","",TRUE,"OE","p",539,"oe","U","4","e","e",TRUE,1
"CVOE_D",92,1,2,33,"E 02","","",TRUE,"OE","p",489,"oe","E","2","e","e",TRUE,1
"CVOE_D",92,1,2,34,"J 26","","",FALSE,"OE","p",457,"oe","J","6","e","e",TRUE,1
"CVOE_D",92,1,2,35,"D 24","","",FALSE,"OE","p",451,"oe","D","4","e","e",TRUE,1
"CVOE_D",92,1,2,36,"O 50","","",TRUE,"OE","q",492,"oe","O","0","e","o",FALSE,0
"CVOE_D",92,1,2,37,"U 16","","",TRUE,"OE","p",988,"oe","U","6","e","e",TRUE,1
"CVOE_D",92,1,2,38,"O 15","","",FALSE,"OE","q",472,"oe","O","5","o","o",TRUE,1
"CVOE_D",92,1,2,39,"D 32","","",FALSE,"OE","p",544,"oe","D","2","e","e",TRUE,1
"CVOE_D",92,1,2,40,"S 67","","",TRUE,"OE","q",470,"oe","S","7","o","o",TRUE,1
"CVOE_D",92,1,2,41,"J 74","","",FALSE,"OE","p",534,"oe","J","4","e","e",TRUE,1
"CVOE_D",92,1,2,42,"D 92","","",FALSE,"OE","p",476,"oe","D","2","e","e",TRUE,1
"CVOE_D",92,1,2,43,"A 65","","",FALSE,"OE","q",396,"oe","A","5","o","o",TRUE,1
"CVOE_D",92,1,2,44,"I 87","","",FALSE,"OE","q",495,"oe","I","7","o","o",TRUE,1
"CVOE_D",92,1,2,45,"H 61","","",TRUE,"OE","q",919,"oe","H","1","o","o",TRUE,1
"CVOE_D",92,1,2,46,"E 59","","",FALSE,"OE","q",565,"oe","E","9","o","o",TRUE,1
"CVOE_D",92,1,2,47,"I 33","","",FALSE,"OE","q",434,"oe","I","3","o","o",TRUE,1
"CVOE_D",92,1,2,48,"O 90","","",TRUE,"OE","p",548,"oe","O","0","e","e",TRUE,1
"CVOE_D",92,1,2,49,"U 51","","",FALSE,"OE","q",457,"oe","U","1","o","o",TRUE,1
"CVOE_D",92,1,2,50,"A 10","","",TRUE,"OE","p",402,"oe","A","0","e","e",TRUE,1
"CVOE_D",92,1,2,51,"E 50","","",TRUE,"OE","p",437,"oe","E","0","e","e",TRUE,1
"CVOE_D",92,1,2,52,"D 92","","",FALSE,"OE","p",415,"oe","D","2","e","e",TRUE,1
"CVOE_D",92,1,2,53,"E 60","","",TRUE,"OE","p",442,"oe","E","0","e","e",TRUE,1
"CVOE_D",92,1,2,54,"A 95","","",FALSE,"OE","q",412,"oe","A","5","o","o",TRUE,1
"CVOE_D",92,1,2,55,"E 64","","",TRUE,"OE","p",615,"oe","E","4","e","e",TRUE,1
"CVOE_D",92,1,2,56,"P 20","","",FALSE,"OE","q",465,"oe","P","0","e","o",FALSE,0
"CVOE_D",92,1,2,57,"S 06","","",FALSE,"OE","p",578,"oe","S","6","e","e",TRUE,1
"CVOE_D",92,1,2,58,"P 64","","",FALSE,"OE","p",398,"oe","P","4","e","e",TRUE,1
"CVOE_D",92,1,2,59,"U 70","","",TRUE,"OE","p",497,"oe","U","0","e","e",TRUE,1
"CVOE_D",92,1,2,60,"S 16","","",FALSE,"OE","p",496,"oe","S","6","e","e",TRUE,1
"CVOE_D",92,1,2,61,"E 35","","",FALSE,"OE","q",455,"oe","E","5","o","o",TRUE,1
"CVOE_D",92,1,2,62,"I 93","","",FALSE,"OE","q",481,"oe","I","3","o","o",TRUE,1
"CVOE_D",92,1,2,63,"D 63","","",TRUE,"OE","q",425,"oe","D","3","o","o",TRUE,1
"CVOE_D",92,1,2,64,"U 89","","",FALSE,"OE","q",531,"oe","U","9","o","o",TRUE,1
"CVOE_D",92,1,2,65,"E 91","","",FALSE,"OE","q",449,"oe","E","1","o","o",TRUE,1
"CVOE_D",92,1,2,66,"A 12","","",TRUE,"OE","p",410,"oe","A","2","e","e",TRUE,1
"CVOE_D",92,1,2,67,"P 56","","",FALSE,"OE","p",461,"oe","P","6","e","e",TRUE,1
"CVOE_D",92,1,2,68,"S 65","","",TRUE,"OE","q",526,"oe","S","5","o","o",TRUE,1
"CVOE_D",92,1,2,69,"P 07","","",TRUE,"OE","q",580,"oe","P","7","o","o",TRUE,1
"CVOE_D",92,1,2,70,"I 77","","",FALSE,"OE","q",424,"oe","I","7","o","o",TRUE,1
"CVOE_D",92,1,2,71,"J 19","","",TRUE,"OE","q",338,"oe","J","9","o","o",TRUE,1
"CVOE_D",92,1,2,72,"O 59","","",FALSE,"OE","q",488,"oe","O","9","o","o",TRUE,1
"CVOE_D",92,1,2,73,"J 15","","",TRUE,"OE","q",456,"oe","J","5","o","o",TRUE,1
"CVOE_D",92,1,2,74,"I 89","","",FALSE,"OE","q",489,"oe","I","9","o","o",TRUE,1
"CVOE_D",92,1,2,75,"O 97","","",FALSE,"OE","q",377,"oe","O","7","o","o",TRUE,1
"CVOE_D",92,1,2,76,"A 92","","",TRUE,"OE","p",557,"oe","A","2","e","e",TRUE,1
"CVOE_D",92,1,2,77,"J 90","","",FALSE,"OE","p",570,"oe","J","0","e","e",TRUE,1
"CVOE_D",92,1,2,78,"H 65","","",TRUE,"OE","q",487,"oe","H","5","o","o",TRUE,1
"CVOE_D",92,1,2,79,"H 17","","",TRUE,"OE","q",847,"oe","H","7","o","o",TRUE,1
"CVOE_D",92,1,2,80,"S 26","","",FALSE,"OE","p",1016,"oe","S","6","e","e",TRUE,1
"CVOE_D",92,1,2,81,"D 56","","",FALSE,"OE","p",483,"oe","D","6","e","e",TRUE,1
"CVOE_D",92,1,2,82,"I 91","","",FALSE,"OE","q",475,"oe","I","1","o","o",TRUE,1
"CVOE_D",92,1,2,83,"J 11","","",TRUE,"OE","q",443,"oe","J","1","o","o",TRUE,1
"CVOE_D",92,1,2,84,"O 28","","",TRUE,"OE","p",500,"oe","O","8","e","e",TRUE,1
"CVOE_D",92,1,2,85,"H 29","","",TRUE,"OE","q",556,"oe","H","9","o","o",TRUE,1
"CVOE_D",92,1,2,86,"J 25","","",TRUE,"OE","q",529,"oe","J","5","o","o",TRUE,1
"CVOE_D",92,1,2,87,"A 73","","",FALSE,"OE","q",535,"oe","A","3","o","o",TRUE,1
"CVOE_D",92,1,2,88,"J 63","","",TRUE,"OE","q",445,"oe","J","3","o","o",TRUE,1
"CVOE_D",92,1,2,89,"U 84","","",TRUE,"OE","p",526,"oe","U","4","e","e",TRUE,1
"CVOE_D",92,1,2,90,"A 58","","",TRUE,"OE","p",492,"oe","A","8","e","e",TRUE,1
"CVOE_D",92,1,2,91,"S 43","","",TRUE,"OE","q",460,"oe","S","3","o","o",TRUE,1
"CVOE_D",92,1,2,92,"H 54","","",FALSE,"OE","p",445,"oe","H","4","e","e",TRUE,1
"CVOE_D",92,1,2,93,"D 4","","",FALSE,"OE","p",542,"oe","D","","o","e",FALSE,0
"CVOE_D",92,1,2,94,"J 75","","",TRUE,"OE","q",660,"oe","J","5","o","o",TRUE,1
"CVOE_D",92,1,2,95,"D 19","","",TRUE,"OE","q",540,"oe","D","9","o","o",TRUE,1
"CVOE_D",92,1,2,96,"J 38","","",FALSE,"OE","p",610,"oe","J","8","e","e",TRUE,1
"CVOE_D",92,1,2,97,"I 56","","",TRUE,"OE","p",717,"oe","I","6","e","e",TRUE,1
"CVOE_D",92,1,2,98,"P 87","","",TRUE,"OE","q",459,"oe","P","7","o","o",TRUE,1
"CVOE_D",92,1,2,99,"O 80","","",TRUE,"OE","p",508,"oe","O","0","e","e",TRUE,1
"CVOE_D",92,1,2,100,"U 60","","",TRUE,"OE","p",427,"oe","U","0","e","e",TRUE,1
"CVOE_D",92,1,2,101,"P 48","","",FALSE,"OE","p",517,"oe","P","8","e","e",TRUE,1
"CVOE_D",92,1,2,102,"H 64","","",FALSE,"OE","p",500,"oe","H","4","e","e",TRUE,1
"CVOE_D",92,1,2,103,"A 13","","",FALSE,"OE","q",515,"oe","A","3","o","o",TRUE,1
"CVOE_D",92,1,2,104,"H 68","","",FALSE,"OE","p",554,"oe","H","8","e","e",TRUE,1
"CVOE_D",92,1,2,105,"E 16","","",TRUE,"OE","p",511,"oe","E","6","e","e",TRUE,1
"CVOE_D",92,1,2,106,"S 71","","",TRUE,"OE","q",726,"oe","S","1","o","o",TRUE,1
"CVOE updated",89,1,3,11,"A 44","Letter","N",TRUE,"CV","p",4508,"alt","A","4","v","v",TRUE,1
"CVOE updated",89,1,3,12,"D 94","Letter","N",FALSE,"CV","q",1299,"alt","D","4","c","c",TRUE,1
"CVOE updated",89,1,3,15,"I 64","Letter","Y",TRUE,"CV","p",1304,"alt","I","4","v","v",TRUE,1
"CVOE updated",89,1,3,16,"J 54","Letter","N",FALSE,"CV","q",943,"alt","J","4","c","c",TRUE,1
"CVOE updated",89,1,3,19,"S 34","Letter","Y",FALSE,"CV","q",852,"alt","S","4","c","c",TRUE,1
"CVOE updated",89,1,3,20,"U 88","Letter","N",TRUE,"CV","p",886,"alt","U","8","v","v",TRUE,1
"CVOE updated",89,1,3,23,"E 79","Letter","Y",FALSE,"CV","p",1017,"alt","E","9","v","v",TRUE,1
"CVOE updated",89,1,3,24,"H 72","Letter","N",FALSE,"CV","q",883,"alt","H","2","c","c",TRUE,1
"CVOE updated",89,1,3,27,"O 03","Letter","Y",FALSE,"CV","p",1771,"alt","O","3","v","v",TRUE,1
"CVOE updated",89,1,3,28,"P 75","Letter","N",TRUE,"CV","q",1607,"alt","P","5","c","c",TRUE,1
"CVOE updated",89,1,3,31,"A 21","Letter","Y",FALSE,"CV","p",1119,"alt","A","1","v","v",TRUE,1
"CVOE updated",89,1,3,32,"D 18","Letter","N",FALSE,"CV","q",813,"alt","D","8","c","c",TRUE,1
"CVOE updated",89,1,3,35,"I 82","Letter","Y",TRUE,"CV","p",1027,"alt","I","2","v","v",TRUE,1
"CVOE updated",89,1,3,36,"J 78","Letter","N",FALSE,"CV","q",773,"alt","J","8","c","c",TRUE,1
"CVOE updated",89,1,3,39,"S 07","Letter","Y",TRUE,"CV","q",1705,"alt","S","7","c","c",TRUE,1
"CVOE updated",89,1,3,40,"U 36","Letter","N",TRUE,"CV","q",896,"alt","U","6","v","c",FALSE,0
"CVOE updated",89,1,3,43,"E 60","Letter","Y",TRUE,"CV","p",887,"alt","E","0","v","v",TRUE,1
"CVOE updated",89,1,3,44,"H 83","Letter","N",TRUE,"CV","q",767,"alt","H","3","c","c",TRUE,1
"CVOE updated",89,1,3,47,"O 78","Letter","Y",TRUE,"CV","p",1261,"alt","O","8","v","v",TRUE,1
"CVOE updated",89,1,3,48,"P 09","Letter","N",TRUE,"CV","q",822,"alt","P","9","c","c",TRUE,1
"CVOE updated",89,1,3,51,"A 31","Letter","Y",FALSE,"CV","p",1381,"alt","A","1","v","v",TRUE,1
"CVOE updated",89,1,3,52,"D 96","Letter","N",FALSE,"CV","q",1017,"alt","D","6","c","c",TRUE,1
"CVOE updated",89,1,3,55,"I 15","Letter","Y",FALSE,"CV","p",1206,"alt","I","5","v","v",TRUE,1
"CVOE updated",89,1,3,56,"J 07","Letter","N",TRUE,"CV","q",737,"alt","J","7","c","c",TRUE,1
"CVOE updated",89,1,3,59,"S 37","Letter","Y",TRUE,"CV","q",1242,"alt","S","7","c","c",TRUE,1
"CVOE updated",89,1,3,60,"U 61","Letter","N",FALSE,"CV","p",940,"alt","U","1","v","v",TRUE,1
"CVOE updated",89,1,3,63,"E 20","Letter","Y",TRUE,"CV","p",725,"alt","E","0","v","v",TRUE,1
"CVOE updated",89,1,3,64,"H 86","Letter","N",FALSE,"CV","q",3764,"alt","H","6","c","c",TRUE,1
"CVOE updated",89,1,3,67,"O 13","Letter","Y",FALSE,"CV","p",694,"alt","O","3","v","v",TRUE,1
"CVOE updated",89,1,3,68,"P 82","Letter","N",FALSE,"CV","q",1397,"alt","P","2","c","c",TRUE,1
"CVOE updated",89,1,3,71,"A 49","Letter","Y",FALSE,"CV","p",1047,"alt","A","9","v","v",TRUE,1
"CVOE updated",89,1,3,72,"D 91","Letter","N",TRUE,"CV","q",1624,"alt","D","1","c","c",TRUE,1
"CVOE updated",89,1,3,75,"I 45","Letter","Y",FALSE,"CV","p",1403,"alt","I","5","v","v",TRUE,1
"CVOE updated",89,1,3,76,"J 70","Letter","N",FALSE,"CV","q",1838,"alt","J","0","c","c",TRUE,1
"CVOE updated",89,1,3,79,"S 93","Letter","Y",TRUE,"CV","q",853,"alt","S","3","c","c",TRUE,1
"CVOE updated",89,1,3,80,"U 70","Letter","N",TRUE,"CV","p",1046,"alt","U","0","v","v",TRUE,1
"CVOE updated",89,1,3,83,"E 68","Letter","Y",TRUE,"CV","p",929,"alt","E","8","v","v",TRUE,1
"CVOE updated",89,1,3,84,"H 17","Letter","N",TRUE,"CV","q",855,"alt","H","7","c","c",TRUE,1
"CVOE updated",89,1,3,87,"O 32","Letter","Y",TRUE,"CV","p",1304,"alt","O","2","v","v",TRUE,1
"CVOE updated",89,1,3,88,"P 95","Letter","N",TRUE,"CV","q",991,"alt","P","5","c","c",TRUE,1
"CVOE updated",89,1,3,91,"A 56","Letter","Y",TRUE,"CV","p",844,"alt","A","6","v","v",TRUE,1
"CVOE updated",89,1,3,92,"D 57","Letter","N",TRUE,"CV","q",686,"alt","D","7","c","c",TRUE,1
"CVOE updated",89,1,3,95,"I 35","Letter","Y",FALSE,"CV","p",943,"alt","I","5","v","v",TRUE,1
"CVOE updated",89,1,3,96,"J 03","Letter","N",TRUE,"CV","q",1220,"alt","J","3","c","c",TRUE,1
"CVOE updated",89,1,3,99,"S 77","Letter","Y",TRUE,"CV","q",1843,"alt","S","7","c","c",TRUE,1
"CVOE updated",89,1,3,100,"U 05","Letter","N",FALSE,"CV","p",1452,"alt","U","5","v","v",TRUE,1
"CVOE updated",89,1,3,103,"E 02","Letter","Y",TRUE,"CV","p",1141,"alt","E","2","v","v",TRUE,1
"CVOE updated",89,1,3,104,"H 68","Letter","N",FALSE,"CV","q",2923,"alt","H","8","c","c",TRUE,1
"CVOE updated",89,1,3,107,"O 73","Letter","Y",FALSE,"CV","q",904,"alt","O","3","v","c",FALSE,0
"CVOE updated",89,1,3,108,"P 41","Letter","N",TRUE,"CV","q",2903,"alt","P","1","c","c",TRUE,1
"CVOE updated",89,1,3,111,"A 09","Letter","Y",FALSE,"CV","q",1115,"alt","A","9","v","c",FALSE,0
"CVOE updated",89,1,3,112,"D 92","Letter","N",FALSE,"CV","q",3321,"alt","D","2","c","c",TRUE,1
"CVOE updated",89,1,3,115,"I 44","Letter","Y",TRUE,"CV","p",1768,"alt","I","4","v","v",TRUE,1
"CVOE updated",89,1,3,116,"J 67","Letter","N",TRUE,"CV","q",741,"alt","J","7","c","c",TRUE,1
"CVOE updated",89,1,3,119,"S 86","Letter","Y",FALSE,"CV","q",1370,"alt","S","6","c","c",TRUE,1
"CVOE updated",89,1,3,120,"U 35","Letter","N",FALSE,"CV","p",3094,"alt","U","5","v","v",TRUE,1
"CVOE updated",89,1,3,123,"E 91","Letter","Y",FALSE,"CV","p",1959,"alt","E","1","v","v",TRUE,1
"CVOE updated",89,1,3,124,"H 54","Letter","N",FALSE,"CV","q",1660,"alt","H","4","c","c",TRUE,1
"CVOE updated",89,1,3,127,"O 19","Letter","Y",FALSE,"CV","p",2606,"alt","O","9","v","v",TRUE,1
"CVOE updated",89,1,3,128,"P 48","Letter","N",FALSE,"CV","q",1313,"alt","P","8","c","c",TRUE,1
"CVOE updated",89,1,4,3,"U 95","Letter","Y",FALSE,"CV","p",1126,"shuf","U","5","v","v",TRUE,1
"CVOE updated",89,1,4,7,"A 56","Letter","Y",TRUE,"CV","p",841,"shuf","A","6","v","v",TRUE,1
"CVOE updated",89,1,4,8,"H 78","Letter","N",FALSE,"CV","q",802,"shuf","H","8","c","c",TRUE,1
"CVOE updated",89,1,4,9,"P 92","Letter","N",FALSE,"CV","q",878,"shuf","P","2","c","c",TRUE,1
"CVOE updated",89,1,4,11,"P 57","Letter","Y",TRUE,"CV","q",2446,"shuf","P","7","c","c",TRUE,1
"CVOE updated",89,1,4,13,"O 89","Letter","Y",FALSE,"CV","q",1085,"shuf","O","9","v","c",FALSE,0
"CVOE updated",89,1,4,16,"S 07","Letter","Y",TRUE,"CV","q",1283,"shuf","S","7","c","c",TRUE,1
"CVOE updated",89,1,4,17,"J 10","Letter","N",FALSE,"CV","q",1091,"shuf","J","0","c","c",TRUE,1
"CVOE updated",89,1,4,20,"J 36","Letter","Y",FALSE,"CV","q",1312,"shuf","J","6","c","c",TRUE,1
"CVOE updated",89,1,4,21,"I 94","Letter","N",TRUE,"CV","p",2119,"shuf","I","4","v","v",TRUE,1
"CVOE updated",89,1,4,22,"A 82","Letter","N",TRUE,"CV","p",781,"shuf","A","2","v","v",TRUE,1
"CVOE updated",89,1,4,25,"S 28","Letter","Y",FALSE,"CV","q",2841,"shuf","S","8","c","c",TRUE,1
"CVOE updated",89,1,4,30,"S 35","Letter","Y",TRUE,"CV","q",1107,"shuf","S","5","c","c",TRUE,1
"CVOE updated",89,1,4,34,"U 95","Letter","Y",FALSE,"CV","p",1257,"shuf","U","5","v","v",TRUE,1
"CVOE updated",89,1,4,35,"A 53","Letter","N",FALSE,"CV","p",882,"shuf","A","3","v","v",TRUE,1
"CVOE updated",89,1,4,36,"E 43","Letter","N",FALSE,"CV","p",914,"shuf","E","3","v","v",TRUE,1
"CVOE updated",89,1,4,38,"O 19","Letter","Y",FALSE,"CV","p",1705,"shuf","O","9","v","v",TRUE,1
"CVOE updated",89,1,4,43,"P 79","Letter","Y",TRUE,"CV","q",975,"shuf","P","9","c","c",TRUE,1
"CVOE updated",89,1,4,48,"E 54","Letter","Y",TRUE,"CV","p",1407,"shuf","E","4","v","v",TRUE,1
"CVOE updated",89,1,4,49,"A 53","Letter","N",FALSE,"CV","p",730,"shuf","A","3","v","v",TRUE,1
"CVOE updated",89,1,4,50,"P 34","Letter","N",FALSE,"CV","q",1008,"shuf","P","4","c","c",TRUE,1
"CVOE updated",89,1,4,52,"A 03","Letter","Y",FALSE,"CV","p",1570,"shuf","A","3","v","v",TRUE,1
"CVOE updated",89,1,4,54,"I 58","Letter","Y",TRUE,"CV","p",2110,"shuf","I","8","v","v",TRUE,1
"CVOE updated",89,1,4,57,"I 20","Letter","Y",TRUE,"CV","p",1036,"shuf","I","0","v","v",TRUE,1
"CVOE updated",89,1,4,58,"J 52","Letter","N",FALSE,"CV","q",1158,"shuf","J","2","c","c",TRUE,1
"CVOE updated",89,1,4,60,"I 60","Letter","Y",TRUE,"CV","p",1360,"shuf","I","0","v","v",TRUE,1
"CVOE updated",89,1,4,62,"D 63","Letter","Y",TRUE,"CV","q",1210,"shuf","D","3","c","c",TRUE,1
"CVOE updated",89,1,4,63,"U 27","Letter","N",FALSE,"CV","p",901,"shuf","U","7","v","v",TRUE,1
"CVOE updated",89,1,4,64,"J 77","Letter","N",TRUE,"CV","q",740,"shuf","J","7","c","c",TRUE,1
"CVOE updated",89,1,4,66,"J 20","Letter","Y",FALSE,"CV","q",2466,"shuf","J","0","c","c",TRUE,1
"CVOE updated",89,1,4,69,"O 04","Letter","Y",TRUE,"CV","p",1113,"shuf","O","4","v","v",TRUE,1
"CVOE updated",89,1,4,70,"E 10","Letter","N",TRUE,"CV","p",1376,"shuf","E","0","v","v",TRUE,1
"CVOE updated",89,1,4,71,"I 52","Letter","N",TRUE,"CV","p",1532,"shuf","I","2","v","v",TRUE,1
"CVOE updated",89,1,4,74,"U 19","Letter","Y",FALSE,"CV","p",1483,"shuf","U","9","v","v",TRUE,1
"CVOE updated",89,1,4,77,"P 93","Letter","Y",TRUE,"CV","q",930,"shuf","P","3","c","c",TRUE,1
"CVOE updated",89,1,4,78,"E 59","Letter","N",FALSE,"CV","p",4672,"shuf","E","9","v","v",TRUE,1
"CVOE updated",89,1,4,79,"O 53","Letter","N",FALSE,"CV","p",848,"shuf","O","3","v","v",TRUE,1
"CVOE updated",89,1,4,80,"A 96","Letter","N",TRUE,"CV","p",858,"shuf","A","6","v","v",TRUE,1
"CVOE updated",89,1,4,81,"H 36","Letter","Y",FALSE,"CV","q",939,"shuf","H","6","c","c",TRUE,1
"CVOE updated",89,1,4,82,"A 63","Letter","N",FALSE,"CV","p",1225,"shuf","A","3","v","v",TRUE,1
"CVOE updated",89,1,4,83,"I 38","Letter","N",TRUE,"CV","q",763,"shuf","I","8","v","c",FALSE,0
"CVOE updated",89,1,4,86,"S 34","Letter","Y",FALSE,"CV","q",864,"shuf","S","4","c","c",TRUE,1
"CVOE updated",89,1,4,89,"I 73","Letter","Y",FALSE,"CV","p",1437,"shuf","I","3","v","v",TRUE,1
"CVOE updated",89,1,4,92,"P 72","Letter","Y",FALSE,"CV","q",1440,"shuf","P","2","c","c",TRUE,1
"CVOE updated",89,1,4,94,"U 25","Letter","Y",FALSE,"CV","p",1034,"shuf","U","5","v","v",TRUE,1
"CVOE updated",89,1,4,95,"O 32","Letter","N",TRUE,"CV","p",1900,"shuf","O","2","v","v",TRUE,1
"CVOE updated",89,1,4,96,"E 80","Letter","N",TRUE,"CV","p",1371,"shuf","E","0","v","v",TRUE,1
"CVOE updated",89,1,4,100,"U 35","Letter","Y",FALSE,"CV","p",1046,"shuf","U","5","v","v",TRUE,1
"CVOE updated",89,1,4,101,"H 14","Letter","N",FALSE,"CV","q",775,"shuf","H","4","c","c",TRUE,1
"CVOE updated",89,1,4,103,"E 36","Letter","Y",TRUE,"CV","p",997,"shuf","E","6","v","v",TRUE,1
"CVOE updated",89,1,4,104,"P 70","Letter","N",FALSE,"CV","q",1432,"shuf","P","0","c","c",TRUE,1
"CVOE updated",89,1,4,106,"S 41","Letter","Y",TRUE,"CV","q",967,"shuf","S","1","c","c",TRUE,1
"CVOE updated",89,1,4,107,"D 83","Letter","N",TRUE,"CV","q",1580,"shuf","D","3","c","c",TRUE,1
"CVOE updated",89,1,4,108,"J 39","Letter","N",TRUE,"CV","q",872,"shuf","J","9","c","c",TRUE,1
"CVOE updated",89,1,4,110,"D 89","Letter","Y",TRUE,"CV","q",580,"shuf","D","9","c","c",TRUE,1
"CVOE updated",89,1,4,111,"P 87","Letter","N",TRUE,"CV","q",640,"shuf","P","7","c","c",TRUE,1
"CVOE updated",89,1,4,112,"H 42","Letter","N",FALSE,"CV","q",538,"shuf","H","2","c","c",TRUE,1
"CVOE updated",89,1,4,113,"S 49","Letter","N",TRUE,"CV","q",576,"shuf","S","9","c","c",TRUE,1
"CVOE updated",89,1,4,115,"O 19","Letter","Y",FALSE,"CV","p",1375,"shuf","O","9","v","v",TRUE,1
"CVOE updated",89,1,4,116,"H 50","Letter","N",FALSE,"CV","q",1123,"shuf","H","0","c","c",TRUE,1
"CVOE_B",90,1,3,13,"U 95","Letter","Y",FALSE,"CV","p",848,"shuf","U","5","v","v",TRUE,1
"CVOE_B",90,1,3,17,"A 56","Letter","Y",TRUE,"CV","p",1804,"shuf","A","6","v","v",TRUE,1
"CVOE_B",90,1,3,18,"H 78","Letter","N",FALSE,"CV","q",1448,"shuf","H","8","c","c",TRUE,1
"CVOE_B",90,1,3,19,"P 92","Letter","N",FALSE,"CV","q",681,"shuf","P","2","c","c",TRUE,1
"CVOE_B",90,1,3,21,"P 57","Letter","Y",TRUE,"CV","q",923,"shuf","P","7","c","c",TRUE,1
"CVOE_B",90,1,3,23,"O 89","Letter","Y",FALSE,"CV","p",1978,"shuf","O","9","v","v",TRUE,1
"CVOE_B",90,1,3,26,"S 07","Letter","Y",TRUE,"CV","q",1880,"shuf","S","7","c","c",TRUE,1
"CVOE_B",90,1,3,27,"J 10","Letter","N",FALSE,"CV","q",840,"shuf","J","0","c","c",TRUE,1
"CVOE_B",90,1,3,30,"J 36","Letter","Y",FALSE,"CV","q",1217,"shuf","J","6","c","c",TRUE,1
"CVOE_B",90,1,3,31,"I 94","Letter","N",TRUE,"CV","p",899,"shuf","I","4","v","v",TRUE,1
"CVOE_B",90,1,3,32,"A 82","Letter","N",TRUE,"CV","p",1067,"shuf","A","2","v","v",TRUE,1
"CVOE_B",90,1,3,35,"S 28","Letter","Y",FALSE,"CV","p",868,"shuf","S","8","c","v",FALSE,0
"CVOE_B",90,1,3,40,"S 35","Letter","Y",TRUE,"CV","q",614,"shuf","S","5","c","c",TRUE,1
"CVOE_B",90,1,3,44,"U 95","Letter","Y",FALSE,"CV","p",2369,"shuf","U","5","v","v",TRUE,1
"CVOE_B",90,1,3,45,"A 53","Letter","N",FALSE,"CV","p",654,"shuf","A","3","v","v",TRUE,1
"CVOE_B",90,1,3,46,"E 43","Letter","N",FALSE,"CV","p",671,"shuf","E","3","v","v",TRUE,1
"CVOE_B",90,1,3,48,"O 19","Letter","Y",FALSE,"CV","p",1243,"shuf","O","9","v","v",TRUE,1
"CVOE_B",90,1,3,53,"P 79","Letter","Y",TRUE,"CV","q",1138,"shuf","P","9","c","c",TRUE,1
"CVOE_B",90,1,3,58,"E 54","Letter","Y",TRUE,"CV","q",1104,"shuf","E","4","v","c",FALSE,0
"CVOE_B",90,1,3,59,"A 53","Letter","N",FALSE,"CV","p",1239,"shuf","A","3","v","v",TRUE,1
"CVOE_B",90,1,3,60,"P 34","Letter","N",FALSE,"CV","q",673,"shuf","P","4","c","c",TRUE,1
"CVOE_B",90,1,3,62,"A 03","Letter","Y",FALSE,"CV","p",2042,"shuf","A","3","v","v",TRUE,1
"CVOE_B",90,1,3,64,"I 58","Letter","Y",TRUE,"CV","p",2380,"shuf","I","8","v","v",TRUE,1
"CVOE_B",90,1,3,67,"I 20","Letter","Y",TRUE,"CV","p",1194,"shuf","I","0","v","v",TRUE,1
"CVOE_B",90,1,3,68,"J 52","Letter","N",FALSE,"CV","q",1013,"shuf","J","2","c","c",TRUE,1
"CVOE_B",90,1,3,70,"I 60","Letter","Y",TRUE,"CV","p",1470,"shuf","I","0","v","v",TRUE,1
"CVOE_B",90,1,3,72,"D 63","Letter","Y",TRUE,"CV","q",1395,"shuf","D","3","c","c",TRUE,1
"CVOE_B",90,1,3,73,"U 27","Letter","N",FALSE,"CV","p",1678,"shuf","U","7","v","v",TRUE,1
"CVOE_B",90,1,3,74,"J 77","Letter","N",TRUE,"CV","q",1350,"shuf","J","7","c","c",TRUE,1
"CVOE_B",90,1,3,76,"J 20","Letter","Y",FALSE,"CV","q",1399,"shuf","J","0","c","c",TRUE,1
"CVOE_B",90,1,3,79,"O 04","Letter","Y",TRUE,"CV","p",955,"shuf","O","4","v","v",TRUE,1
"CVOE_B",90,1,3,80,"E 10","Letter","N",TRUE,"CV","p",896,"shuf","E","0","v","v",TRUE,1
"CVOE_B",90,1,3,81,"I 52","Letter","N",TRUE,"CV","p",687,"shuf","I","2","v","v",TRUE,1
"CVOE_B",90,1,3,84,"U 19","Letter","Y",FALSE,"CV","p",870,"shuf","U","9","v","v",TRUE,1
"CVOE_B",90,1,3,87,"P 93","Letter","Y",TRUE,"CV","q",2165,"shuf","P","3","c","c",TRUE,1
"CVOE_B",90,1,3,88,"E 59","Letter","N",FALSE,"CV","p",809,"shuf","E","9","v","v",TRUE,1
"CVOE_B",90,1,3,89,"O 53","Letter","N",FALSE,"CV","p",812,"shuf","O","3","v","v",TRUE,1
"CVOE_B",90,1,3,90,"A 96","Letter","N",TRUE,"CV","p",646,"shuf","A","6","v","v",TRUE,1
"CVOE_B",90,1,3,91,"H 36","Letter","Y",FALSE,"CV","q",808,"shuf","H","6","c","c",TRUE,1
"CVOE_B",90,1,3,92,"A 63","Letter","N",FALSE,"CV","p",955,"shuf","A","3","v","v",TRUE,1
"CVOE_B",90,1,3,93,"I 38","Letter","N",TRUE,"CV","p",1208,"shuf","I","8","v","v",TRUE,1
"CVOE_B",90,1,3,96,"S 34","Letter","Y",FALSE,"CV","q",903,"shuf","S","4","c","c",TRUE,1
"CVOE_B",90,1,3,99,"I 73","Letter","Y",FALSE,"CV","p",1126,"shuf","I","3","v","v",TRUE,1
"CVOE_B",90,1,3,102,"P 72","Letter","Y",FALSE,"CV","q",1074,"shuf","P","2","c","c",TRUE,1
"CVOE_B",90,1,3,104,"U 25","Letter","Y",FALSE,"CV","p",1965,"shuf","U","5","v","v",TRUE,1
"CVOE_B",90,1,3,105,"O 32","Letter","N",TRUE,"CV","p",1321,"shuf","O","2","v","v",TRUE,1
"CVOE_B",90,1,3,106,"E 80","Letter","N",TRUE,"CV","p",800,"shuf","E","0","v","v",TRUE,1
"CVOE_B",90,1,3,110,"U 35","Letter","Y",FALSE,"CV","p",1694,"shuf","U","5","v","v",TRUE,1
"CVOE_B",90,1,3,111,"H 14","Letter","N",FALSE,"CV","q",1301,"shuf","H","4","c","c",TRUE,1
"CVOE_B",90,1,3,113,"E 36","Letter","Y",TRUE,"CV","p",1290,"shuf","E","6","v","v",TRUE,1
"CVOE_B",90,1,3,114,"P 70","Letter","N",FALSE,"CV","q",1498,"shuf","P","0","c","c",TRUE,1
"CVOE_B",90,1,3,116,"S 41","Letter","Y",TRUE,"CV","q",859,"shuf","S","1","c","c",TRUE,1
"CVOE_B",90,1,3,117,"D 83","Letter","N",TRUE,"CV","q",908,"shuf","D","3","c","c",TRUE,1
"CVOE_B",90,1,3,118,"J 39","Letter","N",TRUE,"CV","q",651,"shuf","J","9","c","c",TRUE,1
"CVOE_B",90,1,3,120,"D 89","Letter","Y",TRUE,"CV","q",988,"shuf","D","9","c","c",TRUE,1
"CVOE_B",90,1,3,121,"P 87","Letter","N",TRUE,"CV","q",960,"shuf","P","7","c","c",TRUE,1
"CVOE_B",90,1,3,122,"H 42","Letter","N",FALSE,"CV","q",1157,"shuf","H","2","c","c",TRUE,1
"CVOE_B",90,1,3,123,"S 49","Letter","N",TRUE,"CV","q",754,"shuf","S","9","c","c",TRUE,1
"CVOE_B",90,1,3,125,"O 19","Letter","Y",FALSE,"CV","p",1141,"shuf","O","9","v","v",TRUE,1
"CVOE_B",90,1,3,126,"H 50","Letter","N",FALSE,"CV","q",787,"shuf","H","0","c","c",TRUE,1
"CVOE_B",90,1,4,1,"A 44","Letter","N",TRUE,"CV","p",3913,"alt","A","4","v","v",TRUE,1
"CVOE_B",90,1,4,2,"D 94","Letter","N",FALSE,"CV","q",760,"alt","D","4","c","c",TRUE,1
"CVOE_B",90,1,4,5,"I 64","Letter","Y",TRUE,"CV","p",949,"alt","I","4","v","v",TRUE,1
"CVOE_B",90,1,4,6,"J 54","Letter","N",FALSE,"CV","p",882,"alt","J","4","c","v",FALSE,0
"CVOE_B",90,1,4,9,"S 34","Letter","Y",FALSE,"CV","q",1070,"alt","S","4","c","c",TRUE,1
"CVOE_B",90,1,4,10,"U 88","Letter","N",TRUE,"CV","p",895,"alt","U","8","v","v",TRUE,1
"CVOE_B",90,1,4,13,"E 79","Letter","Y",FALSE,"CV","p",874,"alt","E","9","v","v",TRUE,1
"CVOE_B",90,1,4,14,"H 72","Letter","N",FALSE,"CV","q",690,"alt","H","2","c","c",TRUE,1
"CVOE_B",90,1,4,17,"O 03","Letter","Y",FALSE,"CV","p",1245,"alt","O","3","v","v",TRUE,1
"CVOE_B",90,1,4,18,"P 75","Letter","N",TRUE,"CV","q",1214,"alt","P","5","c","c",TRUE,1
"CVOE_B",90,1,4,21,"A 21","Letter","Y",FALSE,"CV","p",1090,"alt","A","1","v","v",TRUE,1
"CVOE_B",90,1,4,22,"D 18","Letter","N",FALSE,"CV","q",754,"alt","D","8","c","c",TRUE,1
"CVOE_B",90,1,4,25,"I 82","Letter","Y",TRUE,"CV","p",1476,"alt","I","2","v","v",TRUE,1
"CVOE_B",90,1,4,26,"J 78","Letter","N",FALSE,"CV","q",748,"alt","J","8","c","c",TRUE,1
"CVOE_B",90,1,4,29,"S 07","Letter","Y",TRUE,"CV","q",1533,"alt","S","7","c","c",TRUE,1
"CVOE_B",90,1,4,30,"U 36","Letter","N",TRUE,"CV","p",866,"alt","U","6","v","v",TRUE,1
"CVOE_B",90,1,4,33,"E 60","Letter","Y",TRUE,"CV","p",884,"alt","E","0","v","v",TRUE,1
"CVOE_B",90,1,4,34,"H 83","Letter","N",TRUE,"CV","q",707,"alt","H","3","c","c",TRUE,1
"CVOE_B",90,1,4,37,"O 78","Letter","Y",TRUE,"CV","q",1144,"alt","O","8","v","c",FALSE,0
"CVOE_B",90,1,4,38,"P 09","Letter","N",TRUE,"CV","q",638,"alt","P","9","c","c",TRUE,1
"CVOE_B",90,1,4,41,"A 31","Letter","Y",FALSE,"CV","p",708,"alt","A","1","v","v",TRUE,1
"CVOE_B",90,1,4,42,"D 96","Letter","N",FALSE,"CV","q",867,"alt","D","6","c","c",TRUE,1
"CVOE_B",90,1,4,45,"I 15","Letter","Y",FALSE,"CV","p",2547,"alt","I","5","v","v",TRUE,1
"CVOE_B",90,1,4,46,"J 07","Letter","N",TRUE,"CV","q",800,"alt","J","7","c","c",TRUE,1
"CVOE_B",90,1,4,49,"S 37","Letter","Y",TRUE,"CV","q",1838,"alt","S","7","c","c",TRUE,1
"CVOE_B",90,1,4,50,"U 61","Letter","N",FALSE,"CV","q",4568,"alt","U","1","v","c",FALSE,0
"CVOE_B",90,1,4,53,"E 20","Letter","Y",TRUE,"CV","p",981,"alt","E","0","v","v",TRUE,1
"CVOE_B",90,1,4,54,"H 86","Letter","N",FALSE,"CV","q",785,"alt","H","6","c","c",TRUE,1
"CVOE_B",90,1,4,57,"O 13","Letter","Y",FALSE,"CV","p",1336,"alt","O","3","v","v",TRUE,1
"CVOE_B",90,1,4,58,"P 82","Letter","N",FALSE,"CV","q",838,"alt","P","2","c","c",TRUE,1
"CVOE_B",90,1,4,61,"A 49","Letter","Y",FALSE,"CV","p",1340,"alt","A","9","v","v",TRUE,1
"CVOE_B",90,1,4,62,"D 91","Letter","N",TRUE,"CV","q",730,"alt","D","1","c","c",TRUE,1
"CVOE_B",90,1,4,65,"I 45","Letter","Y",FALSE,"CV","p",1519,"alt","I","5","v","v",TRUE,1
"CVOE_B",90,1,4,66,"J 70","Letter","N",FALSE,"CV","q",1110,"alt","J","0","c","c",TRUE,1
"CVOE_B",90,1,4,69,"S 93","Letter","Y",TRUE,"CV","q",1672,"alt","S","3","c","c",TRUE,1
"CVOE_B",90,1,4,70,"U 70","Letter","N",TRUE,"CV","p",704,"alt","U","0","v","v",TRUE,1
"CVOE_B",90,1,4,73,"E 68","Letter","Y",TRUE,"CV","p",603,"alt","E","8","v","v",TRUE,1
"CVOE_B",90,1,4,74,"H 17","Letter","N",TRUE,"CV","q",694,"alt","H","7","c","c",TRUE,1
"CVOE_B",90,1,4,77,"O 32","Letter","Y",TRUE,"CV","p",1089,"alt","O","2","v","v",TRUE,1
"CVOE_B",90,1,4,78,"P 95","Letter","N",TRUE,"CV","q",825,"alt","P","5","c","c",TRUE,1
"CVOE_B",90,1,4,81,"A 56","Letter","Y",TRUE,"CV","p",753,"alt","A","6","v","v",TRUE,1
"CVOE_B",90,1,4,82,"D 57","Letter","N",TRUE,"CV","q",446,"alt","D","7","c","c",TRUE,1
"CVOE_B",90,1,4,85,"I 35","Letter","Y",FALSE,"CV","p",614,"alt","I","5","v","v",TRUE,1
"CVOE_B",90,1,4,86,"J 03","Letter","N",TRUE,"CV","q",545,"alt","J","3","c","c",TRUE,1
"CVOE_B",90,1,4,89,"S 77","Letter","Y",TRUE,"CV","q",1142,"alt","S","7","c","c",TRUE,1
"CVOE_B",90,1,4,90,"U 05","Letter","N",FALSE,"CV","p",668,"alt","U","5","v","v",TRUE,1
"CVOE_B",90,1,4,93,"E 02","Letter","Y",TRUE,"CV","p",1146,"alt","E","2","v","v",TRUE,1
"CVOE_B",90,1,4,94,"H 68","Letter","N",FALSE,"CV","q",615,"alt","H","8","c","c",TRUE,1
"CVOE_B",90,1,4,97,"O 73","Letter","Y",FALSE,"CV","p",516,"alt","O","3","v","v",TRUE,1
"CVOE_B",90,1,4,98,"P 41","Letter","N",TRUE,"CV","q",483,"alt","P","1","c","c",TRUE,1
"CVOE_B",90,1,4,101,"A 09","Letter","Y",FALSE,"CV","p",1511,"alt","A","9","v","v",TRUE,1
"CVOE_B",90,1,4,102,"D 92","Letter","N",FALSE,"CV","q",645,"alt","D","2","c","c",TRUE,1
"CVOE_B",90,1,4,105,"I 44","Letter","Y",TRUE,"CV","q",695,"alt","I","4","v","c",FALSE,0
"CVOE_B",90,1,4,106,"J 67","Letter","N",TRUE,"CV","p",846,"alt","J","7","c","v",FALSE,0
"CVOE_B",90,1,4,109,"S 86","Letter","Y",FALSE,"CV","q",631,"alt","S","6","c","c",TRUE,1
"CVOE_B",90,1,4,110,"U 35","Letter","N",FALSE,"CV","p",473,"alt","U","5","v","v",TRUE,1
"CVOE_B",90,1,4,113,"E 91","Letter","Y",FALSE,"CV","p",531,"alt","E","1","v","v",TRUE,1
"CVOE_B",90,1,4,114,"H 54","Letter","N",FALSE,"CV","q",610,"alt","H","4","c","c",TRUE,1
"CVOE_B",90,1,4,117,"O 19","Letter","Y",FALSE,"CV","p",1102,"alt","O","9","v","v",TRUE,1
"CVOE_B",90,1,4,118,"P 48","Letter","N",FALSE,"CV","p",845,"alt","P","8","c","v",FALSE,0
"CVOE_C",91,1,3,11,"A 44","Letter","N",TRUE,"CV","p",1594,"alt","A","4","v","v",TRUE,1
"CVOE_C",91,1,3,12,"D 94","Letter","N",FALSE,"CV","q",1348,"alt","D","4","c","c",TRUE,1
"CVOE_C",91,1,3,15,"I 64","Letter","Y",TRUE,"CV","p",1348,"alt","I","4","v","v",TRUE,1
"CVOE_C",91,1,3,16,"J 54","Letter","N",FALSE,"CV","q",1042,"alt","J","4","c","c",TRUE,1
"CVOE_C",91,1,3,19,"S 34","Letter","Y",FALSE,"CV","q",1795,"alt","S","4","c","c",TRUE,1
"CVOE_C",91,1,3,20,"U 88","Letter","N",TRUE,"CV","p",1084,"alt","U","8","v","v",TRUE,1
"CVOE_C",91,1,3,23,"E 79","Letter","Y",FALSE,"CV","q",1650,"alt","E","9","v","c",FALSE,0
"CVOE_C",91,1,3,24,"H 72","Letter","N",FALSE,"CV","q",2627,"alt","H","2","c","c",TRUE,1
"CVOE_C",91,1,3,27,"O 03","Letter","Y",FALSE,"CV","p",1445,"alt","O","3","v","v",TRUE,1
"CVOE_C",91,1,3,28,"P 75","Letter","N",TRUE,"CV","q",1584,"alt","P","5","c","c",TRUE,1
"CVOE_C",91,1,3,31,"A 21","Letter","Y",FALSE,"CV","p",1848,"alt","A","1","v","v",TRUE,1
"CVOE_C",91,1,3,32,"D 18","Letter","N",FALSE,"CV","q",1429,"alt","D","8","c","c",TRUE,1
"CVOE_C",91,1,3,35,"I 82","Letter","Y",TRUE,"CV","p",1208,"alt","I","2","v","v",TRUE,1
"CVOE_C",91,1,3,36,"J 78","Letter","N",FALSE,"CV","q",776,"alt","J","8","c","c",TRUE,1
"CVOE_C",91,1,3,39,"S 07","Letter","Y",TRUE,"CV","q",852,"alt","S","7","c","c",TRUE,1
