"ExperimentName","Subject","Group","Block","Trial","STIM","TASK","Switch","Congruent","CVOE","Response","RT","block_type","letter","number","key2","response2","match2","score2"
"CVOE updated",101,1,1,11,"A 71","","",FALSE,"CV","p",1870,"cv","A","1","v","v",TRUE,1
"CVOE updated",101,1,1,12,"I 66","","",TRUE,"CV","p",1599,"cv","I","6","v","v",TRUE,1
"CVOE updated",101,1,1,13,"S 30","","",FALSE,"CV","q",1570,"cv","S","0","c","c",TRUE,1
"CVOE updated",101,1,1,14,"D 20","","",FALSE,"CV","q",903,"cv","D","0","c","c",TRUE,1
"CVOE updated",101,1,1,15,"I 31","","",FALSE,"CV","p",782,"cv","I","1","v","v",TRUE,1
"CVOE updated",101,1,1,16,"P 16","","",FALSE,"CV","q",730,"cv","P","6","c","c",TRUE,1
"CVOE updated",101,1,1,17,"A 49","","",FALSE,"CV","p",912,"cv","A","9","v","v",TRUE,1
"CVOE updated",101,1,1,18,"O 64","","",TRUE,"CV","p",806,"cv","O","4","v","v",TRUE,1
"CVOE updated",101,1,1,19,"D 02","","",FALSE,"CV","q",1345,"cv","D","2","c","c",TRUE,1
"CVOE updated",101,1,1,20,"P 81","","",TRUE,"CV","q",831,"cv","P","1","c","c",TRUE,1
"CVOE updated",101,1,1,21,"J 58","","",FALSE,"CV","q",625,"cv","J","8","c","c",TRUE,1
"CVOE updated",101,1,1,22,"A 22","","",TRUE,"CV","p",643,"cv","A","2","v","v",TRUE,1
"CVOE updated",101,1,1,23,"J 72","","",FALSE,"CV","q",892,"cv","J","2","c","c",TRUE,1
"CVOE updated",101,1,1,24,"P 91","","",TRUE,"CV","q",596,"cv","P","1","c","c",TRUE,1
"CVOE updated",101,1,1,25,"E 19","","",FALSE,"CV","p",1160,"cv","E","9","v","v",TRUE,1
"CVOE updated",101,1,1,26,"I 30","","",TRUE,"CV","p",516,"cv","I","0","v","v",TRUE,1
"CVOE updated",101,1,1,27,"D 91","","",TRUE,"CV","q",707,"cv","D","1","c","c",TRUE,1
"CVOE updated",101,1,1,28,"O 48","","",TRUE,"CV","p",602,"cv","O","8","v","v",TRUE,1
"CVOE updated",101,1,1,29,"A 89","","",FALSE,"CV","p",549,"cv","A","9","v","v",TRUE,1
"CVOE updated",101,1,1,30,"U 11","","",FALSE,"CV","p",754,"cv","U","1","v","v",TRUE,1
"CVOE updated",101,1,1,31,"I 76","","",TRUE,"CV","p",488,"cv","I","6","v","v",TRUE,1
"CVOE updated",101,1,1,32,"U 89","","",FALSE,"CV","p",496,"cv","U","9","v","v",TRUE,1
"CVOE updated",101,1,1,33,"D 63","","",TRUE,"CV","q",615,"cv","D","3","c","c",TRUE,1
"CVOE updated",101,1,1,34,"H 70","","",FALSE,"CV","q",3121,"cv","H","0","c","c",TRUE,1
"CVOE updated",101,1,1,35,"D 48","","",FALSE,"CV","q",520,"cv","D","8","c","c",TRUE,1
"CVOE updated",101,1,1,36,"P 56","","",FALSE,"CV","p",566,"cv","P","6","c","v",FALSE,0
"CVOE updated",101,1,1,37,"O 77","","",FALSE,"CV","p",683,"cv","O","7","v","v",TRUE,1
"CVOE updated",101,1,1,38,"P 42","","",FALSE,"CV","q",707,"cv","P","2","c","c",TRUE,1
"CVOE updated",101,1,1,39,"H 22","","",FALSE,"CV","q",930,"cv","H","2","c","c",TRUE,1
"CVOE updated",101,1,1,40,"E 42","","",TRUE,"CV","p",568,"cv","E","2","v","v",TRUE,1
"CVOE updated",101,1,1,41,"J 28","","",FALSE,"CV","q",621,"cv","J","8","c","c",TRUE,1
"CVOE updated",101,1,1,42,"E 95","","",FALSE,"CV","p",1199,"cv","E","5","v","v",TRUE,1
"CVOE updated",101,1,1,43,"S 63","","",TRUE,"CV","q",827,"cv","S","3","c","c",TRUE,1
"CVOE updated",101,1,1,44,"H 50","","",FALSE,"CV","q",644,"cv","H","0","c","c",TRUE,1
"CVOE updated",101,1,1,45,"S 33","","",TRUE,"CV","q",614,"cv","S","3","c","c",TRUE,1
"CVOE updated",101,1,1,46,"P 57","","",TRUE,"CV","q",552,"cv","P","7","c","c",TRUE,1
"CVOE updated",101,1,1,47,"E 23","","",FALSE,"CV","p",638,"cv","E","3","v","v",TRUE,1
"CVOE updated",101,1,1,48,"S 61","","",TRUE,"CV","q",567,"cv","S","1","c","c",TRUE,1
"CVOE updated",101,1,1,49,"U 67","","",FALSE,"CV","p",508,"cv","U","7","v","v",TRUE,1
"CVOE updated",101,1,1,50,"H 32","","",FALSE,"CV","q",555,"cv","H","2","c","c",TRUE,1
"CVOE updated",101,1,1,51,"U 50","","",TRUE,"CV","p",1865,"cv","U","0","v","v",TRUE,1
"CVOE updated",101,1,1,52,"O 49","","",FALSE,"CV","p",1073,"cv","O","9","v","v",TRUE,1
"CVOE updated",101,1,1,53,"U 32","","",TRUE,"CV","p",658,"cv","U","2","v","v",TRUE,1
"CVOE updated",101,1,1,54,"J 78","","",FALSE,"CV","q",531,"cv","J","8","c","c",TRUE,1
"CVOE updated",101,1,1,55,"S 54","","",FALSE,"CV","q",1905,"cv","S","4","c","c",TRUE,1
"CVOE updated",101,1,1,56,"J 27","","",TRUE,"CV","q",640,"cv","J","7","c","c",TRUE,1
"CVOE updated",101,1,1,57,"S 06","","",FALSE,"CV","q",546,"cv","S","6","c","c",TRUE,1
"CVOE updated",101,1,1,58,"D 67","","",TRUE,"CV","q",567,"cv","D","7","c","c",TRUE,1
"CVOE updated",101,1,1,59,"A 79","","",FALSE,"CV","p",548,"cv","A","9","v","v",TRUE,1
"CVOE updated",101,1,1,60,"S 52","","",FALSE,"CV","q",577,"cv","S","2","c","c",TRUE,1
"CVOE updated",101,1,1,61,"U 16","","",TRUE,"CV","p",629,"cv","U","6","v","v",TRUE,1
"CVOE updated",101,1,1,62,"O 82","","",TRUE,"CV","p",527,"cv","O","2","v","v",TRUE,1
"CVOE updated",101,1,1,63,"H 87","","",TRUE,"CV","q",557,"cv","H","7","c","c",TRUE,1
"CVOE updated",101,1,1,64,"I 32","","",TRUE,"CV","p",538,"cv","I","2","v","v",TRUE,1
"CVOE updated",101,1,1,65,"U 37","","",FALSE,"CV","p",496,"cv","U","7","v","v",TRUE,1
"CVOE updated",101,1,1,66,"I 42","","",TRUE,"CV","p",487,"cv","I","2","v","v",TRUE,1
"CVOE updated",101,1,1,67,"D 65","","",TRUE,"CV","q",527,"cv","D","5","c","c",TRUE,1
"CVOE updated",101,1,1,68,"U 77","","",FALSE,"CV","p",1021,"cv","U","7","v","v",TRUE,1
"CVOE updated",101,1,1,69,"E 12","","",TRUE,"CV","p",528,"cv","E","2","v","v",TRUE,1
"CVOE updated",101,1,1,70,"I 60","","",TRUE,"CV","p",542,"cv","I","0","v","v",TRUE,1
"CVOE updated",101,1,1,71,"J 36","","",FALSE,"CV","q",756,"cv","J","6","c","c",TRUE,1
"CVOE updated",101,1,1,72,"H 75","","",TRUE,"CV","q",1265,"cv","H","5","c","c",TRUE,1
"CVOE updated",101,1,1,73,"I 50","","",TRUE,"CV","p",537,"cv","I","0","v","v",TRUE,1
"CVOE updated",101,1,1,74,"E 99","","",FALSE,"CV","p",383,"cv","E","9","v","v",TRUE,1
"CVOE updated",101,1,1,75,"A 86","","",TRUE,"CV","p",651,"cv","A","6","v","v",TRUE,1
"CVOE updated",101,1,1,76,"U 48","","",TRUE,"CV","p",396,"cv","U","8","v","v",TRUE,1
"CVOE updated",101,1,1,77,"E 01","","",FALSE,"CV","p",384,"cv","E","1","v","v",TRUE,1
"CVOE updated",101,1,1,78,"A 78","","",TRUE,"CV","p",548,"cv","A","8","v","v",TRUE,1
"CVOE updated",101,1,1,79,"P 60","","",FALSE,"CV","q",489,"cv","P","0","c","c",TRUE,1
"CVOE updated",101,1,1,80,"E 43","","",FALSE,"CV","p",473,"cv","E","3","v","v",TRUE,1
"CVOE updated",101,1,1,81,"D 69","","",TRUE,"CV","q",473,"cv","D","9","c","c",TRUE,1
"CVOE updated",101,1,1,82,"H 11","","",TRUE,"CV","q",490,"cv","H","1","c","c",TRUE,1
"CVOE updated",101,1,1,83,"P 43","","",TRUE,"CV","q",418,"cv","P","3","c","c",TRUE,1
"CVOE updated",101,1,1,84,"O 67","","",FALSE,"CV","p",405,"cv","O","7","v","v",TRUE,1
"CVOE updated",101,1,1,85,"S 91","","",FALSE,"CV","p",336,"cv","S","1","c","v",FALSE,0
"CVOE updated",101,1,1,86,"J 68","","",TRUE,"CV","q",558,"cv","J","8","c","c",TRUE,1
"CVOE updated",101,1,1,87,"S 47","","",FALSE,"CV","q",403,"cv","S","7","c","c",TRUE,1
"CVOE updated",101,1,1,88,"I 81","","",TRUE,"CV","p",558,"cv","I","1","v","v",TRUE,1
"CVOE updated",101,1,1,89,"J 39","","",FALSE,"CV","q",492,"cv","J","9","c","c",TRUE,1
"CVOE updated",101,1,1,90,"A 11","","",TRUE,"CV","p",580,"cv","A","1","v","v",TRUE,1
"CVOE updated",101,1,1,91,"O 76","","",FALSE,"CV","p",535,"cv","O","6","v","v",TRUE,1
"CVOE updated",101,1,1,92,"A 62","","",FALSE,"CV","p",557,"cv","A","2","v","v",TRUE,1
"CVOE updated",101,1,1,93,"O 27","","",TRUE,"CV","p",587,"cv","O","7","v","v",TRUE,1
"CVOE updated",101,1,1,94,"E 66","","",FALSE,"CV","p",471,"cv","E","6","v","v",TRUE,1
"CVOE updated",101,1,1,95,"J 62","","",TRUE,"CV","q",535,"cv","J","2","c","c",TRUE,1
"CVOE updated",101,1,1,96,"H 72","","",TRUE,"CV","q",525,"cv","H","2","c","c",TRUE,1
"CVOE updated",101,1,1,97,"E 49","","",TRUE,"CV","p",404,"cv","E","9","v","v",TRUE,1
"CVOE updated",101,1,1,98,"D 52","","",TRUE,"CV","q",535,"cv","D","2","c","c",TRUE,1
"CVOE updated",101,1,1,99,"H 62","","",TRUE,"CV","q",461,"cv","H","2","c","c",TRUE,1
"CVOE updated",101,1,1,100,"I 11","","",TRUE,"CV","p",478,"cv","I","1","v","v",TRUE,1
"CVOE updated",101,1,1,101,"A 98","","",FALSE,"CV","p",421,"cv","A","8","v","v",TRUE,1
"CVOE updated",101,1,1,102,"H 29","","",FALSE,"CV","q",760,"cv","H","9","c","c",TRUE,1
"CVOE updated",101,1,1,103,"E 83","","",TRUE,"CV","p",389,"cv","E","3","v","v",TRUE,1
"CVOE updated",101,1,1,104,"D 43","","",FALSE,"CV","q",601,"cv","D","3","c","c",TRUE,1
"CVOE updated",101,1,1,105,"P 45","","",TRUE,"CV","q",396,"cv","P","5","c","c",TRUE,1
"CVOE updated",101,1,1,106,"J 17","","",TRUE,"CV","q",487,"cv","J","7","c","c",TRUE,1
"CVOE updated",93,1,1,11,"A 71","","",FALSE,"CV","p",1076,"cv","A","1","v","v",TRUE,1
"CVOE updated",93,1,1,12,"I 66","","",TRUE,"CV","p",547,"cv","I","6","v","v",TRUE,1
"CVOE updated",93,1,1,13,"S 30","","",FALSE,"CV","q",457,"cv","S","0","c","c",TRUE,1
"CVOE updated",93,1,1,14,"D 20","","",FALSE,"CV","q",458,"cv","D","0","c","c",TRUE,1
"CVOE updated",93,1,1,15,"I 31","","",FALSE,"CV","p",467,"cv","I","1","v","v",TRUE,1
"CVOE updated",93,1,1,16,"P 16","","",FALSE,"CV","q",388,"cv","P","6","c","c",TRUE,1
"CVOE updated",93,1,1,17,"A 49","","",FALSE,"CV","p",432,"cv","A","9","v","v",TRUE,1
"CVOE updated",93,1,1,18,"O 64","","",TRUE,"CV","p",410,"cv","O","4","v","v",TRUE,1
"CVOE updated",93,1,1,19,"D 02","","",FALSE,"CV","q",412,"cv","D","2","c","c",TRUE,1
"CVOE updated",93,1,1,20,"P 81","","",TRUE,"CV","q",551,"cv","P","1","c","c",TRUE,1
"CVOE updated",93,1,1,21,"J 58","","",FALSE,"CV","q",764,"cv","J","8","c","c",TRUE,1
"CVOE updated",93,1,1,22,"A 22","","",TRUE,"CV","p",537,"cv","A","2","v","v",TRUE,1
"CVOE updated",93,1,1,23,"J 72","","",FALSE,"CV","q",487,"cv","J","2","c","c",TRUE,1
"CVOE updated",93,1,1,24,"P 91","","",TRUE,"CV","q",487,"cv","P","1","c","c",TRUE,1
"CVOE updated",93,1,1,25,"E 19","","",FALSE,"CV","p",535,"cv","E","9","v","v",TRUE,1
"CVOE updated",93,1,1,26,"I 30","","",TRUE,"CV","p",548,"cv","I","0","v","v",TRUE,1
"CVOE updated",93,1,1,27,"D 91","","",TRUE,"CV","q",418,"cv","D","1","c","c",TRUE,1
"CVOE updated",93,1,1,28,"O 48","","",TRUE,"CV","p",452,"cv","O","8","v","v",TRUE,1
"CVOE updated",93,1,1,29,"A 89","","",FALSE,"CV","p",510,"cv","A","9","v","v",TRUE,1
"CVOE updated",93,1,1,30,"U 11","","",FALSE,"CV","p",444,"cv","U","1","v","v",TRUE,1
"CVOE updated",93,1,1,31,"I 76","","",TRUE,"CV","p",621,"cv","I","6","v","v",TRUE,1
"CVOE updated",93,1,1,32,"U 89","","",FALSE,"CV","p",400,"cv","U","9","v","v",TRUE,1
"CVOE updated",93,1,1,33,"D 63","","",TRUE,"CV","q",539,"cv","D","3","c","c",TRUE,1
"CVOE updated",93,1,1,34,"H 70","","",FALSE,"CV","q",561,"cv","H","0","c","c",TRUE,1
"CVOE updated",93,1,1,35,"D 48","","",FALSE,"CV","q",710,"cv","D","8","c","c",TRUE,1
"CVOE updated",93,1,1,36,"P 56","","",FALSE,"CV","q",420,"cv","P","6","c","c",TRUE,1
"CVOE updated",93,1,1,37,"O 77","","",FALSE,"CV","p",655,"cv","O","7","v","v",TRUE,1
"CVOE updated",93,1,1,38,"P 42","","",FALSE,"CV","q",496,"cv","P","2","c","c",TRUE,1
"CVOE updated",93,1,1,39,"H 22","","",FALSE,"CV","q",551,"cv","H","2","c","c",TRUE,1
"CVOE updated",93,1,1,40,"E 42","","",TRUE,"CV","p",477,"cv","E","2","v","v",TRUE,1
"CVOE updated",93,1,1,41,"J 28","","",FALSE,"CV","q",397,"cv","J","8","c","c",TRUE,1
"CVOE updated",93,1,1,42,"E 95","","",FALSE,"CV","p",752,"cv","E","5","v","v",TRUE,1
"CVOE updated",93,1,1,43,"S 63","","",TRUE,"CV","q",581,"cv","S","3","c","c",TRUE,1
"CVOE updated",93,1,1,44,"H 50","","",FALSE,"CV","q",561,"cv","H","0","c","c",TRUE,1
"CVOE updated",93,1,1,45,"S 33","","",TRUE,"CV","q",734,"cv","S","3","c","c",TRUE,1
"CVOE updated",93,1,1,46,"P 57","","",TRUE,"CV","q",380,"cv","P","7","c","c",TRUE,1
"CVOE updated",93,1,1,47,"E 23","","",FALSE,"CV","p",472,"cv","E","3","v","v",TRUE,1
"CVOE updated",93,1,1,48,"S 61","","",TRUE,"CV","q",920,"cv","S","1","c","c",TRUE,1
"CVOE updated",93,1,1,49,"U 67","","",FALSE,"CV","p",568,"cv","U","7","v","v",TRUE,1
"CVOE updated",93,1,1,50,"H 32","","",FALSE,"CV","q",563,"cv","H","2","c","c",TRUE,1
"CVOE updated",93,1,1,51,"U 50","","",TRUE,"CV","p",616,"cv","U","0","v","v",TRUE,1
"CVOE updated",93,1,1,52,"O 49","","",FALSE,"CV","p",531,"cv","O","9","v","v",TRUE,1
"CVOE updated",93,1,1,53,"U 32","","",TRUE,"CV","p",456,"cv","U","2","v","v",TRUE,1
"CVOE updated",93,1,1,54,"J 78","","",FALSE,"CV","q",522,"cv","J","8","c","c",TRUE,1
"CVOE updated",93,1,1,55,"S 54","","",FALSE,"CV","q",496,"cv","S","4","c","c",TRUE,1
"CVOE updated",93,1,1,56,"J 27","","",TRUE,"CV","q",448,"cv","J","7","c","c",TRUE,1
"CVOE updated",93,1,1,57,"S 06","","",FALSE,"CV","q",425,"cv","S","6","c","c",TRUE,1
"CVOE updated",93,1,1,58,"D 67","","",TRUE,"CV","q",875,"cv","D","7","c","c",TRUE,1
"CVOE updated",93,1,1,59,"A 79","","",FALSE,"CV","p",603,"cv","A","9","v","v",TRUE,1
"CVOE updated",93,1,1,60,"S 52","","",FALSE,"CV","q",559,"cv","S","2","c","c",TRUE,1
"CVOE updated",93,1,1,61,"U 16","","",TRUE,"CV","p",579,"cv","U","6","v","v",TRUE,1
"CVOE updated",93,1,1,62,"O 82","","",TRUE,"CV","p",519,"cv","O","2","v","v",TRUE,1
"CVOE updated",93,1,1,63,"H 87","","",TRUE,"CV","q",478,"cv","H","7","c","c",TRUE,1
"CVOE updated",93,1,1,64,"I 32","","",TRUE,"CV","p",494,"cv","I","2","v","v",TRUE,1
"CVOE updated",93,1,1,65,"U 37","","",FALSE,"CV","p",541,"cv","U","7","v","v",TRUE,1
"CVOE updated",93,1,1,66,"I 42","","",TRUE,"CV","p",468,"cv","I","2","v","v",TRUE,1
"CVOE updated",93,1,1,67,"D 65","","",TRUE,"CV","q",603,"cv","D","5","c","c",TRUE,1
"CVOE updated",93,1,1,68,"U 77","","",FALSE,"CV","p",447,"cv","U","7","v","v",TRUE,1
"CVOE updated",93,1,1,69,"E 12","","",TRUE,"CV","p",608,"cv","E","2","v","v",TRUE,1
"CVOE updated",93,1,1,70,"I 60","","",TRUE,"CV","p",507,"cv","I","0","v","v",TRUE,1
"CVOE updated",93,1,1,71,"J 36","","",FALSE,"CV","q",539,"cv","J","6","c","c",TRUE,1
"CVOE updated",93,1,1,72,"H 75","","",TRUE,"CV","q",536,"cv","H","5","c","c",TRUE,1
"CVOE updated",93,1,1,73,"I 50","","",TRUE,"CV","p",486,"cv","I","0","v","v",TRUE,1
"CVOE updated",93,1,1,74,"E 99","","",FALSE,"CV","p",526,"cv","E","9","v","v",TRUE,1
"CVOE updated",93,1,1,75,"A 86","","",TRUE,"CV","p",492,"cv","A","6","v","v",TRUE,1
"CVOE updated",93,1,1,76,"U 48","","",TRUE,"CV","p",412,"cv","U","8","v","v",TRUE,1
"CVOE updated",93,1,1,77,"E 01","","",FALSE,"CV","p",526,"cv","E","1","v","v",TRUE,1
"CVOE updated",93,1,1,78,"A 78","","",TRUE,"CV","p",436,"cv","A","8","v","v",TRUE,1
"CVOE updated",93,1,1,79,"P 60","","",FALSE,"CV","p",526,"cv","P","0","c","v",FALSE,0
"CVOE updated",93,1,1,80,"E 43","","",FALSE,"CV","p",636,"cv","E","3","v","v",TRUE,1
"CVOE updated",93,1,1,81,"D 69","","",TRUE,"CV","q",526,"cv","D","9","c","c",TRUE,1
"CVOE updated",93,1,1,82,"H 11","","",TRUE,"CV","q",468,"cv","H","1","c","c",TRUE,1
"CVOE updated",93,1,1,83,"P 43","","",TRUE,"CV","q",565,"cv","P","3","c","c",TRUE,1
"CVOE updated",93,1,1,84,"O 67","","",FALSE,"CV","p",441,"cv","O","7","v","v",TRUE,1
"CVOE updated",93,1,1,85,"S 91","","",FALSE,"CV","q",364,"cv","S","1","c","c",TRUE,1
"CVOE updated",93,1,1,86,"J 68","","",TRUE,"CV","q",439,"cv","J","8","c","c",TRUE,1
"CVOE updated",93,1,1,87,"S 47","","",FALSE,"CV","q",466,"cv","S","7","c","c",TRUE,1
"CVOE updated",93,1,1,88,"I 81","","",TRUE,"CV","p",442,"cv","I","1","v","v",TRUE,1
"CVOE updated",93,1,1,89,"J 39","","",FALSE,"CV","q",411,"cv","J","9","c","c",TRUE,1
"CVOE updated",93,1,1,90,"A 11","","",TRUE,"CV","p",510,"cv","A","1","v","v",TRUE,1
"CVOE updated",93,1,1,91,"O 76","","",FALSE,"CV","p",460,"cv","O","6","v","v",TRUE,1
"CVOE updated",93,1,1,92,"A 62","","",FALSE,"CV","p",453,"cv","A","2","v","v",TRUE,1
"CVOE updated",93,1,1,93,"O 27","","",TRUE,"CV","p",415,"cv","O","7","v","v",TRUE,1
"CVOE updated",93,1,1,94,"E 66","","",FALSE,"CV","q",450,"cv","E","6","v","c",FALSE,0
"CVOE updated",93,1,1,95,"J 62","","",TRUE,"CV","q",506,"cv","J","2","c","c",TRUE,1
"CVOE updated",93,1,1,96,"H 72","","",TRUE,"CV","q",530,"cv","H","2","c","c",TRUE,1
"CVOE updated",93,1,1,97,"E 49","","",TRUE,"CV","p",504,"cv","E","9","v","v",TRUE,1
"CVOE updated",93,1,1,98,"D 52","","",TRUE,"CV","q",463,"cv","D","2","c","c",TRUE,1
"CVOE updated",93,1,1,99,"H 62","","",TRUE,"CV","q",511,"cv","H","2","c","c",TRUE,1
"CVOE updated",93,1,1,100,"I 11","","",TRUE,"CV","p",534,"cv","I","1","v","v",TRUE,1
"CVOE updated",93,1,1,101,"A 98","","",FALSE,"CV","p",452,"cv","A","8","v","v",TRUE,1
"CVOE updated",93,1,1,102,"H 29","","",FALSE,"CV","q",461,"cv","H","9","c","c",TRUE,1
"CVOE updated",93,1,1,103,"E 83","","",TRUE,"CV","p",502,"cv","E","3","v","v",TRUE,1
"CVOE updated",93,1,1,104,"D 43","","",FALSE,"CV","q",501,"cv","D","3","c","c",TRUE,1
"CVOE updated",93,1,1,105,"P 45","","",TRUE,"CV","q",509,"cv","P","5","c","c",TRUE,1
"CVOE updated",93,1,1,106,"J 17","","",TRUE,"CV","q",595,"cv","J","7","c","c",TRUE,1
"CVOE updated",97,1,1,11,"A 71","","",FALSE,"CV","p",976,"cv","A","1","v","v",TRUE,1
"CVOE updated",97,1,1,12,"I 66","","",TRUE,"CV","p",389,"cv","I","6","v","v",TRUE,1
"CVOE updated",97,1,1,13,"S 30","","",FALSE,"CV","q",321,"cv","S","0","c","c",TRUE,1
"CVOE updated",97,1,1,14,"D 20","","",FALSE,"CV","q",655,"cv","D","0","c","c",TRUE,1
"CVOE updated",97,1,1,15,"I 31","","",FALSE,"CV","p",480,"cv","I","1","v","v",TRUE,1
"CVOE updated",97,1,1,16,"P 16","","",FALSE,"CV","q",431,"cv","P","6","c","c",TRUE,1
"CVOE updated",97,1,1,17,"A 49","","",FALSE,"CV","p",362,"cv","A","9","v","v",TRUE,1
"CVOE updated",97,1,1,18,"O 64","","",TRUE,"CV","p",487,"cv","O","4","v","v",TRUE,1
"CVOE updated",97,1,1,19,"D 02","","",FALSE,"CV","q",423,"cv","D","2","c","c",TRUE,1
"CVOE updated",97,1,1,20,"P 81","","",TRUE,"CV","q",441,"cv","P","1","c","c",TRUE,1
"CVOE updated",97,1,1,21,"J 58","","",FALSE,"CV","q",362,"cv","J","8","c","c",TRUE,1
"CVOE updated",97,1,1,22,"A 22","","",TRUE,"CV","p",312,"cv","A","2","v","v",TRUE,1
"CVOE updated",97,1,1,23,"J 72","","",FALSE,"CV","q",398,"cv","J","2","c","c",TRUE,1
"CVOE updated",97,1,1,24,"P 91","","",TRUE,"CV","q",441,"cv","P","1","c","c",TRUE,1
"CVOE updated",97,1,1,25,"E 19","","",FALSE,"CV","p",428,"cv","E","9","v","v",TRUE,1
"CVOE updated",97,1,1,26,"I 30","","",TRUE,"CV","p",414,"cv","I","0","v","v",TRUE,1
"CVOE updated",97,1,1,27,"D 91","","",TRUE,"CV","q",320,"cv","D","1","c","c",TRUE,1
"CVOE updated",97,1,1,28,"O 48","","",TRUE,"CV","p",406,"cv","O","8","v","v",TRUE,1
"CVOE updated",97,1,1,29,"A 89","","",FALSE,"CV","p",394,"cv","A","9","v","v",TRUE,1
"CVOE updated",97,1,1,30,"U 11","","",FALSE,"CV","p",437,"cv","U","1","v","v",TRUE,1
"CVOE updated",97,1,1,31,"I 76","","",TRUE,"CV","p",399,"cv","I","6","v","v",TRUE,1
"CVOE updated",97,1,1,32,"U 89","","",FALSE,"CV","p",362,"cv","U","9","v","v",TRUE,1
"CVOE updated",97,1,1,33,"D 63","","",TRUE,"CV","q",359,"cv","D","3","c","c",TRUE,1
"CVOE updated",97,1,1,34,"H 70","","",FALSE,"CV","q",357,"cv","H","0","c","c",TRUE,1
"CVOE updated",97,1,1,35,"D 48","","",FALSE,"CV","q",442,"cv","D","8","c","c",TRUE,1
"CVOE updated",97,1,1,36,"P 56","","",FALSE,"CV","q",436,"cv","P","6","c","c",TRUE,1
"CVOE updated",97,1,1,37,"O 77","","",FALSE,"CV","p",333,"cv","O","7","v","v",TRUE,1
"CVOE updated",97,1,1,38,"P 42","","",FALSE,"CV","q",396,"cv","P","2","c","c",TRUE,1
"CVOE updated",97,1,1,39,"H 22","","",FALSE,"CV","q",415,"cv","H","2","c","c",TRUE,1
"CVOE updated",97,1,1,40,"E 42","","",TRUE,"CV","p",417,"cv","E","2","v","v",TRUE,1
"CVOE updated",97,1,1,41,"J 28","","",FALSE,"CV","q",332,"cv","J","8","c","c",TRUE,1
"CVOE updated",97,1,1,42,"E 95","","",FALSE,"CV","p",402,"cv","E","5","v","v",TRUE,1
"CVOE updated",97,1,1,43,"S 63","","",TRUE,"CV","q",317,"cv","S","3","c","c",TRUE,1
"CVOE updated",97,1,1,44,"H 50","","",FALSE,"CV","q",436,"cv","H","0","c","c",TRUE,1
"CVOE updated",97,1,1,45,"S 33","","",TRUE,"CV","q",342,"cv","S","3","c","c",TRUE,1
"CVOE updated",97,1,1,46,"P 57","","",TRUE,"CV","p",684,"cv","P","7","c","v",FALSE,0
"CVOE updated",97,1,1,47,"E 23","","",FALSE,"CV","p",732,"cv","E","3","v","v",TRUE,1
"CVOE updated",97,1,1,48,"S 61","","",TRUE,"CV","q",434,"cv","S","1","c","c",TRUE,1
"CVOE updated",97,1,1,49,"U 67","","",FALSE,"CV","p",595,"cv","U","7","v","v",TRUE,1
"CVOE updated",97,1,1,50,"H 32","","",FALSE,"CV","q",327,"cv","H","2","c","c",TRUE,1
"CVOE updated",97,1,1,51,"U 50","","",TRUE,"CV","p",421,"cv","U","0","v","v",TRUE,1
"CVOE updated",97,1,1,52,"O 49","","",FALSE,"CV","p",327,"cv","O","9","v","v",TRUE,1
"CVOE updated",97,1,1,53,"U 32","","",TRUE,"CV","p",373,"cv","U","2","v","v",TRUE,1
"CVOE updated",97,1,1,54,"J 78","","",FALSE,"CV","q",378,"cv","J","8","c","c",TRUE,1
"CVOE updated",97,1,1,55,"S 54","","",FALSE,"CV","p",414,"cv","S","4","c","v",FALSE,0
"CVOE updated",97,1,1,56,"J 27","","",TRUE,"CV","q",752,"cv","J","7","c","c",TRUE,1
"CVOE updated",97,1,1,57,"S 06","","",FALSE,"CV","q",398,"cv","S","6","c","c",TRUE,1
"CVOE updated",97,1,1,58,"D 67","","",TRUE,"CV","q",313,"cv","D","7","c","c",TRUE,1
"CVOE updated",97,1,1,59,"A 79","","",FALSE,"CV","p",336,"cv","A","9","v","v",TRUE,1
"CVOE updated",97,1,1,60,"S 52","","",FALSE,"CV","q",438,"cv","S","2","c","c",TRUE,1
"CVOE updated",97,1,1,61,"U 16","","",TRUE,"CV","p",687,"cv","U","6","v","v",TRUE,1
"CVOE updated",97,1,1,62,"O 82","","",TRUE,"CV","p",391,"cv","O","2","v","v",TRUE,1
"CVOE updated",97,1,1,63,"H 87","","",TRUE,"CV","q",467,"cv","H","7","c","c",TRUE,1
"CVOE updated",97,1,1,64,"I 32","","",TRUE,"CV","p",612,"cv","I","2","v","v",TRUE,1
"CVOE updated",97,1,1,65,"U 37","","",FALSE,"CV","p",439,"cv","U","7","v","v",TRUE,1
"CVOE updated",97,1,1,66,"I 42","","",TRUE,"CV","p",400,"cv","I","2","v","v",TRUE,1
"CVOE updated",97,1,1,67,"D 65","","",TRUE,"CV","q",420,"cv","D","5","c","c",TRUE,1
"CVOE updated",97,1,1,68,"U 77","","",FALSE,"CV","p",454,"cv","U","7","v","v",TRUE,1
"CVOE updated",97,1,1,69,"E 12","","",TRUE,"CV","p",824,"cv","E","2","v","v",TRUE,1
"CVOE updated",97,1,1,70,"I 60","","",TRUE,"CV","p",490,"cv","I","0","v","v",TRUE,1
"CVOE updated",97,1,1,71,"J 36","","",FALSE,"CV","q",434,"cv","J","6","c","c",TRUE,1
"CVOE updated",97,1,1,72,"H 75","","",TRUE,"CV","q",452,"cv","H","5","c","c",TRUE,1
"CVOE updated",97,1,1,73,"I 50","","",TRUE,"CV","p",397,"cv","I","0","v","v",TRUE,1
"CVOE updated",97,1,1,74,"E 99","","",FALSE,"CV","p",481,"cv","E","9","v","v",TRUE,1
"CVOE updated",97,1,1,75,"A 86","","",TRUE,"CV","p",496,"cv","A","6","v","v",TRUE,1
"CVOE updated",97,1,1,76,"U 48","","",TRUE,"CV","p",424,"cv","U","8","v","v",TRUE,1
"CVOE updated",97,1,1,77,"E 01","","",FALSE,"CV","p",354,"cv","E","1","v","v",TRUE,1
"CVOE updated",97,1,1,78,"A 78","","",TRUE,"CV","p",368,"cv","A","8","v","v",TRUE,1
"CVOE updated",97,1,1,79,"P 60","","",FALSE,"CV","q",364,"cv","P","0","c","c",TRUE,1
"CVOE updated",97,1,1,80,"E 43","","",FALSE,"CV","p",409,"cv","E","3","v","v",TRUE,1
"CVOE updated",97,1,1,81,"D 69","","",TRUE,"CV","q",436,"cv","D","9","c","c",TRUE,1
"CVOE updated",97,1,1,82,"H 11","","",TRUE,"CV","q",438,"cv","H","1","c","c",TRUE,1
"CVOE updated",97,1,1,83,"P 43","","",TRUE,"CV","q",336,"cv","P","3","c","c",TRUE,1
"CVOE updated",97,1,1,84,"O 67","","",FALSE,"CV","p",334,"cv","O","7","v","v",TRUE,1
"CVOE updated",97,1,1,85,"S 91","","",FALSE,"CV","p",388,"cv","S","1","c","v",FALSE,0
"CVOE updated",97,1,1,86,"J 68","","",TRUE,"CV","q",760,"cv","J","8","c","c",TRUE,1
"CVOE updated",97,1,1,87,"S 47","","",FALSE,"CV","q",484,"cv","S","7","c","c",TRUE,1
"CVOE updated",97,1,1,88,"I 81","","",TRUE,"CV","p",500,"cv","I","1","v","v",TRUE,1
"CVOE updated",97,1,1,89,"J 39","","",FALSE,"CV","q",428,"cv","J","9","c","c",TRUE,1
"CVOE updated",97,1,1,90,"A 11","","",TRUE,"CV","p",406,"cv","A","1","v","v",TRUE,1
"CVOE updated",97,1,1,91,"O 76","","",FALSE,"CV","p",473,"cv","O","6","v","v",TRUE,1
"CVOE updated",97,1,1,92,"A 62","","",FALSE,"CV","p",377,"cv","A","2","v","v",TRUE,1
"CVOE updated",97,1,1,93,"O 27","","",TRUE,"CV","p",341,"cv","O","7","v","v",TRUE,1
"CVOE updated",97,1,1,94,"E 66","","",FALSE,"CV","p",363,"cv","E","6","v","v",TRUE,1
"CVOE updated",97,1,1,95,"J 62","","",TRUE,"CV","q",408,"cv","J","2","c","c",TRUE,1
"CVOE updated",97,1,1,96,"H 72","","",TRUE,"CV","q",651,"cv","H","2","c","c",TRUE,1
"CVOE updated",97,1,1,97,"E 49","","",TRUE,"CV","p",372,"cv","E","9","v","v",TRUE,1
"CVOE updated",97,1,1,98,"D 52","","",TRUE,"CV","q",377,"cv","D","2","c","c",TRUE,1
"CVOE updated",97,1,1,99,"H 62","","",TRUE,"CV","q",525,"cv","H","2","c","c",TRUE,1
"CVOE updated",97,1,1,100,"I 11","","",TRUE,"CV","p",404,"cv","I","1","v","v",TRUE,1
"CVOE updated",97,1,1,101,"A 98","","",FALSE,"CV","p",439,"cv","A","8","v","v",TRUE,1
"CVOE updated",97,1,1,102,"H 29","","",FALSE,"CV","q",657,"cv","H","9","c","c",TRUE,1
"CVOE updated",97,1,1,103,"E 83","","",TRUE,"CV","p",474,"cv","E","3","v","v",TRUE,1
"CVOE updated",97,1,1,104,"D 43","","",FALSE,"CV","q",475,"cv","D","3","c","c",TRUE,1
"CVOE updated",97,1,1,105,"P 45","","",TRUE,"CV","q",499,"cv","P","5","c","c",TRUE,1
"CVOE updated",97,1,1,106,"J 17","","",TRUE,"CV","q",506,"cv","J","7","c","c",TRUE,1
"CVOE_B",102,1,2,11,"A 71","","",FALSE,"CV","p",1700,"cv","A","1","v","v",TRUE,1
"CVOE_B",102,1,2,12,"I 66","","",TRUE,"CV","p",651,"cv","I","6","v","v",TRUE,1
"CVOE_B",102,1,2,13,"S 30","","",FALSE,"CV","q",541,"cv","S","0","c","c",TRUE,1
"CVOE_B",102,1,2,14,"D 20","","",FALSE,"CV","q",507,"cv","D","0","c","c",TRUE,1
"CVOE_B",102,1,2,15,"I 31","","",FALSE,"CV","p",530,"cv","I","1","v","v",TRUE,1
"CVOE_B",102,1,2,16,"P 16","","",FALSE,"CV","q",424,"cv","P","6","c","c",TRUE,1
"CVOE_B",102,1,2,17,"A 49","","",FALSE,"CV","p",930,"cv","A","9","v","v",TRUE,1
"CVOE_B",102,1,2,18,"O 64","","",TRUE,"CV","p",960,"cv","O","4","v","v",TRUE,1
"CVOE_B",102,1,2,19,"D 02","","",FALSE,"CV","q",565,"cv","D","2","c","c",TRUE,1
"CVOE_B",102,1,2,20,"P 81","","",TRUE,"CV","q",625,"cv","P","1","c","c",TRUE,1
"CVOE_B",102,1,2,21,"J 58","","",FALSE,"CV","q",540,"cv","J","8","c","c",TRUE,1
"CVOE_B",102,1,2,22,"A 22","","",TRUE,"CV","p",554,"cv","A","2","v","v",TRUE,1
"CVOE_B",102,1,2,23,"J 72","","",FALSE,"CV","q",463,"cv","J","2","c","c",TRUE,1
"CVOE_B",102,1,2,24,"P 91","","",TRUE,"CV","q",680,"cv","P","1","c","c",TRUE,1
"CVOE_B",102,1,2,25,"E 19","","",FALSE,"CV","p",416,"cv","E","9","v","v",TRUE,1
"CVOE_B",102,1,2,26,"I 30","","",TRUE,"CV","p",386,"cv","I","0","v","v",TRUE,1
"CVOE_B",102,1,2,27,"D 91","","",TRUE,"CV","q",398,"cv","D","1","c","c",TRUE,1
"CVOE_B",102,1,2,28,"O 48","","",TRUE,"CV","p",650,"cv","O","8","v","v",TRUE,1
"CVOE_B",102,1,2,29,"A 89","","",FALSE,"CV","q",555,"cv","A","9","v","c",FALSE,0
"CVOE_B",102,1,2,30,"U 11","","",FALSE,"CV","p",1480,"cv","U","1","v","v",TRUE,1
"CVOE_B",102,1,2,31,"I 76","","",TRUE,"CV","p",864,"cv","I","6","v","v",TRUE,1
"CVOE_B",102,1,2,32,"U 89","","",FALSE,"CV","p",648,"cv","U","9","v","v",TRUE,1
"CVOE_B",102,1,2,33,"D 63","","",TRUE,"CV","q",546,"cv","D","3","c","c",TRUE,1
"CVOE_B",102,1,2,34,"H 70","","",FALSE,"CV","q",1039,"cv","H","0","c","c",TRUE,1
"CVOE_B",102,1,2,35,"D 48","","",FALSE,"CV","q",1169,"cv","D","8","c","c",TRUE,1
"CVOE_B",102,1,2,36,"P 56","","",FALSE,"CV","q",405,"cv","P","6","c","c",TRUE,1
"CVOE_B",102,1,2,37,"O 77","","",FALSE,"CV","p",425,"cv","O","7","v","v",TRUE,1
"CVOE_B",102,1,2,38,"P 42","","",FALSE,"CV","q",395,"cv","P","2","c","c",TRUE,1
"CVOE_B",102,1,2,39,"H 22","","",FALSE,"CV","q",447,"cv","H","2","c","c",TRUE,1
"CVOE_B",102,1,2,40,"E 42","","",TRUE,"CV","p",352,"cv","E","2","v","v",TRUE,1
"CVOE_B",102,1,2,41,"J 28","","",FALSE,"CV","q",421,"cv","J","8","c","c",TRUE,1
"CVOE_B",102,1,2,42,"E 95","","",FALSE,"CV","p",456,"cv","E","5","v","v",TRUE,1
"CVOE_B",102,1,2,43,"S 63","","",TRUE,"CV","q",457,"cv","S","3","c","c",TRUE,1
"CVOE_B",102,1,2,44,"H 50","","",FALSE,"CV","q",490,"cv","H","0","c","c",TRUE,1
"CVOE_B",102,1,2,45,"S 33","","",TRUE,"CV","q",410,"cv","S","3","c","c",TRUE,1
"CVOE_B",102,1,2,46,"P 57","","",TRUE,"CV","q",389,"cv","P","7","c","c",TRUE,1
"CVOE_B",102,1,2,47,"E 23","","",FALSE,"CV","p",417,"cv","E","3","v","v",TRUE,1
"CVOE_B",102,1,2,48,"S 61","","",TRUE,"CV","q",307,"cv","S","1","c","c",TRUE,1
"CVOE_B",102,1,2,49,"U 67","","",FALSE,"CV","q",499,"cv","U","7","v","c",FALSE,0
"CVOE_B",102,1,2,50,"H 32","","",FALSE,"CV","q",762,"cv","H","2","c","c",TRUE,1
"CVOE_B",102,1,2,51,"U 50","","",TRUE,"CV","p",702,"cv","U","0","v","v",TRUE,1
"CVOE_B",102,1,2,52,"O 49","","",FALSE,"CV","p",598,"cv","O","9","v","v",TRUE,1
"CVOE_B",102,1,2,53,"U 32","","",TRUE,"CV","p",441,"cv","U","2","v","v",TRUE,1
"CVOE_B",102,1,2,54,"J 78","","",FALSE,"CV","q",451,"cv","J","8","c","c",TRUE,1
"CVOE_B",102,1,2,55,"S 54","","",FALSE,"CV","q",476,"cv","S","4","c","c",TRUE,1
"CVOE_B",102,1,2,56,"J 27","","",TRUE,"CV","q",500,"cv","J","7","c","c",TRUE,1
"CVOE_B",102,1,2,57,"S 06","","",FALSE,"CV","q",531,"cv","S","6","c","c",TRUE,1
"CVOE_B",102,1,2,58,"D 67","","",TRUE,"CV","q",409,"cv","D","7","c","c",TRUE,1
"CVOE_B",102,1,2,59,"A 79","","",FALSE,"CV","p",516,"cv","A","9","v","v",TRUE,1
"CVOE_B",102,1,2,60,"S 52","","",FALSE,"CV","q",507,"cv","S","2","c","c",TRUE,1
"CVOE_B",102,1,2,61,"U 16","","",TRUE,"CV","p",482,"cv","U","6","v","v",TRUE,1
"CVOE_B",102,1,2,62,"O 82","","",TRUE,"CV","p",498,"cv","O","2","v","v",TRUE,1
"CVOE_B",102,1,2,63,"H 87","","",TRUE,"CV","q",433,"cv","H","7","c","c",TRUE,1
"CVOE_B",102,1,2,64,"I 32","","",TRUE,"CV","p",403,"cv","I","2","v","v",TRUE,1
"CVOE_B",102,1,2,65,"U 37","","",FALSE,"CV","p",502,"cv","U","7","v","v",TRUE,1
"CVOE_B",102,1,2,66,"I 42","","",TRUE,"CV","p",549,"cv","I","2","v","v",TRUE,1
"CVOE_B",102,1,2,67,"D 65","","",TRUE,"CV","q",379,"cv","D","5","c","c",TRUE,1
"CVOE_B",102,1,2,68,"U 77","","",FALSE,"CV","p",383,"cv","U","7","v","v",TRUE,1
"CVOE_B",102,1,2,69,"E 12","","",TRUE,"CV","p",331,"cv","E","2","v","v",TRUE,1
"CVOE_B",102,1,2,70,"I 60","","",TRUE,"CV","p",297,"cv","I","0","v","v",TRUE,1
"CVOE_B",102,1,2,71,"J 36","","",FALSE,"CV","q",344,"cv","J","6","c","c",TRUE,1
"CVOE_B",102,1,2,72,"H 75","","",TRUE,"CV","q",581,"cv","H","5","c","c",TRUE,1
"CVOE_B",102,1,2,73,"I 50","","",TRUE,"CV","p",489,"cv","I","0","v","v",TRUE,1
"CVOE_B",102,1,2,74,"E 99","","",FALSE,"CV","p",417,"cv","E","9","v","v",TRUE,1
"CVOE_B",102,1,2,75,"A 86","","",TRUE,"CV","p",444,"cv","A","6","v","v",TRUE,1
"CVOE_B",102,1,2,76,"U 48","","",TRUE,"CV","p",469,"cv","U","8","v","v",TRUE,1
"CVOE_B",102,1,2,77,"E 01","","",FALSE,"CV","p",389,"cv","E","1","v","v",TRUE,1
"CVOE_B",102,1,2,78,"A 78","","",TRUE,"CV","p",321,"cv","A","8","v","v",TRUE,1
"CVOE_B",102,1,2,79,"P 60","","",FALSE,"CV","q",376,"cv","P","0","c","c",TRUE,1
"CVOE_B",102,1,2,80,"E 43","","",FALSE,"CV","q",500,"cv","E","3","v","c",FALSE,0
"CVOE_B",102,1,2,81,"D 69","","",TRUE,"CV","p",675,"cv","D","9","c","v",FALSE,0
"CVOE_B",102,1,2,82,"H 11","","",TRUE,"CV","q",1548,"cv","H","1","c","c",TRUE,1
"CVOE_B",102,1,2,83,"P 43","","",TRUE,"CV","q",561,"cv","P","3","c","c",TRUE,1
"CVOE_B",102,1,2,84,"O 67","","",FALSE,"CV","p",542,"cv","O","7","v","v",TRUE,1
"CVOE_B",102,1,2,85,"S 91","","",FALSE,"CV","q",843,"cv","S","1","c","c",TRUE,1
"CVOE_B",102,1,2,86,"J 68","","",TRUE,"CV","q",957,"cv","J","8","c","c",TRUE,1
"CVOE_B",102,1,2,87,"S 47","","",FALSE,"CV","q",850,"cv","S","7","c","c",TRUE,1
"CVOE_B",102,1,2,88,"I 81","","",TRUE,"CV","p",339,"cv","I","1","v","v",TRUE,1
"CVOE_B",102,1,2,89,"J 39","","",FALSE,"CV","q",441,"cv","J","9","c","c",TRUE,1
"CVOE_B",102,1,2,90,"A 11","","",TRUE,"CV","p",491,"cv","A","1","v","v",TRUE,1
"CVOE_B",102,1,2,91,"O 76","","",FALSE,"CV","p",651,"cv","O","6","v","v",TRUE,1
"CVOE_B",102,1,2,92,"A 62","","",FALSE,"CV","p",340,"cv","A","2","v","v",TRUE,1
"CVOE_B",102,1,2,93,"O 27","","",TRUE,"CV","p",394,"cv","O","7","v","v",TRUE,1
"CVOE_B",102,1,2,94,"E 66","","",FALSE,"CV","p",325,"cv","E","6","v","v",TRUE,1
"CVOE_B",102,1,2,95,"J 62","","",TRUE,"CV","q",500,"cv","J","2","c","c",TRUE,1
"CVOE_B",102,1,2,96,"H 72","","",TRUE,"CV","q",1019,"cv","H","2","c","c",TRUE,1
"CVOE_B",102,1,2,97,"E 49","","",TRUE,"CV","p",1614,"cv","E","9","v","v",TRUE,1
"CVOE_B",102,1,2,98,"D 52","","",TRUE,"CV","q",768,"cv","D","2","c","c",TRUE,1
"CVOE_B",102,1,2,99,"H 62","","",TRUE,"CV","q",365,"cv","H","2","c","c",TRUE,1
"CVOE_B",102,1,2,100,"I 11","","",TRUE,"CV","p",426,"cv","I","1","v","v",TRUE,1
"CVOE_B",102,1,2,101,"A 98","","",FALSE,"CV","p",372,"cv","A","8","v","v",TRUE,1
"CVOE_B",102,1,2,102,"H 29","","",FALSE,"CV","q",432,"cv","H","9","c","c",TRUE,1
"CVOE_B",102,1,2,103,"E 83","","",TRUE,"CV","p",314,"cv","E","3","v","v",TRUE,1
"CVOE_B",102,1,2,104,"D 43","","",FALSE,"CV","q",433,"cv","D","3","c","c",TRUE,1
"CVOE_B",102,1,2,105,"P 45","","",TRUE,"CV","q",427,"cv","P","5","c","c",TRUE,1
"CVOE_B",102,1,2,106,"J 17","","",TRUE,"CV","q",596,"cv","J","7","c","c",TRUE,1
"CVOE_B",86,1,2,11,"A 71","","",FALSE,"CV","p",1381,"cv","A","1","v","v",TRUE,1
"CVOE_B",86,1,2,12,"I 66","","",TRUE,"CV","p",697,"cv","I","6","v","v",TRUE,1
"CVOE_B",86,1,2,13,"S 30","","",FALSE,"CV","q",729,"cv","S","0","c","c",TRUE,1
"CVOE_B",86,1,2,14,"D 20","","",FALSE,"CV","q",1246,"cv","D","0","c","c",TRUE,1
"CVOE_B",86,1,2,15,"I 31","","",FALSE,"CV","p",768,"cv","I","1","v","v",TRUE,1
"CVOE_B",86,1,2,16,"P 16","","",FALSE,"CV","q",708,"cv","P","6","c","c",TRUE,1
"CVOE_B",86,1,2,17,"A 49","","",FALSE,"CV","p",668,"cv","A","9","v","v",TRUE,1
"CVOE_B",86,1,2,18,"O 64","","",TRUE,"CV","p",564,"cv","O","4","v","v",TRUE,1
"CVOE_B",86,1,2,19,"D 02","","",FALSE,"CV","q",633,"cv","D","2","c","c",TRUE,1
"CVOE_B",86,1,2,20,"P 81","","",TRUE,"CV","q",1027,"cv","P","1","c","c",TRUE,1
"CVOE_B",86,1,2,21,"J 58","","",FALSE,"CV","q",645,"cv","J","8","c","c",TRUE,1
"CVOE_B",86,1,2,22,"A 22","","",TRUE,"CV","p",526,"cv","A","2","v","v",TRUE,1
"CVOE_B",86,1,2,23,"J 72","","",FALSE,"CV","q",532,"cv","J","2","c","c",TRUE,1
"CVOE_B",86,1,2,24,"P 91","","",TRUE,"CV","q",890,"cv","P","1","c","c",TRUE,1
"CVOE_B",86,1,2,25,"E 19","","",FALSE,"CV","p",1002,"cv","E","9","v","v",TRUE,1
"CVOE_B",86,1,2,26,"I 30","","",TRUE,"CV","p",461,"cv","I","0","v","v",TRUE,1
"CVOE_B",86,1,2,27,"D 91","","",TRUE,"CV","q",566,"cv","D","1","c","c",TRUE,1
"CVOE_B",86,1,2,28,"O 48","","",TRUE,"CV","p",531,"cv","O","8","v","v",TRUE,1
"CVOE_B",86,1,2,29,"A 89","","",FALSE,"CV","p",529,"cv","A","9","v","v",TRUE,1
"CVOE_B",86,1,2,30,"U 11","","",FALSE,"CV","p",631,"cv","U","1","v","v",TRUE,1
"CVOE_B",86,1,2,31,"I 76","","",TRUE,"CV","p",632,"cv","I","6","v","v",TRUE,1
"CVOE_B",86,1,2,32,"U 89","","",FALSE,"CV","p",466,"cv","U","9","v","v",TRUE,1
"CVOE_B",86,1,2,33,"D 63","","",TRUE,"CV","q",595,"cv","D","3","c","c",TRUE,1
"CVOE_B",86,1,2,34,"H 70","","",FALSE,"CV","q",494,"cv","H","0","c","c",TRUE,1
"CVOE_B",86,1,2,35,"D 48","","",FALSE,"CV","q",469,"cv","D","8","c","c",TRUE,1
"CVOE_B",86,1,2,36,"P 56","","",FALSE,"CV","q",526,"cv","P","6","c","c",TRUE,1
"CVOE_B",86,1,2,37,"O 77","","",FALSE,"CV","p",549,"cv","O","7","v","v",TRUE,1
"CVOE_B",86,1,2,38,"P 42","","",FALSE,"CV","p",698,"cv","P","2","c","v",FALSE,0
"CVOE_B",86,1,2,39,"H 22","","",FALSE,"CV","q",1513,"cv","H","2","c","c",TRUE,1
"CVOE_B",86,1,2,40,"E 42","","",TRUE,"CV","p",1296,"cv","E","2","v","v",TRUE,1
"CVOE_B",86,1,2,41,"J 28","","",FALSE,"CV","q",727,"cv","J","8","c","c",TRUE,1
"CVOE_B",86,1,2,42,"E 95","","",FALSE,"CV","p",669,"cv","E","5","v","v",TRUE,1
"CVOE_B",86,1,2,43,"S 63","","",TRUE,"CV","q",1253,"cv","S","3","c","c",TRUE,1
"CVOE_B",86,1,2,44,"H 50","","",FALSE,"CV","q",735,"cv","H","0","c","c",TRUE,1
"CVOE_B",86,1,2,45,"S 33","","",TRUE,"CV","q",605,"cv","S","3","c","c",TRUE,1
"CVOE_B",86,1,2,46,"P 57","","",TRUE,"CV","q",984,"cv","P","7","c","c",TRUE,1
"CVOE_B",86,1,2,47,"E 23","","",FALSE,"CV","p",924,"cv","E","3","v","v",TRUE,1
"CVOE_B",86,1,2,48,"S 61","","",TRUE,"CV","q",706,"cv","S","1","c","c",TRUE,1
"CVOE_B",86,1,2,49,"U 67","","",FALSE,"CV","p",594,"cv","U","7","v","v",TRUE,1
"CVOE_B",86,1,2,50,"H 32","","",FALSE,"CV","q",893,"cv","H","2","c","c",TRUE,1
"CVOE_B",86,1,2,51,"U 50","","",TRUE,"CV","p",837,"cv","U","0","v","v",TRUE,1
"CVOE_B",86,1,2,52,"O 49","","",FALSE,"CV","p",623,"cv","O","9","v","v",TRUE,1
"CVOE_B",86,1,2,53,"U 32","","",TRUE,"CV","p",561,"cv","U","2","v","v",TRUE,1
"CVOE_B",86,1,2,54,"J 78","","",FALSE,"CV","q",630,"cv","J","8","c","c",TRUE,1
"CVOE_B",86,1,2,55,"S 54","","",FALSE,"CV","q",1128,"cv","S","4","c","c",TRUE,1
"CVOE_B",86,1,2,56,"J 27","","",TRUE,"CV","q",702,"cv","J","7","c","c",TRUE,1
"CVOE_B",86,1,2,57,"S 06","","",FALSE,"CV","q",821,"cv","S","6","c","c",TRUE,1
"CVOE_B",86,1,2,58,"D 67","","",TRUE,"CV","q",743,"cv","D","7","c","c",TRUE,1
"CVOE_B",86,1,2,59,"A 79","","",FALSE,"CV","p",1045,"cv","A","9","v","v",TRUE,1
"CVOE_B",86,1,2,60,"S 52","","",FALSE,"CV","q",926,"cv","S","2","c","c",TRUE,1
"CVOE_B",86,1,2,61,"U 16","","",TRUE,"CV","p",541,"cv","U","6","v","v",TRUE,1
"CVOE_B",86,1,2,62,"O 82","","",TRUE,"CV","p",522,"cv","O","2","v","v",TRUE,1
"CVOE_B",86,1,2,63,"H 87","","",TRUE,"CV","q",665,"cv","H","7","c","c",TRUE,1
"CVOE_B",86,1,2,64,"I 32","","",TRUE,"CV","p",570,"cv","I","2","v","v",TRUE,1
"CVOE_B",86,1,2,65,"U 37","","",FALSE,"CV","p",526,"cv","U","7","v","v",TRUE,1
"CVOE_B",86,1,2,66,"I 42","","",TRUE,"CV","p",629,"cv","I","2","v","v",TRUE,1
"CVOE_B",86,1,2,67,"D 65","","",TRUE,"CV","q",543,"cv","D","5","c","c",TRUE,1
"CVOE_B",86,1,2,68,"U 77","","",FALSE,"CV","p",461,"cv","U","7","v","v",TRUE,1
"CVOE_B",86,1,2,69,"E 12","","",TRUE,"CV","p",541,"cv","E","2","v","v",TRUE,1
"CVOE_B",86,1,2,70,"I 60","","",TRUE,"CV","p",515,"cv","I","0","v","v",TRUE,1
"CVOE_B",86,1,2,71,"J 36","","",FALSE,"CV","q",522,"cv","J","6","c","c",TRUE,1
"CVOE_B",86,1,2,72,"H 75","","",TRUE,"CV","q",560,"cv","H","5","c","c",TRUE,1
"CVOE_B",86,1,2,73,"I 50","","",TRUE,"CV","p",477,"cv","I","0","v","v",TRUE,1
"CVOE_B",86,1,2,74,"E 99","","",FALSE,"CV","p",565,"cv","E","9","v","v",TRUE,1
"CVOE_B",86,1,2,75,"A 86","","",TRUE,"CV","p",570,"cv","A","6","v","v",TRUE,1
"CVOE_B",86,1,2,76,"U 48","","",TRUE,"CV","p",510,"cv","U","8","v","v",TRUE,1
"CVOE_B",86,1,2,77,"E 01","","",FALSE,"CV","p",501,"cv","E","1","v","v",TRUE,1
"CVOE_B",86,1,2,78,"A 78","","",TRUE,"CV","p",388,"cv","A","8","v","v",TRUE,1
"CVOE_B",86,1,2,79,"P 60","","",FALSE,"CV","q",520,"cv","P","0","c","c",TRUE,1
"CVOE_B",86,1,2,80,"E 43","","",FALSE,"CV","p",519,"cv","E","3","v","v",TRUE,1
"CVOE_B",86,1,2,81,"D 69","","",TRUE,"CV","q",581,"cv","D","9","c","c",TRUE,1
"CVOE_B",86,1,2,82,"H 11","","",TRUE,"CV","q",897,"cv","H","1","c","c",TRUE,1
"CVOE_B",86,1,2,83,"P 43","","",TRUE,"CV","q",816,"cv","P","3","c","c",TRUE,1
"CVOE_B",86,1,2,84,"O 67","","",FALSE,"CV","p",507,"cv","O","7","v","v",TRUE,1
"CVOE_B",86,1,2,85,"S 91","","",FALSE,"CV","q",602,"cv","S","1","c","c",TRUE,1
"CVOE_B",86,1,2,86,"J 68","","",TRUE,"CV","q",501,"cv","J","8","c","c",TRUE,1
"CVOE_B",86,1,2,87,"S 47","","",FALSE,"CV","q",477,"cv","S","7","c","c",TRUE,1
"CVOE_B",86,1,2,88,"I 81","","",TRUE,"CV","p",397,"cv","I","1","v","v",TRUE,1
"CVOE_B",86,1,2,89,"J 39","","",FALSE,"CV","q",640,"cv","J","9","c","c",TRUE,1
"CVOE_B",86,1,2,90,"A 11","","",TRUE,"CV","p",594,"cv","A","1","v","v",TRUE,1
"CVOE_B",86,1,2,91,"O 76","","",FALSE,"CV","p",477,"cv","O","6","v","v",TRUE,1
"CVOE_B",86,1,2,92,"A 62","","",FALSE,"CV","p",421,"cv","A","2","v","v",TRUE,1
"CVOE_B",86,1,2,93,"O 27","","",TRUE,"CV","p",528,"cv","O","7","v","v",TRUE,1
"CVOE_B",86,1,2,94,"E 66","","",FALSE,"CV","p",438,"cv","E","6","v","v",TRUE,1
"CVOE_B",86,1,2,95,"J 62","","",TRUE,"CV","p",383,"cv","J","2","c","v",FALSE,0
"CVOE_B",86,1,2,96,"H 72","","",TRUE,"CV","q",755,"cv","H","2","c","c",TRUE,1
"CVOE_B",86,1,2,97,"E 49","","",TRUE,"CV","p",777,"cv","E","9","v","v",TRUE,1
"CVOE_B",86,1,2,98,"D 52","","",TRUE,"CV","q",661,"cv","D","2","c","c",TRUE,1
"CVOE_B",86,1,2,99,"H 62","","",TRUE,"CV","q",814,"cv","H","2","c","c",TRUE,1
"CVOE_B",86,1,2,100,"I 11","","",TRUE,"CV","p",512,"cv","I","1","v","v",TRUE,1
"CVOE_B",86,1,2,101,"A 98","","",FALSE,"CV","p",599,"cv","A","8","v","v",TRUE,1
"CVOE_B",86,1,2,102,"H 29","","",FALSE,"CV","q",562,"cv","H","9","c","c",TRUE,1
"CVOE_B",86,1,2,103,"E 83","","",TRUE,"CV","p",583,"cv","E","3","v","v",TRUE,1
"CVOE_B",86,1,2,104,"D 43","","",FALSE,"CV","q",683,"cv","D","3","c","c",TRUE,1
"CVOE_B",86,1,2,105,"P 45","","",TRUE,"CV","q",467,"cv","P","5","c","c",TRUE,1
"CVOE_B",86,1,2,106,"J 17","","",TRUE,"CV","q",531,"cv","J","7","c","c",TRUE,1
"CVOE_B",94,1,2,11,"A 71","","",FALSE,"CV","p",1865,"cv","A","1","v","v",TRUE,1
"CVOE_B",94,1,2,12,"I 66","","",TRUE,"CV","p",1082,"cv","I","6","v","v",TRUE,1
"CVOE_B",94,1,2,13,"S 30","","",FALSE,"CV","q",1114,"cv","S","0","c","c",TRUE,1
"CVOE_B",94,1,2,14,"D 20","","",FALSE,"CV","q",696,"cv","D","0","c","c",TRUE,1
"CVOE_B",94,1,2,15,"I 31","","",FALSE,"CV","p",656,"cv","I","1","v","v",TRUE,1
"CVOE_B",94,1,2,16,"P 16","","",FALSE,"CV","q",617,"cv","P","6","c","c",TRUE,1
"CVOE_B",94,1,2,17,"A 49","","",FALSE,"CV","p",699,"cv","A","9","v","v",TRUE,1
"CVOE_B",94,1,2,18,"O 64","","",TRUE,"CV","p",827,"cv","O","4","v","v",TRUE,1
"CVOE_B",94,1,2,19,"D 02","","",FALSE,"CV","q",557,"cv","D","2","c","c",TRUE,1
"CVOE_B",94,1,2,20,"P 81","","",TRUE,"CV","q",546,"cv","P","1","c","c",TRUE,1
"CVOE_B",94,1,2,21,"J 58","","",FALSE,"CV","q",471,"cv","J","8","c","c",TRUE,1
"CVOE_B",94,1,2,22,"A 22","","",TRUE,"CV","p",760,"cv","A","2","v","v",TRUE,1
"CVOE_B",94,1,2,23,"J 72","","",FALSE,"CV","q",1188,"cv","J","2","c","c",TRUE,1
"CVOE_B",94,1,2,24,"P 91","","",TRUE,"CV","q",728,"cv","P","1","c","c",TRUE,1
"CVOE_B",94,1,2,25,"E 19","","",FALSE,"CV","p",878,"cv","E","9","v","v",TRUE,1
"CVOE_B",94,1,2,26,"I 30","","",TRUE,"CV","p",471,"cv","I","0","v","v",TRUE,1
"CVOE_B",94,1,2,27,"D 91","","",TRUE,"CV","q",567,"cv","D","1","c","c",TRUE,1
"CVOE_B",94,1,2,28,"O 48","","",TRUE,"CV","p",355,"cv","O","8","v","v",TRUE,1
"CVOE_B",94,1,2,29,"A 89","","",FALSE,"CV","p",545,"cv","A","9","v","v",TRUE,1
"CVOE_B",94,1,2,30,"U 11","","",FALSE,"CV","p",758,"cv","U","1","v","v",TRUE,1
"CVOE_B",94,1,2,31,"I 76","","",TRUE,"CV","p",507,"cv","I","6","v","v",TRUE,1
"CVOE_B",94,1,2,32,"U 89","","",FALSE,"CV","p",538,"cv","U","9","v","v",TRUE,1
"CVOE_B",94,1,2,33,"D 63","","",TRUE,"CV","q",424,"cv","D","3","c","c",TRUE,1
"CVOE_B",94,1,2,34,"H 70","","",FALSE,"CV","q",707,"cv","H","0","c","c",TRUE,1
"CVOE_B",94,1,2,35,"D 48","","",FALSE,"CV","p",458,"cv","D","8","c","v",FALSE,0
"CVOE_B",94,1,2,36,"P 56","","",FALSE,"CV","q",1339,"cv","P","6","c","c",TRUE,1
"CVOE_B",94,1,2,37,"O 77","","",FALSE,"CV","p",1161,"cv","O","7","v","v",TRUE,1
"CVOE_B",94,1,2,38,"P 42","","",FALSE,"CV","q",822,"cv","P","2","c","c",TRUE,1
"CVOE_B",94,1,2,39,"H 22","","",FALSE,"CV","q",1152,"cv","H","2","c","c",TRUE,1
"CVOE_B",94,1,2,40,"E 42","","",TRUE,"CV","q",806,"cv","E","2","v","c",FALSE,0
"CVOE_B",94,1,2,41,"J 28","","",FALSE,"CV","q",3457,"cv","J","8","c","c",TRUE,1
"CVOE_B",94,1,2,42,"E 95","","",FALSE,"CV","p",978,"cv","E","5","v","v",TRUE,1
"CVOE_B",94,1,2,43,"S 63","","",TRUE,"CV","q",966,"cv","S","3","c","c",TRUE,1
"CVOE_B",94,1,2,44,"H 50","","",FALSE,"CV","q",1266,"cv","H","0","c","c",TRUE,1
"CVOE_B",94,1,2,45,"S 33","","",TRUE,"CV","q",1411,"cv","S","3","c","c",TRUE,1
"CVOE_B",94,1,2,46,"P 57","","",TRUE,"CV","q",741,"cv","P","7","c","c",TRUE,1
"CVOE_B",94,1,2,47,"E 23","","",FALSE,"CV","p",1091,"cv","E","3","v","v",TRUE,1
"CVOE_B",94,1,2,48,"S 61","","",TRUE,"CV","q",827,"cv","S","1","c","c",TRUE,1
"CVOE_B",94,1,2,49,"U 67","","",FALSE,"CV","p",1037,"cv","U","7","v","v",TRUE,1
"CVOE_B",94,1,2,50,"H 32","","",FALSE,"CV","q",967,"cv","H","2","c","c",TRUE,1
"CVOE_B",94,1,2,51,"U 50","","",TRUE,"CV","p",1108,"cv","U","0","v","v",TRUE,1
"CVOE_B",94,1,2,52,"O 49","","",FALSE,"CV","p",979,"cv","O","9","v","v",TRUE,1
"CVOE_B",94,1,2,53,"U 32","","",TRUE,"CV","p",855,"cv","U","2","v","v",TRUE,1
"CVOE_B",94,1,2,54,"J 78","","",FALSE,"CV","q",784,"cv","J","8","c","c",TRUE,1
"CVOE_B",94,1,2,55,"S 54","","",FALSE,"CV","q",852,"cv","S","4","c","c",TRUE,1
"CVOE_B",94,1,2,56,"J 27","","",TRUE,"CV","q",789,"cv","J","7","c","c",TRUE,1
"CVOE_B",94,1,2,57,"S 06","","",FALSE,"CV","q",793,"cv","S","6","c","c",TRUE,1
"CVOE_B",94,1,2,58,"D 67","","",TRUE,"CV","q",732,"cv","D","7","c","c",TRUE,1
"CVOE_B",94,1,2,59,"A 79","","",FALSE,"CV","p",954,"cv","A","9","v","v",TRUE,1
"CVOE_B",94,1,2,60,"S 52","","",FALSE,"CV","q",704,"cv","S","2","c","c",TRUE,1
"CVOE_B",94,1,2,61,"U 16","","",TRUE,"CV","p",967,"cv","U","6","v","v",TRUE,1
"CVOE_B",94,1,2,62,"O 82","","",TRUE,"CV","p",939,"cv","O","2","v","v",TRUE,1
"CVOE_B",94,1,2,63,"H 87","","",TRUE,"CV","q",801,"cv","H","7","c","c",TRUE,1
"CVOE_B",94,1,2,64,"I 32","","",TRUE,"CV","p",900,"cv","I","2","v","v",TRUE,1
"CVOE_B",94,1,2,65,"U 37","","",FALSE,"CV","p",772,"cv","U","7","v","v",TRUE,1
"CVOE_B",94,1,2,66,"I 42","","",TRUE,"CV","p",792,"cv","I","2","v","v",TRUE,1
"CVOE_B",94,1,2,67,"D 65","","",TRUE,"CV","q",779,"cv","D","5","c","c",TRUE,1
"CVOE_B",94,1,2,68,"U 77","","",FALSE,"CV","p",759,"cv","U","7","v","v",TRUE,1
"CVOE_B",94,1,2,69,"E 12","","",TRUE,"CV","p",692,"cv","E","2","v","v",TRUE,1
"CVOE_B",94,1,2,70,"I 60","","",TRUE,"CV","p",572,"cv","I","0","v","v",TRUE,1
"CVOE_B",94,1,2,71,"J 36","","",FALSE,"CV","q",760,"cv","J","6","c","c",TRUE,1
"CVOE_B",94,1,2,72,"H 75","","",TRUE,"CV","q",797,"cv","H","5","c","c",TRUE,1
"CVOE_B",94,1,2,73,"I 50","","",TRUE,"CV","p",920,"cv","I","0","v","v",TRUE,1
"CVOE_B",94,1,2,74,"E 99","","",FALSE,"CV","p",3023,"cv","E","9","v","v",TRUE,1
"CVOE_B",94,1,2,75,"A 86","","",TRUE,"CV","p",1713,"cv","A","6","v","v",TRUE,1
"CVOE_B",94,1,2,76,"U 48","","",TRUE,"CV","p",768,"cv","U","8","v","v",TRUE,1
"CVOE_B",94,1,2,77,"E 01","","",FALSE,"CV","p",412,"cv","E","1","v","v",TRUE,1
"CVOE_B",94,1,2,78,"A 78","","",TRUE,"CV","p",415,"cv","A","8","v","v",TRUE,1
"CVOE_B",94,1,2,79,"P 60","","",FALSE,"CV","q",850,"cv","P","0","c","c",TRUE,1
"CVOE_B",94,1,2,80,"E 43","","",FALSE,"CV","p",915,"cv","E","3","v","v",TRUE,1
"CVOE_B",94,1,2,81,"D 69","","",TRUE,"CV","q",641,"cv","D","9","c","c",TRUE,1
"CVOE_B",94,1,2,82,"H 11","","",TRUE,"CV","q",763,"cv","H","1","c","c",TRUE,1
"CVOE_B",94,1,2,83,"P 43","","",TRUE,"CV","q",696,"cv","P","3","c","c",TRUE,1
"CVOE_B",94,1,2,84,"O 67","","",FALSE,"CV","p",871,"cv","O","7","v","v",TRUE,1
"CVOE_B",94,1,2,85,"S 91","","",FALSE,"CV","q",1792,"cv","S","1","c","c",TRUE,1
"CVOE_B",94,1,2,86,"J 68","","",TRUE,"CV","q",827,"cv","J","8","c","c",TRUE,1
"CVOE_B",94,1,2,87,"S 47","","",FALSE,"CV","q",757,"cv","S","7","c","c",TRUE,1
"CVOE_B",94,1,2,88,"I 81","","",TRUE,"CV","p",803,"cv","I","1","v","v",TRUE,1
"CVOE_B",94,1,2,89,"J 39","","",FALSE,"CV","q",934,"cv","J","9","c","c",TRUE,1
"CVOE_B",94,1,2,90,"A 11","","",TRUE,"CV","p",956,"cv","A","1","v","v",TRUE,1
"CVOE_B",94,1,2,91,"O 76","","",FALSE,"CV","p",945,"cv","O","6","v","v",TRUE,1
"CVOE_B",94,1,2,92,"A 62","","",FALSE,"CV","p",606,"cv","A","2","v","v",TRUE,1
"CVOE_B",94,1,2,93,"O 27","","",TRUE,"CV","p",529,"cv","O","7","v","v",TRUE,1
"CVOE_B",94,1,2,94,"E 66","","",FALSE,"CV","p",567,"cv","E","6","v","v",TRUE,1
"CVOE_B",94,1,2,95,"J 62","","",TRUE,"CV","q",972,"cv","J","2","c","c",TRUE,1
"CVOE_B",94,1,2,96,"H 72","","",TRUE,"CV","q",465,"cv","H","2","c","c",TRUE,1
"CVOE_B",94,1,2,97,"E 49","","",TRUE,"CV","p",913,"cv","E","9","v","v",TRUE,1
"CVOE_B",94,1,2,98,"D 52","","",TRUE,"CV","q",768,"cv","D","2","c","c",TRUE,1
"CVOE_B",94,1,2,99,"H 62","","",TRUE,"CV","q",700,"cv","H","2","c","c",TRUE,1
"CVOE_B",94,1,2,100,"I 11","","",TRUE,"CV","p",852,"cv","I","1","v","v",TRUE,1
"CVOE_B",94,1,2,101,"A 98","","",FALSE,"CV","p",717,"cv","A","8","v","v",TRUE,1
"CVOE_B",94,1,2,102,"H 29","","",FALSE,"CV","q",723,"cv","H","9","c","c",TRUE,1
"CVOE_B",94,1,2,103,"E 83","","",TRUE,"CV","p",738,"cv","E","3","v","v",TRUE,1
"CVOE_B",94,1,2,104,"D 43","","",FALSE,"CV","q",1856,"cv","D","3","c","c",TRUE,1
"CVOE_B",94,1,2,105,"P 45","","",TRUE,"CV","q",1033,"cv","P","5","c","c",TRUE,1
"CVOE_B",94,1,2,106,"J 17","","",TRUE,"CV","q",491,"cv","J","7","c","c",TRUE,1
"CVOE_B",98,1,2,11,"A 71","","",FALSE,"CV","p",1191,"cv","A","1","v","v",TRUE,1
"CVOE_B",98,1,2,12,"I 66","","",TRUE,"CV","p",627,"cv","I","6","v","v",TRUE,1
"CVOE_B",98,1,2,13,"S 30","","",FALSE,"CV","q",605,"cv","S","0","c","c",TRUE,1
"CVOE_B",98,1,2,14,"D 20","","",FALSE,"CV","q",743,"cv","D","0","c","c",TRUE,1
"CVOE_B",98,1,2,15,"I 31","","",FALSE,"CV","p",518,"cv","I","1","v","v",TRUE,1
"CVOE_B",98,1,2,16,"P 16","","",FALSE,"CV","q",692,"cv","P","6","c","c",TRUE,1
"CVOE_B",98,1,2,17,"A 49","","",FALSE,"CV","p",572,"cv","A","9","v","v",TRUE,1
"CVOE_B",98,1,2,18,"O 64","","",TRUE,"CV","p",600,"cv","O","4","v","v",TRUE,1
"CVOE_B",98,1,2,19,"D 02","","",FALSE,"CV","q",548,"cv","D","2","c","c",TRUE,1
"CVOE_B",98,1,2,20,"P 81","","",TRUE,"CV","q",848,"cv","P","1","c","c",TRUE,1
"CVOE_B",98,1,2,21,"J 58","","",FALSE,"CV","q",857,"cv","J","8","c","c",TRUE,1
"CVOE_B",98,1,2,22,"A 22","","",TRUE,"CV","p",587,"cv","A","2","v","v",TRUE,1
"CVOE_B",98,1,2,23,"J 72","","",FALSE,"CV","q",624,"cv","J","2","c","c",TRUE,1
"CVOE_B",98,1,2,24,"P 91","","",TRUE,"CV","q",554,"cv","P","1","c","c",TRUE,1
"CVOE_B",98,1,2,25,"E 19","","",FALSE,"CV","p",558,"cv","E","9","v","v",TRUE,1
"CVOE_B",98,1,2,26,"I 30","","",TRUE,"CV","p",660,"cv","I","0","v","v",TRUE,1
"CVOE_B",98,1,2,27,"D 91","","",TRUE,"CV","q",589,"cv","D","1","c","c",TRUE,1
"CVOE_B",98,1,2,28,"O 48","","",TRUE,"CV","p",681,"cv","O","8","v","v",TRUE,1
"CVOE_B",98,1,2,29,"A 89","","",FALSE,"CV","p",536,"cv","A","9","v","v",TRUE,1
"CVOE_B",98,1,2,30,"U 11","","",FALSE,"CV","p",646,"cv","U","1","v","v",TRUE,1
"CVOE_B",98,1,2,31,"I 76","","",TRUE,"CV","p",544,"cv","I","6","v","v",TRUE,1
"CVOE_B",98,1,2,32,"U 89","","",FALSE,"CV","p",508,"cv","U","9","v","v",TRUE,1
"CVOE_B",98,1,2,33,"D 63","","",TRUE,"CV","q",548,"cv","D","3","c","c",TRUE,1
"CVOE_B",98,1,2,34,"H 70","","",FALSE,"CV","q",553,"cv","H","0","c","c",TRUE,1
"CVOE_B",98,1,2,35,"D 48","","",FALSE,"CV","q",551,"cv","D","8","c","c",TRUE,1
"CVOE_B",98,1,2,36,"P 56","","",FALSE,"CV","q",716,"cv","P","6","c","c",TRUE,1
"CVOE_B",98,1,2,37,"O 77","","",FALSE,"CV","p",555,"cv","O","7","v","v",TRUE,1
"CVOE_B",98,1,2,38,"P 42","","",FALSE,"CV","q",776,"cv","P","2","c","c",TRUE,1
"CVOE_B",98,1,2,39,"H 22","","",FALSE,"CV","q",812,"cv","H","2","c","c",TRUE,1
"CVOE_B",98,1,2,40,"E 42","","",TRUE,"CV","p",551,"cv","E","2","v","v",TRUE,1
"CVOE_B",98,1,2,41,"J 28","","",FALSE,"CV","q",532,"cv","J","8","c","c",TRUE,1
"CVOE_B",98,1,2,42,"E 95","","",FALSE,"CV","p",562,"cv","E","5","v","v",TRUE,1
"CVOE_B",98,1,2,43,"S 63","","",TRUE,"CV","q",551,"cv","S","3","c","c",TRUE,1
"CVOE_B",98,1,2,44,"H 50","","",FALSE,"CV","q",572,"cv","H","0","c","c",TRUE,1
"CVOE_B",98,1,2,45,"S 33","","",TRUE,"CV","q",561,"cv","S","3","c","c",TRUE,1
"CVOE_B",98,1,2,46,"P 57","","",TRUE,"CV","q",661,"cv","P","7","c","c",TRUE,1
"CVOE_B",98,1,2,47,"E 23","","",FALSE,"CV","p",558,"cv","E","3","v","v",TRUE,1
"CVOE_B",98,1,2,48,"S 61","","",TRUE,"CV","q",667,"cv","S","1","c","c",TRUE,1
"CVOE_B",98,1,2,49,"U 67","","",FALSE,"CV","p",555,"cv","U","7","v","v",TRUE,1
"CVOE_B",98,1,2,50,"H 32","","",FALSE,"CV","q",849,"cv","H","2","c","c",TRUE,1
"CVOE_B",98,1,2,51,"U 50","","",TRUE,"CV","p",634,"cv","U","0","v","v",TRUE,1
"CVOE_B",98,1,2,52,"O 49","","",FALSE,"CV","p",628,"cv","O","9","v","v",TRUE,1
"CVOE_B",98,1,2,53,"U 32","","",TRUE,"CV","p",622,"cv","U","2","v","v",TRUE,1
"CVOE_B",98,1,2,54,"J 78","","",FALSE,"CV","q",529,"cv","J","8","c","c",TRUE,1
"CVOE_B",98,1,2,55,"S 54","","",FALSE,"CV","q",870,"cv","S","4","c","c",TRUE,1
"CVOE_B",98,1,2,56,"J 27","","",TRUE,"CV","q",703,"cv","J","7","c","c",TRUE,1
"CVOE_B",98,1,2,57,"S 06","","",FALSE,"CV","q",430,"cv","S","6","c","c",TRUE,1
"CVOE_B",98,1,2,58,"D 67","","",TRUE,"CV","p",512,"cv","D","7","c","v",FALSE,0
"CVOE_B",98,1,2,59,"A 79","","",FALSE,"CV","p",1167,"cv","A","9","v","v",TRUE,1
"CVOE_B",98,1,2,60,"S 52","","",FALSE,"CV","q",507,"cv","S","2","c","c",TRUE,1
"CVOE_B",98,1,2,61,"U 16","","",TRUE,"CV","p",819,"cv","U","6","v","v",TRUE,1
"CVOE_B",98,1,2,62,"O 82","","",TRUE,"CV","p",717,"cv","O","2","v","v",TRUE,1
"CVOE_B",98,1,2,63,"H 87","","",TRUE,"CV","q",636,"cv","H","7","c","c",TRUE,1
"CVOE_B",98,1,2,64,"I 32","","",TRUE,"CV","p",622,"cv","I","2","v","v",TRUE,1
"CVOE_B",98,1,2,65,"U 37","","",FALSE,"CV","p",1063,"cv","U","7","v","v",TRUE,1
"CVOE_B",98,1,2,66,"I 42","","",TRUE,"CV","p",529,"cv","I","2","v","v",TRUE,1
"CVOE_B",98,1,2,67,"D 65","","",TRUE,"CV","q",567,"cv","D","5","c","c",TRUE,1
"CVOE_B",98,1,2,68,"U 77","","",FALSE,"CV","p",683,"cv","U","7","v","v",TRUE,1
"CVOE_B",98,1,2,69,"E 12","","",TRUE,"CV","p",779,"cv","E","2","v","v",TRUE,1
"CVOE_B",98,1,2,70,"I 60","","",TRUE,"CV","p",567,"cv","I","0","v","v",TRUE,1
"CVOE_B",98,1,2,71,"J 36","","",FALSE,"CV","q",572,"cv","J","6","c","c",TRUE,1
"CVOE_B",98,1,2,72,"H 75","","",TRUE,"CV","q",656,"cv","H","5","c","c",TRUE,1
"CVOE_B",98,1,2,73,"I 50","","",TRUE,"CV","p",530,"cv","I","0","v","v",TRUE,1
"CVOE_B",98,1,2,74,"E 99","","",FALSE,"CV","p",552,"cv","E","9","v","v",TRUE,1
"CVOE_B",98,1,2,75,"A 86","","",TRUE,"CV","p",613,"cv","A","6","v","v",TRUE,1
"CVOE_B",98,1,2,76,"U 48","","",TRUE,"CV","p",584,"cv","U","8","v","v",TRUE,1
"CVOE_B",98,1,2,77,"E 01","","",FALSE,"CV","p",523,"cv","E","1","v","v",TRUE,1
"CVOE_B",98,1,2,78,"A 78","","",TRUE,"CV","p",522,"cv","A","8","v","v",TRUE,1
"CVOE_B",98,1,2,79,"P 60","","",FALSE,"CV","q",609,"cv","P","0","c","c",TRUE,1
"CVOE_B",98,1,2,80,"E 43","","",FALSE,"CV","p",660,"cv","E","3","v","v",TRUE,1
"CVOE_B",98,1,2,81,"D 69","","",TRUE,"CV","q",660,"cv","D","9","c","c",TRUE,1
"CVOE_B",98,1,2,82,"H 11","","",TRUE,"CV","q",621,"cv","H","1","c","c",TRUE,1
"CVOE_B",98,1,2,83,"P 43","","",TRUE,"CV","p",728,"cv","P","3","c","v",FALSE,0
"CVOE_B",98,1,2,84,"O 67","","",FALSE,"CV","p",622,"cv","O","7","v","v",TRUE,1
"CVOE_B",98,1,2,85,"S 91","","",FALSE,"CV","q",704,"cv","S","1","c","c",TRUE,1
"CVOE_B",98,1,2,86,"J 68","","",TRUE,"CV","q",903,"cv","J","8","c","c",TRUE,1
"CVOE_B",98,1,2,87,"S 47","","",FALSE,"CV","q",599,"cv","S","7","c","c",TRUE,1
"CVOE_B",98,1,2,88,"I 81","","",TRUE,"CV","p",554,"cv","I","1","v","v",TRUE,1
"CVOE_B",98,1,2,89,"J 39","","",FALSE,"CV","q",655,"cv","J","9","c","c",TRUE,1
"CVOE_B",98,1,2,90,"A 11","","",TRUE,"CV","p",552,"cv","A","1","v","v",TRUE,1
"CVOE_B",98,1,2,91,"O 76","","",FALSE,"CV","p",798,"cv","O","6","v","v",TRUE,1
"CVOE_B",98,1,2,92,"A 62","","",FALSE,"CV","p",497,"cv","A","2","v","v",TRUE,1
"CVOE_B",98,1,2,93,"O 27","","",TRUE,"CV","p",480,"cv","O","7","v","v",TRUE,1
"CVOE_B",98,1,2,94,"E 66","","",FALSE,"CV","p",504,"cv","E","6","v","v",TRUE,1
"CVOE_B",98,1,2,95,"J 62","","",TRUE,"CV","q",655,"cv","J","2","c","c",TRUE,1
"CVOE_B",98,1,2,96,"H 72","","",TRUE,"CV","q",569,"cv","H","2","c","c",TRUE,1
"CVOE_B",98,1,2,97,"E 49","","",TRUE,"CV","p",477,"cv","E","9","v","v",TRUE,1
"CVOE_B",98,1,2,98,"D 52","","",TRUE,"CV","q",901,"cv","D","2","c","c",TRUE,1
"CVOE_B",98,1,2,99,"H 62","","",TRUE,"CV","q",572,"cv","H","2","c","c",TRUE,1
"CVOE_B",98,1,2,100,"I 11","","",TRUE,"CV","p",785,"cv","I","1","v","v",TRUE,1
"CVOE_B",98,1,2,101,"A 98","","",FALSE,"CV","p",541,"cv","A","8","v","v",TRUE,1
"CVOE_B",98,1,2,102,"H 29","","",FALSE,"CV","q",611,"cv","H","9","c","c",TRUE,1
"CVOE_B",98,1,2,103,"E 83","","",TRUE,"CV","p",653,"cv","E","3","v","v",TRUE,1
"CVOE_B",98,1,2,104,"D 43","","",FALSE,"CV","q",679,"cv","D","3","c","c",TRUE,1
"CVOE_B",98,1,2,105,"P 45","","",TRUE,"CV","q",567,"cv","P","5","c","c",TRUE,1
"CVOE_B",98,1,2,106,"J 17","","",TRUE,"CV","p",571,"cv","J","7","c","v",FALSE,0
"CVOE_C",87,1,2,11,"A 71","","",FALSE,"CV","p",2435,"cv","A","1","v","v",TRUE,1
"CVOE_C",87,1,2,12,"I 66","","",TRUE,"CV","p",781,"cv","I","6","v","v",TRUE,1
"CVOE_C",87,1,2,13,"S 30","","",FALSE,"CV","q",617,"cv","S","0","c","c",TRUE,1
"CVOE_C",87,1,2,14,"D 20","","",FALSE,"CV","q",635,"cv","D","0","c","c",TRUE,1
"CVOE_C",87,1,2,15,"I 31","","",FALSE,"CV","p",661,"cv","I","1","v","v",TRUE,1
"CVOE_C",87,1,2,16,"P 16","","",FALSE,"CV","q",798,"cv","P","6","c","c",TRUE,1
"CVOE_C",87,1,2,17,"A 49","","",FALSE,"CV","p",657,"cv","A","9","v","v",TRUE,1
"CVOE_C",87,1,2,18,"O 64","","",TRUE,"CV","p",658,"cv","O","4","v","v",TRUE,1
"CVOE_C",87,1,2,19,"D 02","","",FALSE,"CV","q",492,"cv","D","2","c","c",TRUE,1
"CVOE_C",87,1,2,20,"P 81","","",TRUE,"CV","q",548,"cv","P","1","c","c",TRUE,1
"CVOE_C",87,1,2,21,"J 58","","",FALSE,"CV","q",609,"cv","J","8","c","c",TRUE,1
"CVOE_C",87,1,2,22,"A 22","","",TRUE,"CV","p",540,"cv","A","2","v","v",TRUE,1
"CVOE_C",87,1,2,23,"J 72","","",FALSE,"CV","q",690,"cv","J","2","c","c",TRUE,1
"CVOE_C",87,1,2,24,"P 91","","",TRUE,"CV","q",546,"cv","P","1","c","c",TRUE,1
"CVOE_C",87,1,2,25,"E 19","","",FALSE,"CV","p",567,"cv","E","9","v","v",TRUE,1
"CVOE_C",87,1,2,26,"I 30","","",TRUE,"CV","p",524,"cv","I","0","v","v",TRUE,1
"CVOE_C",87,1,2,27,"D 91","","",TRUE,"CV","q",490,"cv","D","1","c","c",TRUE,1
"CVOE_C",87,1,2,28,"O 48","","",TRUE,"CV","p",610,"cv","O","8","v","v",TRUE,1
"CVOE_C",87,1,2,29,"A 89","","",FALSE,"CV","p",653,"cv","A","9","v","v",TRUE,1
"CVOE_C",87,1,2,30,"U 11","","",FALSE,"CV","p",646,"cv","U","1","v","v",TRUE,1
"CVOE_C",87,1,2,31,"I 76","","",TRUE,"CV","p",703,"cv","I","6","v","v",TRUE,1
"CVOE_C",87,1,2,32,"U 89","","",FALSE,"CV","p",615,"cv","U","9","v","v",TRUE,1
"CVOE_C",87,1,2,33,"D 63","","",TRUE,"CV","q",473,"cv","D","3","c","c",TRUE,1
"CVOE_C",87,1,2,34,"H 70","","",FALSE,"CV","q",634,"cv","H","0","c","c",TRUE,1
"CVOE_C",87,1,2,35,"D 48","","",FALSE,"CV","q",636,"cv","D","8","c","c",TRUE,1
"CVOE_C",87,1,2,36,"P 56","","",FALSE,"CV","q",518,"cv","P","6","c","c",TRUE,1
"CVOE_C",87,1,2,37,"O 77","","",FALSE,"CV","p",556,"cv","O","7","v","v",TRUE,1
"CVOE_C",87,1,2,38,"P 42","","",FALSE,"CV","q",602,"cv","P","2","c","c",TRUE,1
"CVOE_C",87,1,2,39,"H 22","","",FALSE,"CV","q",541,"cv","H","2","c","c",TRUE,1
"CVOE_C",87,1,2,40,"E 42","","",TRUE,"CV","p",507,"cv","E","2","v","v",TRUE,1
"CVOE_C",87,1,2,41,"J 28","","",FALSE,"CV","q",586,"cv","J","8","c","c",TRUE,1
"CVOE_C",87,1,2,42,"E 95","","",FALSE,"CV","p",566,"cv","E","5","v","v",TRUE,1
"CVOE_C",87,1,2,43,"S 63","","",TRUE,"CV","q",587,"cv","S","3","c","c",TRUE,1
"CVOE_C",87,1,2,44,"H 50","","",FALSE,"CV","q",663,"cv","H","0","c","c",TRUE,1
"CVOE_C",87,1,2,45,"S 33","","",TRUE,"CV","q",471,"cv","S","3","c","c",TRUE,1
"CVOE_C",87,1,2,46,"P 57","","",TRUE,"CV","q",520,"cv","P","7","c","c",TRUE,1
"CVOE_C",87,1,2,47,"E 23","","",FALSE,"CV","p",518,"cv","E","3","v","v",TRUE,1
"CVOE_C",87,1,2,48,"S 61","","",TRUE,"CV","q",581,"cv","S","1","c","c",TRUE,1
"CVOE_C",87,1,2,49,"U 67","","",FALSE,"CV","p",513,"cv","U","7","v","v",TRUE,1
"CVOE_C",87,1,2,50,"H 32","","",FALSE,"CV","q",647,"cv","H","2","c","c",TRUE,1
"CVOE_C",87,1,2,51,"U 50","","",TRUE,"CV","p",617,"cv","U","0","v","v",TRUE,1
"CVOE_C",87,1,2,52,"O 49","","",FALSE,"CV","p",579,"cv","O","9","v","v",TRUE,1
"CVOE_C",87,1,2,53,"U 32","","",TRUE,"CV","p",663,"cv","U","2","v","v",TRUE,1
"CVOE_C",87,1,2,54,"J 78","","",FALSE,"CV","q",616,"cv","J","8","c","c",TRUE,1
"CVOE_C",87,1,2,55,"S 54","","",FALSE,"CV","q",474,"cv","S","4","c","c",TRUE,1
"CVOE_C",87,1,2,56,"J 27","","",TRUE,"CV","q",635,"cv","J","7","c","c",TRUE,1
"CVOE_C",87,1,2,57,"S 06","","",FALSE,"CV","q",509,"cv","S","6","c","c",TRUE,1
"CVOE_C",87,1,2,58,"D 67","","",TRUE,"CV","q",780,"cv","D","7","c","c",TRUE,1
"CVOE_C",87,1,2,59,"A 79","","",FALSE,"CV","p",504,"cv","A","9","v","v",TRUE,1
"CVOE_C",87,1,2,60,"S 52","","",FALSE,"CV","q",527,"cv","S","2","c","c",TRUE,1
"CVOE_C",87,1,2,61,"U 16","","",TRUE,"CV","p",533,"cv","U","6","v","v",TRUE,1
"CVOE_C",87,1,2,62,"O 82","","",TRUE,"CV","p",523,"cv","O","2","v","v",TRUE,1
"CVOE_C",87,1,2,63,"H 87","","",TRUE,"CV","q",514,"cv","H","7","c","c",TRUE,1
"CVOE_C",87,1,2,64,"I 32","","",TRUE,"CV","p",592,"cv","I","2","v","v",TRUE,1
"CVOE_C",87,1,2,65,"U 37","","",FALSE,"CV","p",508,"cv","U","7","v","v",TRUE,1
"CVOE_C",87,1,2,66,"I 42","","",TRUE,"CV","p",828,"cv","I","2","v","v",TRUE,1
"CVOE_C",87,1,2,67,"D 65","","",TRUE,"CV","q",510,"cv","D","5","c","c",TRUE,1
"CVOE_C",87,1,2,68,"U 77","","",FALSE,"CV","p",653,"cv","U","7","v","v",TRUE,1
"CVOE_C",87,1,2,69,"E 12","","",TRUE,"CV","p",1286,"cv","E","2","v","v",TRUE,1
"CVOE_C",87,1,2,70,"I 60","","",TRUE,"CV","p",766,"cv","I","0","v","v",TRUE,1
"CVOE_C",87,1,2,71,"J 36","","",FALSE,"CV","q",619,"cv","J","6","c","c",TRUE,1
"CVOE_C",87,1,2,72,"H 75","","",TRUE,"CV","q",621,"cv","H","5","c","c",TRUE,1
"CVOE_C",87,1,2,73,"I 50","","",TRUE,"CV","p",576,"cv","I","0","v","v",TRUE,1
"CVOE_C",87,1,2,74,"E 99","","",FALSE,"CV","p",564,"cv","E","9","v","v",TRUE,1
"CVOE_C",87,1,2,75,"A 86","","",TRUE,"CV","p",553,"cv","A","6","v","v",TRUE,1
"CVOE_C",87,1,2,76,"U 48","","",TRUE,"CV","p",598,"cv","U","8","v","v",TRUE,1
"CVOE_C",87,1,2,77,"E 01","","",FALSE,"CV","p",497,"cv","E","1","v","v",TRUE,1
"CVOE_C",87,1,2,78,"A 78","","",TRUE,"CV","p",545,"cv","A","8","v","v",TRUE,1
"CVOE_C",87,1,2,79,"P 60","","",FALSE,"CV","q",510,"cv","P","0","c","c",TRUE,1
"CVOE_C",87,1,2,80,"E 43","","",FALSE,"CV","p",605,"cv","E","3","v","v",TRUE,1
"CVOE_C",87,1,2,81,"D 69","","",TRUE,"CV","q",504,"cv","D","9","c","c",TRUE,1
"CVOE_C",87,1,2,82,"H 11","","",TRUE,"CV","q",560,"cv","H","1","c","c",TRUE,1
"CVOE_C",87,1,2,83,"P 43","","",TRUE,"CV","q",605,"cv","P","3","c","c",TRUE,1
"CVOE_C",87,1,2,84,"O 67","","",FALSE,"CV","p",520,"cv","O","7","v","v",TRUE,1
"CVOE_C",87,1,2,85,"S 91","","",FALSE,"CV","q",519,"cv","S","1","c","c",TRUE,1
"CVOE_C",87,1,2,86,"J 68","","",TRUE,"CV","q",645,"cv","J","8","c","c",TRUE,1
"CVOE_C",87,1,2,87,"S 47","","",FALSE,"CV","q",695,"cv","S","7","c","c",TRUE,1
"CVOE_C",87,1,2,88,"I 81","","",TRUE,"CV","p",566,"cv","I","1","v","v",TRUE,1
"CVOE_C",87,1,2,89,"J 39","","",FALSE,"CV","q",571,"cv","J","9","c","c",TRUE,1
"CVOE_C",87,1,2,90,"A 11","","",TRUE,"CV","p",559,"cv","A","1","v","v",TRUE,1
"CVOE_C",87,1,2,91,"O 76","","",FALSE,"CV","p",572,"cv","O","6","v","v",TRUE,1
"CVOE_C",87,1,2,92,"A 62","","",FALSE,"CV","p",433,"cv","A","2","v","v",TRUE,1
"CVOE_C",87,1,2,93,"O 27","","",TRUE,"CV","p",499,"cv","O","7","v","v",TRUE,1
"CVOE_C",87,1,2,94,"E 66","","",FALSE,"CV","p",650,"cv","E","6","v","v",TRUE,1
"CVOE_C",87,1,2,95,"J 62","","",TRUE,"CV","q",451,"cv","J","2","c","c",TRUE,1
"CVOE_C",87,1,2,96,"H 72","","",TRUE,"CV","q",421,"cv","H","2","c","c",TRUE,1
"CVOE_C",87,1,2,97,"E 49","","",TRUE,"CV","p",567,"cv","E","9","v","v",TRUE,1
"CVOE_C",87,1,2,98,"D 52","","",TRUE,"CV","q",612,"cv","D","2","c","c",TRUE,1
"CVOE_C",87,1,2,99,"H 62","","",TRUE,"CV","q",543,"cv","H","2","c","c",TRUE,1
"CVOE_C",87,1,2,100,"I 11","","",TRUE,"CV","p",676,"cv","I","1","v","v",TRUE,1
"CVOE_C",87,1,2,101,"A 98","","",FALSE,"CV","p",581,"cv","A","8","v","v",TRUE,1
"CVOE_C",87,1,2,102,"H 29","","",FALSE,"CV","q",545,"cv","H","9","c","c",TRUE,1
"CVOE_C",87,1,2,103,"E 83","","",TRUE,"CV","p",918,"cv","E","3","v","v",TRUE,1
"CVOE_C",87,1,2,104,"D 43","","",FALSE,"CV","q",501,"cv","D","3","c","c",TRUE,1
"CVOE_C",87,1,2,105,"P 45","","",TRUE,"CV","q",492,"cv","P","5","c","c",TRUE,1
"CVOE_C",87,1,2,106,"J 17","","",TRUE,"CV","q",500,"cv","J","7","c","c",TRUE,1
"CVOE_C",95,1,2,11,"A 71","","",FALSE,"CV","q",2573,"cv","A","1","v","c",FALSE,0
"CVOE_C",95,1,2,12,"I 66","","",TRUE,"CV","p",1401,"cv","I","6","v","v",TRUE,1
"CVOE_C",95,1,2,13,"S 30","","",FALSE,"CV","q",685,"cv","S","0","c","c",TRUE,1
"CVOE_C",95,1,2,14,"D 20","","",FALSE,"CV","q",749,"cv","D","0","c","c",TRUE,1
"CVOE_C",95,1,2,15,"I 31","","",FALSE,"CV","p",530,"cv","I","1","v","v",TRUE,1
"CVOE_C",95,1,2,16,"P 16","","",FALSE,"CV","q",832,"cv","P","6","c","c",TRUE,1
"CVOE_C",95,1,2,17,"A 49","","",FALSE,"CV","q",594,"cv","A","9","v","c",FALSE,0
"CVOE_C",95,1,2,18,"O 64","","",TRUE,"CV","p",493,"cv","O","4","v","v",TRUE,1
"CVOE_C",95,1,2,19,"D 02","","",FALSE,"CV","q",2212,"cv","D","2","c","c",TRUE,1
"CVOE_C",95,1,2,20,"P 81","","",TRUE,"CV","q",959,"cv","P","1","c","c",TRUE,1
"CVOE_C",95,1,2,21,"J 58","","",FALSE,"CV","q",676,"cv","J","8","c","c",TRUE,1
"CVOE_C",95,1,2,22,"A 22","","",TRUE,"CV","q",1140,"cv","A","2","v","c",FALSE,0
"CVOE_C",95,1,2,23,"J 72","","",FALSE,"CV","q",586,"cv","J","2","c","c",TRUE,1
"CVOE_C",95,1,2,24,"P 91","","",TRUE,"CV","q",910,"cv","P","1","c","c",TRUE,1
"CVOE_C",95,1,2,25,"E 19","","",FALSE,"CV","p",508,"cv","E","9","v","v",TRUE,1
"CVOE_C",95,1,2,26,"I 30","","",TRUE,"CV","p",459,"cv","I","0","v","v",TRUE,1
"CVOE_C",95,1,2,27,"D 91","","",TRUE,"CV","q",516,"cv","D","1","c","c",TRUE,1
"CVOE_C",95,1,2,28,"O 48","","",TRUE,"CV","p",395,"cv","O","8","v","v",TRUE,1
"CVOE_C",95,1,2,29,"A 89","","",FALSE,"CV","q",1526,"cv","A","9","v","c",FALSE,0
"CVOE_C",95,1,2,30,"U 11","","",FALSE,"CV","p",812,"cv","U","1","v","v",TRUE,1
"CVOE_C",95,1,2,31,"I 76","","",TRUE,"CV","p",550,"cv","I","6","v","v",TRUE,1
"CVOE_C",95,1,2,32,"U 89","","",FALSE,"CV","p",628,"cv","U","9","v","v",TRUE,1
"CVOE_C",95,1,2,33,"D 63","","",TRUE,"CV","q",454,"cv","D","3","c","c",TRUE,1
"CVOE_C",95,1,2,34,"H 70","","",FALSE,"CV","q",591,"cv","H","0","c","c",TRUE,1
"CVOE_C",95,1,2,35,"D 48","","",FALSE,"CV","q",643,"cv","D","8","c","c",TRUE,1
"CVOE_C",95,1,2,36,"P 56","","",FALSE,"CV","q",1228,"cv","P","6","c","c",TRUE,1
"CVOE_C",95,1,2,37,"O 77","","",FALSE,"CV","p",654,"cv","O","7","v","v",TRUE,1
"CVOE_C",95,1,2,38,"P 42","","",FALSE,"CV","q",671,"cv","P","2","c","c",TRUE,1
"CVOE_C",95,1,2,39,"H 22","","",FALSE,"CV","q",1048,"cv","H","2","c","c",TRUE,1
"CVOE_C",95,1,2,40,"E 42","","",TRUE,"CV","p",505,"cv","E","2","v","v",TRUE,1
"CVOE_C",95,1,2,41,"J 28","","",FALSE,"CV","q",448,"cv","J","8","c","c",TRUE,1
"CVOE_C",95,1,2,42,"E 95","","",FALSE,"CV","p",393,"cv","E","5","v","v",TRUE,1
"CVOE_C",95,1,2,43,"S 63","","",TRUE,"CV","q",461,"cv","S","3","c","c",TRUE,1
"CVOE_C",95,1,2,44,"H 50","","",FALSE,"CV","q",1197,"cv","H","0","c","c",TRUE,1
"CVOE_C",95,1,2,45,"S 33","","",TRUE,"CV","q",681,"cv","S","3","c","c",TRUE,1
"CVOE_C",95,1,2,46,"P 57","","",TRUE,"CV","q",920,"cv","P","7","c","c",TRUE,1
"CVOE_C",95,1,2,47,"E 23","","",FALSE,"CV","p",423,"cv","E","3","v","v",TRUE,1
"CVOE_C",95,1,2,48,"S 61","","",TRUE,"CV","q",610,"cv","S","1","c","c",TRUE,1
"CVOE_C",95,1,2,49,"U 67","","",FALSE,"CV","p",500,"cv","U","7","v","v",TRUE,1
"CVOE_C",95,1,2,50,"H 32","","",FALSE,"CV","q",811,"cv","H","2","c","c",TRUE,1
"CVOE_C",95,1,2,51,"U 50","","",TRUE,"CV","p",390,"cv","U","0","v","v",TRUE,1
"CVOE_C",95,1,2,52,"O 49","","",FALSE,"CV","p",714,"cv","O","9","v","v",TRUE,1
"CVOE_C",95,1,2,53,"U 32","","",TRUE,"CV","p",361,"cv","U","2","v","v",TRUE,1
"CVOE_C",95,1,2,54,"J 78","","",FALSE,"CV","q",725,"cv","J","8","c","c",TRUE,1
"CVOE_C",95,1,2,55,"S 54","","",FALSE,"CV","q",708,"cv","S","4","c","c",TRUE,1
"CVOE_C",95,1,2,56,"J 27","","",TRUE,"CV","q",499,"cv","J","7","c","c",TRUE,1
"CVOE_C",95,1,2,57,"S 06","","",FALSE,"CV","q",402,"cv","S","6","c","c",TRUE,1
"CVOE_C",95,1,2,58,"D 67","","",TRUE,"CV","q",878,"cv","D","7","c","c",TRUE,1
"CVOE_C",95,1,2,59,"A 79","","",FALSE,"CV","q",1149,"cv","A","9","v","c",FALSE,0
"CVOE_C",95,1,2,60,"S 52","","",FALSE,"CV","q",2835,"cv","S","2","c","c",TRUE,1
"CVOE_C",95,1,2,61,"U 16","","",TRUE,"CV","p",500,"cv","U","6","v","v",TRUE,1
"CVOE_C",95,1,2,62,"O 82","","",TRUE,"CV","p",524,"cv","O","2","v","v",TRUE,1
"CVOE_C",95,1,2,63,"H 87","","",TRUE,"CV","q",386,"cv","H","7","c","c",TRUE,1
"CVOE_C",95,1,2,64,"I 32","","",TRUE,"CV","p",398,"cv","I","2","v","v",TRUE,1
"CVOE_C",95,1,2,65,"U 37","","",FALSE,"CV","p",417,"cv","U","7","v","v",TRUE,1
"CVOE_C",95,1,2,66,"I 42","","",TRUE,"CV","p",364,"cv","I","2","v","v",TRUE,1
"CVOE_C",95,1,2,67,"D 65","","",TRUE,"CV","q",401,"cv","D","5","c","c",TRUE,1
"CVOE_C",95,1,2,68,"U 77","","",FALSE,"CV","p",380,"cv","U","7","v","v",TRUE,1
"CVOE_C",95,1,2,69,"E 12","","",TRUE,"CV","p",544,"cv","E","2","v","v",TRUE,1
"CVOE_C",95,1,2,70,"I 60","","",TRUE,"CV","p",429,"cv","I","0","v","v",TRUE,1
"CVOE_C",95,1,2,71,"J 36","","",FALSE,"CV","q",503,"cv","J","6","c","c",TRUE,1
"CVOE_C",95,1,2,72,"H 75","","",TRUE,"CV","q",542,"cv","H","5","c","c",TRUE,1
"CVOE_C",95,1,2,73,"I 50","","",TRUE,"CV","p",460,"cv","I","0","v","v",TRUE,1
"CVOE_C",95,1,2,74,"E 99","","",FALSE,"CV","p",508,"cv","E","9","v","v",TRUE,1
"CVOE_C",95,1,2,75,"A 86","","",TRUE,"CV","q",396,"cv","A","6","v","c",FALSE,0
"CVOE_C",95,1,2,76,"U 48","","",TRUE,"CV","p",343,"cv","U","8","v","v",TRUE,1
"CVOE_C",95,1,2,77,"E 01","","",FALSE,"CV","p",404,"cv","E","1","v","v",TRUE,1
"CVOE_C",95,1,2,78,"A 78","","",TRUE,"CV","q",391,"cv","A","8","v","c",FALSE,0
"CVOE_C",95,1,2,79,"P 60","","",FALSE,"CV","q",483,"cv","P","0","c","c",TRUE,1
"CVOE_C",95,1,2,80,"E 43","","",FALSE,"CV","p",435,"cv","E","3","v","v",TRUE,1
"CVOE_C",95,1,2,81,"D 69","","",TRUE,"CV","q",365,"cv","D","9","c","c",TRUE,1
"CVOE_C",95,1,2,82,"H 11","","",TRUE,"CV","q",386,"cv","H","1","c","c",TRUE,1
"CVOE_C",95,1,2,83,"P 43","","",TRUE,"CV","q",454,"cv","P","3","c","c",TRUE,1
"CVOE_C",95,1,2,84,"O 67","","",FALSE,"CV","p",399,"cv","O","7","v","v",TRUE,1
"CVOE_C",95,1,2,85,"S 91","","",FALSE,"CV","q",490,"cv","S","1","c","c",TRUE,1
"CVOE_C",95,1,2,86,"J 68","","",TRUE,"CV","q",842,"cv","J","8","c","c",TRUE,1
"CVOE_C",95,1,2,87,"S 47","","",FALSE,"CV","q",339,"cv","S","7","c","c",TRUE,1
"CVOE_C",95,1,2,88,"I 81","","",TRUE,"CV","p",353,"cv","I","1","v","v",TRUE,1
"CVOE_C",95,1,2,89,"J 39","","",FALSE,"CV","q",447,"cv","J","9","c","c",TRUE,1
"CVOE_C",95,1,2,90,"A 11","","",TRUE,"CV","q",432,"cv","A","1","v","c",FALSE,0
"CVOE_C",95,1,2,91,"O 76","","",FALSE,"CV","p",410,"cv","O","6","v","v",TRUE,1
"CVOE_C",95,1,2,92,"A 62","","",FALSE,"CV","q",612,"cv","A","2","v","c",FALSE,0
"CVOE_C",95,1,2,93,"O 27","","",TRUE,"CV","p",375,"cv","O","7","v","v",TRUE,1
"CVOE_C",95,1,2,94,"E 66","","",FALSE,"CV","p",484,"cv","E","6","v","v",TRUE,1
"CVOE_C",95,1,2,95,"J 62","","",TRUE,"CV","q",508,"cv","J","2","c","c",TRUE,1
"CVOE_C",95,1,2,96,"H 72","","",TRUE,"CV","q",411,"cv","H","2","c","c",TRUE,1
"CVOE_C",95,1,2,97,"E 49","","",TRUE,"CV","p",565,"cv","E","9","v","v",TRUE,1
"CVOE_C",95,1,2,98,"D 52","","",TRUE,"CV","q",418,"cv","D","2","c","c",TRUE,1
"CVOE_C",95,1,2,99,"H 62","","",TRUE,"CV","q",573,"cv","H","2","c","c",TRUE,1
"CVOE_C",95,1,2,100,"I 11","","",TRUE,"CV","p",537,"cv","I","1","v","v",TRUE,1
"CVOE_C",95,1,2,101,"A 98","","",FALSE,"CV","q",367,"cv","A","8","v","c",FALSE,0
"CVOE_C",95,1,2,102,"H 29","","",FALSE,"CV","q",356,"cv","H","9","c","c",TRUE,1
"CVOE_C",95,1,2,103,"E 83","","",TRUE,"CV","p",401,"cv","E","3","v","v",TRUE,1
"CVOE_C",95,1,2,104,"D 43","","",FALSE,"CV","q",516,"cv","D","3","c","c",TRUE,1
"CVOE_C",95,1,2,105,"P 45","","",TRUE,"CV","q",419,"cv","P","5","c","c",TRUE,1
"CVOE_C",95,1,2,106,"J 17","","",TRUE,"CV","q",454,"cv","J","7","c","c",TRUE,1
"CVOE_C",99,1,2,11,"A 71","","",FALSE,"CV","p",2318,"cv","A","1","v","v",TRUE,1
"CVOE_C",99,1,2,12,"I 66","","",TRUE,"CV","p",837,"cv","I","6","v","v",TRUE,1
"CVOE_C",99,1,2,13,"S 30","","",FALSE,"CV","q",1366,"cv","S","0","c","c",TRUE,1
"CVOE_C",99,1,2,14,"D 20","","",FALSE,"CV","q",1691,"cv","D","0","c","c",TRUE,1
"CVOE_C",99,1,2,15,"I 31","","",FALSE,"CV","p",803,"cv","I","1","v","v",TRUE,1
"CVOE_C",99,1,2,16,"P 16","","",FALSE,"CV","q",798,"cv","P","6","c","c",TRUE,1
"CVOE_C",99,1,2,17,"A 49","","",FALSE,"CV","p",673,"cv","A","9","v","v",TRUE,1
"CVOE_C",99,1,2,18,"O 64","","",TRUE,"CV","p",5538,"cv","O","4","v","v",TRUE,1
"CVOE_C",99,1,2,19,"D 02","","",FALSE,"CV","q",648,"cv","D","2","c","c",TRUE,1
"CVOE_C",99,1,2,20,"P 81","","",TRUE,"CV","q",2169,"cv","P","1","c","c",TRUE,1
"CVOE_C",99,1,2,21,"J 58","","",FALSE,"CV","q",989,"cv","J","8","c","c",TRUE,1
"CVOE_C",99,1,2,22,"A 22","","",TRUE,"CV","p",817,"cv","A","2","v","v",TRUE,1
"CVOE_C",99,1,2,23,"J 72","","",FALSE,"CV","q",644,"cv","J","2","c","c",TRUE,1
"CVOE_C",99,1,2,24,"P 91","","",TRUE,"CV","q",597,"cv","P","1","c","c",TRUE,1
"CVOE_C",99,1,2,25,"E 19","","",FALSE,"CV","p",840,"cv","E","9","v","v",TRUE,1
"CVOE_C",99,1,2,26,"I 30","","",TRUE,"CV","p",706,"cv","I","0","v","v",TRUE,1
"CVOE_C",99,1,2,27,"D 91","","",TRUE,"CV","q",601,"cv","D","1","c","c",TRUE,1
"CVOE_C",99,1,2,28,"O 48","","",TRUE,"CV","p",477,"cv","O","8","v","v",TRUE,1
"CVOE_C",99,1,2,29,"A 89","","",FALSE,"CV","p",1037,"cv","A","9","v","v",TRUE,1
"CVOE_C",99,1,2,30,"U 11","","",FALSE,"CV","p",678,"cv","U","1","v","v",TRUE,1
"CVOE_C",99,1,2,31,"I 76","","",TRUE,"CV","p",1022,"cv","I","6","v","v",TRUE,1
"CVOE_C",99,1,2,32,"U 89","","",FALSE,"CV","p",641,"cv","U","9","v","v",TRUE,1
"CVOE_C",99,1,2,33,"D 63","","",TRUE,"CV","q",611,"cv","D","3","c","c",TRUE,1
"CVOE_C",99,1,2,34,"H 70","","",FALSE,"CV","q",3021,"cv","H","0","c","c",TRUE,1
"CVOE_C",99,1,2,35,"D 48","","",FALSE,"CV","q",1280,"cv","D","8","c","c",TRUE,1
"CVOE_C",99,1,2,36,"P 56","","",FALSE,"CV","q",416,"cv","P","6","c","c",TRUE,1
"CVOE_C",99,1,2,37,"O 77","","",FALSE,"CV","p",578,"cv","O","7","v","v",TRUE,1
"CVOE_C",99,1,2,38,"P 42","","",FALSE,"CV","q",502,"cv","P","2","c","c",TRUE,1
"CVOE_C",99,1,2,39,"H 22","","",FALSE,"CV","q",1518,"cv","H","2","c","c",TRUE,1
"CVOE_C",99,1,2,40,"E 42","","",TRUE,"CV","p",900,"cv","E","2","v","v",TRUE,1
"CVOE_C",99,1,2,41,"J 28","","",FALSE,"CV","q",579,"cv","J","8","c","c",TRUE,1
"CVOE_C",99,1,2,42,"E 95","","",FALSE,"CV","p",655,"cv","E","5","v","v",TRUE,1
"CVOE_C",99,1,2,43,"S 63","","",TRUE,"CV","q",1025,"cv","S","3","c","c",TRUE,1
"CVOE_C",99,1,2,44,"H 50","","",FALSE,"CV","q",619,"cv","H","0","c","c",TRUE,1
"CVOE_C",99,1,2,45,"S 33","","",TRUE,"CV","q",550,"cv","S","3","c","c",TRUE,1
"CVOE_C",99,1,2,46,"P 57","","",TRUE,"CV","q",659,"cv","P","7","c","c",TRUE,1
"CVOE_C",99,1,2,47,"E 23","","",FALSE,"CV","p",628,"cv","E","3","v","v",TRUE,1
"CVOE_C",99,1,2,48,"S 61","","",TRUE,"CV","q",558,"cv","S","1","c","c",TRUE,1
"CVOE_C",99,1,2,49,"U 67","","",FALSE,"CV","p",611,"cv","U","7","v","v",TRUE,1
"CVOE_C",99,1,2,50,"H 32","","",FALSE,"CV","q",550,"cv","H","2","c","c",TRUE,1
"CVOE_C",99,1,2,51,"U 50","","",TRUE,"CV","p",579,"cv","U","0","v","v",TRUE,1
"CVOE_C",99,1,2,52,"O 49","","",FALSE,"CV","p",591,"cv","O","9","v","v",TRUE,1
"CVOE_C",99,1,2,53,"U 32","","",TRUE,"CV","p",531,"cv","U","2","v","v",TRUE,1
"CVOE_C",99,1,2,54,"J 78","","",FALSE,"CV","q",721,"cv","J","8","c","c",TRUE,1
"CVOE_C",99,1,2,55,"S 54","","",FALSE,"CV","q",1176,"cv","S","4","c","c",TRUE,1
"CVOE_C",99,1,2,56,"J 27","","",TRUE,"CV","q",556,"cv","J","7","c","c",TRUE,1
"CVOE_C",99,1,2,57,"S 06","","",FALSE,"CV","q",593,"cv","S","6","c","c",TRUE,1
"CVOE_C",99,1,2,58,"D 67","","",TRUE,"CV","q",605,"cv","D","7","c","c",TRUE,1
"CVOE_C",99,1,2,59,"A 79","","",FALSE,"CV","p",680,"cv","A","9","v","v",TRUE,1
"CVOE_C",99,1,2,60,"S 52","","",FALSE,"CV","q",552,"cv","S","2","c","c",TRUE,1
"CVOE_C",99,1,2,61,"U 16","","",TRUE,"CV","p",621,"cv","U","6","v","v",TRUE,1
"CVOE_C",99,1,2,62,"O 82","","",TRUE,"CV","p",536,"cv","O","2","v","v",TRUE,1
"CVOE_C",99,1,2,63,"H 87","","",TRUE,"CV","q",510,"cv","H","7","c","c",TRUE,1
"CVOE_C",99,1,2,64,"I 32","","",TRUE,"CV","p",756,"cv","I","2","v","v",TRUE,1
"CVOE_C",99,1,2,65,"U 37","","",FALSE,"CV","q",585,"cv","U","7","v","c",FALSE,0
"CVOE_C",99,1,2,66,"I 42","","",TRUE,"CV","p",2429,"cv","I","2","v","v",TRUE,1
"CVOE_C",99,1,2,67,"D 65","","",TRUE,"CV","q",999,"cv","D","5","c","c",TRUE,1
"CVOE_C",99,1,2,68,"U 77","","",FALSE,"CV","p",690,"cv","U","7","v","v",TRUE,1
"CVOE_C",99,1,2,69,"E 12","","",TRUE,"CV","p",962,"cv","E","2","v","v",TRUE,1
"CVOE_C",99,1,2,70,"I 60","","",TRUE,"CV","p",1015,"cv","I","0","v","v",TRUE,1
"CVOE_C",99,1,2,71,"J 36","","",FALSE,"CV","q",657,"cv","J","6","c","c",TRUE,1
"CVOE_C",99,1,2,72,"H 75","","",TRUE,"CV","q",1715,"cv","H","5","c","c",TRUE,1
"CVOE_C",99,1,2,73,"I 50","","",TRUE,"CV","p",577,"cv","I","0","v","v",TRUE,1
"CVOE_C",99,1,2,74,"E 99","","",FALSE,"CV","p",781,"cv","E","9","v","v",TRUE,1
"CVOE_C",99,1,2,75,"A 86","","",TRUE,"CV","p",633,"cv","A","6","v","v",TRUE,1
"CVOE_C",99,1,2,76,"U 48","","",TRUE,"CV","p",563,"cv","U","8","v","v",TRUE,1
"CVOE_C",99,1,2,77,"E 01","","",FALSE,"CV","p",576,"cv","E","1","v","v",TRUE,1
"CVOE_C",99,1,2,78,"A 78","","",TRUE,"CV","p",668,"cv","A","8","v","v",TRUE,1
"CVOE_C",99,1,2,79,"P 60","","",FALSE,"CV","q",757,"cv","P","0","c","c",TRUE,1
"CVOE_C",99,1,2,80,"E 43","","",FALSE,"CV","p",730,"cv","E","3","v","v",TRUE,1
"CVOE_C",99,1,2,81,"D 69","","",TRUE,"CV","q",624,"cv","D","9","c","c",TRUE,1
"CVOE_C",99,1,2,82,"H 11","","",TRUE,"CV","p",747,"cv","H","1","c","v",FALSE,0
"CVOE_C",99,1,2,83,"P 43","","",TRUE,"CV","q",3928,"cv","P","3","c","c",TRUE,1
"CVOE_C",99,1,2,84,"O 67","","",FALSE,"CV","p",709,"cv","O","7","v","v",TRUE,1
"CVOE_C",99,1,2,85,"S 91","","",FALSE,"CV","q",1268,"cv","S","1","c","c",TRUE,1
"CVOE_C",99,1,2,86,"J 68","","",TRUE,"CV","q",749,"cv","J","8","c","c",TRUE,1
"CVOE_C",99,1,2,87,"S 47","","",FALSE,"CV","q",642,"cv","S","7","c","c",TRUE,1
"CVOE_C",99,1,2,88,"I 81","","",TRUE,"CV","p",652,"cv","I","1","v","v",TRUE,1
"CVOE_C",99,1,2,89,"J 39","","",FALSE,"CV","q",565,"cv","J","9","c","c",TRUE,1
"CVOE_C",99,1,2,90,"A 11","","",TRUE,"CV","p",730,"cv","A","1","v","v",TRUE,1
"CVOE_C",99,1,2,91,"O 76","","",FALSE,"CV","p",800,"cv","O","6","v","v",TRUE,1
"CVOE_C",99,1,2,92,"A 62","","",FALSE,"CV","p",715,"cv","A","2","v","v",TRUE,1
"CVOE_C",99,1,2,93,"O 27","","",TRUE,"CV","p",801,"cv","O","7","v","v",TRUE,1
"CVOE_C",99,1,2,94,"E 66","","",FALSE,"CV","p",661,"cv","E","6","v","v",TRUE,1
"CVOE_C",99,1,2,95,"J 62","","",TRUE,"CV","q",661,"cv","J","2","c","c",TRUE,1
"CVOE_C",99,1,2,96,"H 72","","",TRUE,"CV","q",782,"cv","H","2","c","c",TRUE,1
"CVOE_C",99,1,2,97,"E 49","","",TRUE,"CV","p",754,"cv","E","9","v","v",TRUE,1
"CVOE_C",99,1,2,98,"D 52","","",TRUE,"CV","q",975,"cv","D","2","c","c",TRUE,1
"CVOE_C",99,1,2,99,"H 62","","",TRUE,"CV","q",747,"cv","H","2","c","c",TRUE,1
"CVOE_C",99,1,2,100,"I 11","","",TRUE,"CV","p",713,"cv","I","1","v","v",TRUE,1
"CVOE_C",99,1,2,101,"A 98","","",FALSE,"CV","p",647,"cv","A","8","v","v",TRUE,1
"CVOE_C",99,1,2,102,"H 29","","",FALSE,"CV","q",657,"cv","H","9","c","c",TRUE,1
"CVOE_C",99,1,2,103,"E 83","","",TRUE,"CV","p",690,"cv","E","3","v","v",TRUE,1
"CVOE_C",99,1,2,104,"D 43","","",FALSE,"CV","q",658,"cv","D","3","c","c",TRUE,1
"CVOE_C",99,1,2,105,"P 45","","",TRUE,"CV","q",1699,"cv","P","5","c","c",TRUE,1
"CVOE_C",99,1,2,106,"J 17","","",TRUE,"CV","q",530,"cv","J","7","c","c",TRUE,1
"CVOE_D",100,1,1,11,"A 71","","",FALSE,"CV","p",989,"cv","A","1","v","v",TRUE,1
"CVOE_D",100,1,1,12,"I 66","","",TRUE,"CV","p",641,"cv","I","6","v","v",TRUE,1
"CVOE_D",100,1,1,13,"S 30","","",FALSE,"CV","q",483,"cv","S","0","c","c",TRUE,1
"CVOE_D",100,1,1,14,"D 20","","",FALSE,"CV","q",611,"cv","D","0","c","c",TRUE,1
"CVOE_D",100,1,1,15,"I 31","","",FALSE,"CV","p",582,"cv","I","1","v","v",TRUE,1
"CVOE_D",100,1,1,16,"P 16","","",FALSE,"CV","q",530,"cv","P","6","c","c",TRUE,1
"CVOE_D",100,1,1,17,"A 49","","",FALSE,"CV","p",495,"cv","A","9","v","v",TRUE,1
"CVOE_D",100,1,1,18,"O 64","","",TRUE,"CV","p",543,"cv","O","4","v","v",TRUE,1
"CVOE_D",100,1,1,19,"D 02","","",FALSE,"CV","q",452,"cv","D","2","c","c",TRUE,1
"CVOE_D",100,1,1,20,"P 81","","",TRUE,"CV","q",1181,"cv","P","1","c","c",TRUE,1
"CVOE_D",100,1,1,21,"J 58","","",FALSE,"CV","q",569,"cv","J","8","c","c",TRUE,1
"CVOE_D",100,1,1,22,"A 22","","",TRUE,"CV","p",598,"cv","A","2","v","v",TRUE,1
"CVOE_D",100,1,1,23,"J 72","","",FALSE,"CV","q",577,"cv","J","2","c","c",TRUE,1
"CVOE_D",100,1,1,24,"P 91","","",TRUE,"CV","q",653,"cv","P","1","c","c",TRUE,1
"CVOE_D",100,1,1,25,"E 19","","",FALSE,"CV","p",510,"cv","E","9","v","v",TRUE,1
"CVOE_D",100,1,1,26,"I 30","","",TRUE,"CV","p",501,"cv","I","0","v","v",TRUE,1
"CVOE_D",100,1,1,27,"D 91","","",TRUE,"CV","q",460,"cv","D","1","c","c",TRUE,1
"CVOE_D",100,1,1,28,"O 48","","",TRUE,"CV","p",429,"cv","O","8","v","v",TRUE,1
"CVOE_D",100,1,1,29,"A 89","","",FALSE,"CV","p",671,"cv","A","9","v","v",TRUE,1
"CVOE_D",100,1,1,30,"U 11","","",FALSE,"CV","p",551,"cv","U","1","v","v",TRUE,1
"CVOE_D",100,1,1,31,"I 76","","",TRUE,"CV","p",564,"cv","I","6","v","v",TRUE,1
"CVOE_D",100,1,1,32,"U 89","","",FALSE,"CV","p",561,"cv","U","9","v","v",TRUE,1
"CVOE_D",100,1,1,33,"D 63","","",TRUE,"CV","q",526,"cv","D","3","c","c",TRUE,1
"CVOE_D",100,1,1,34,"H 70","","",FALSE,"CV","q",556,"cv","H","0","c","c",TRUE,1
"CVOE_D",100,1,1,35,"D 48","","",FALSE,"CV","q",553,"cv","D","8","c","c",TRUE,1
"CVOE_D",100,1,1,36,"P 56","","",FALSE,"CV","q",655,"cv","P","6","c","c",TRUE,1
"CVOE_D",100,1,1,37,"O 77","","",FALSE,"CV","p",560,"cv","O","7","v","v",TRUE,1
"CVOE_D",100,1,1,38,"P 42","","",FALSE,"CV","q",485,"cv","P","2","c","c",TRUE,1
"CVOE_D",100,1,1,39,"H 22","","",FALSE,"CV","q",556,"cv","H","2","c","c",TRUE,1
"CVOE_D",100,1,1,40,"E 42","","",TRUE,"CV","p",498,"cv","E","2","v","v",TRUE,1
"CVOE_D",100,1,1,41,"J 28","","",FALSE,"CV","q",513,"cv","J","8","c","c",TRUE,1
"CVOE_D",100,1,1,42,"E 95","","",FALSE,"CV","p",448,"cv","E","5","v","v",TRUE,1
"CVOE_D",100,1,1,43,"S 63","","",TRUE,"CV","q",1025,"cv","S","3","c","c",TRUE,1
"CVOE_D",100,1,1,44,"H 50","","",FALSE,"CV","q",483,"cv","H","0","c","c",TRUE,1
"CVOE_D",100,1,1,45,"S 33","","",TRUE,"CV","q",403,"cv","S","3","c","c",TRUE,1
"CVOE_D",100,1,1,46,"P 57","","",TRUE,"CV","q",511,"cv","P","7","c","c",TRUE,1
"CVOE_D",100,1,1,47,"E 23","","",FALSE,"CV","p",509,"cv","E","3","v","v",TRUE,1
"CVOE_D",100,1,1,48,"S 61","","",TRUE,"CV","q",420,"cv","S","1","c","c",TRUE,1
"CVOE_D",100,1,1,49,"U 67","","",FALSE,"CV","p",406,"cv","U","7","v","v",TRUE,1
"CVOE_D",100,1,1,50,"H 32","","",FALSE,"CV","q",402,"cv","H","2","c","c",TRUE,1
"CVOE_D",100,1,1,51,"U 50","","",TRUE,"CV","p",445,"cv","U","0","v","v",TRUE,1
"CVOE_D",100,1,1,52,"O 49","","",FALSE,"CV","p",422,"cv","O","9","v","v",TRUE,1
"CVOE_D",100,1,1,53,"U 32","","",TRUE,"CV","p",425,"cv","U","2","v","v",TRUE,1
"CVOE_D",100,1,1,54,"J 78","","",FALSE,"CV","q",475,"cv","J","8","c","c",TRUE,1
"CVOE_D",100,1,1,55,"S 54","","",FALSE,"CV","q",492,"cv","S","4","c","c",TRUE,1
"CVOE_D",100,1,1,56,"J 27","","",TRUE,"CV","q",428,"cv","J","7","c","c",TRUE,1
"CVOE_D",100,1,1,57,"S 06","","",FALSE,"CV","q",494,"cv","S","6","c","c",TRUE,1
"CVOE_D",100,1,1,58,"D 67","","",TRUE,"CV","q",565,"cv","D","7","c","c",TRUE,1
"CVOE_D",100,1,1,59,"A 79","","",FALSE,"CV","p",490,"cv","A","9","v","v",TRUE,1
"CVOE_D",100,1,1,60,"S 52","","",FALSE,"CV","q",474,"cv","S","2","c","c",TRUE,1
"CVOE_D",100,1,1,61,"U 16","","",TRUE,"CV","p",562,"cv","U","6","v","v",TRUE,1
"CVOE_D",100,1,1,62,"O 82","","",TRUE,"CV","p",479,"cv","O","2","v","v",TRUE,1
"CVOE_D",100,1,1,63,"H 87","","",TRUE,"CV","q",439,"cv","H","7","c","c",TRUE,1
"CVOE_D",100,1,1,64,"I 32","","",TRUE,"CV","p",545,"cv","I","2","v","v",TRUE,1
"CVOE_D",100,1,1,65,"U 37","","",FALSE,"CV","p",446,"cv","U","7","v","v",TRUE,1
"CVOE_D",100,1,1,66,"I 42","","",TRUE,"CV","p",455,"cv","I","2","v","v",TRUE,1
"CVOE_D",100,1,1,67,"D 65","","",TRUE,"CV","q",465,"cv","D","5","c","c",TRUE,1
"CVOE_D",100,1,1,68,"U 77","","",FALSE,"CV","p",465,"cv","U","7","v","v",TRUE,1
"CVOE_D",100,1,1,69,"E 12","","",TRUE,"CV","p",482,"cv","E","2","v","v",TRUE,1
"CVOE_D",100,1,1,70,"I 60","","",TRUE,"CV","p",490,"cv","I","0","v","v",TRUE,1
"CVOE_D",100,1,1,71,"J 36","","",FALSE,"CV","q",402,"cv","J","6","c","c",TRUE,1
"CVOE_D",100,1,1,72,"H 75","","",TRUE,"CV","q",437,"cv","H","5","c","c",TRUE,1
"CVOE_D",100,1,1,73,"I 50","","",TRUE,"CV","p",455,"cv","I","0","v","v",TRUE,1
"CVOE_D",100,1,1,74,"E 99","","",FALSE,"CV","p",496,"cv","E","9","v","v",TRUE,1
"CVOE_D",100,1,1,75,"A 86","","",TRUE,"CV","p",447,"cv","A","6","v","v",TRUE,1
"CVOE_D",100,1,1,76,"U 48","","",TRUE,"CV","p",457,"cv","U","8","v","v",TRUE,1
"CVOE_D",100,1,1,77,"E 01","","",FALSE,"CV","p",410,"cv","E","1","v","v",TRUE,1
"CVOE_D",100,1,1,78,"A 78","","",TRUE,"CV","p",468,"cv","A","8","v","v",TRUE,1
"CVOE_D",100,1,1,79,"P 60","","",FALSE,"CV","q",461,"cv","P","0","c","c",TRUE,1
"CVOE_D",100,1,1,80,"E 43","","",FALSE,"CV","p",478,"cv","E","3","v","v",TRUE,1
"CVOE_D",100,1,1,81,"D 69","","",TRUE,"CV","q",390,"cv","D","9","c","c",TRUE,1
"CVOE_D",100,1,1,82,"H 11","","",TRUE,"CV","q",418,"cv","H","1","c","c",TRUE,1
"CVOE_D",100,1,1,83,"P 43","","",TRUE,"CV","q",556,"cv","P","3","c","c",TRUE,1
"CVOE_D",100,1,1,84,"O 67","","",FALSE,"CV","p",457,"cv","O","7","v","v",TRUE,1
"CVOE_D",100,1,1,85,"S 91","","",FALSE,"CV","q",411,"cv","S","1","c","c",TRUE,1
"CVOE_D",100,1,1,86,"J 68","","",TRUE,"CV","q",565,"cv","J","8","c","c",TRUE,1
"CVOE_D",100,1,1,87,"S 47","","",FALSE,"CV","q",418,"cv","S","7","c","c",TRUE,1
"CVOE_D",100,1,1,88,"I 81","","",TRUE,"CV","p",492,"cv","I","1","v","v",TRUE,1
"CVOE_D",100,1,1,89,"J 39","","",FALSE,"CV","p",412,"cv","J","9","c","v",FALSE,0
"CVOE_D",100,1,1,90,"A 11","","",TRUE,"CV","p",830,"cv","A","1","v","v",TRUE,1
"CVOE_D",100,1,1,91,"O 76","","",FALSE,"CV","p",672,"cv","O","6","v","v",TRUE,1
"CVOE_D",100,1,1,92,"A 62","","",FALSE,"CV","p",505,"cv","A","2","v","v",TRUE,1
"CVOE_D",100,1,1,93,"O 27","","",TRUE,"CV","p",496,"cv","O","7","v","v",TRUE,1
"CVOE_D",100,1,1,94,"E 66","","",FALSE,"CV","p",471,"cv","E","6","v","v",TRUE,1
"CVOE_D",100,1,1,95,"J 62","","",TRUE,"CV","q",536,"cv","J","2","c","c",TRUE,1
"CVOE_D",100,1,1,96,"H 72","","",TRUE,"CV","q",726,"cv","H","2","c","c",TRUE,1
"CVOE_D",100,1,1,97,"E 49","","",TRUE,"CV","p",1068,"cv","E","9","v","v",TRUE,1
"CVOE_D",100,1,1,98,"D 52","","",TRUE,"CV","q",508,"cv","D","2","c","c",TRUE,1
"CVOE_D",100,1,1,99,"H 62","","",TRUE,"CV","q",580,"cv","H","2","c","c",TRUE,1
"CVOE_D",100,1,1,100,"I 11","","",TRUE,"CV","p",520,"cv","I","1","v","v",TRUE,1
"CVOE_D",100,1,1,101,"A 98","","",FALSE,"CV","p",662,"cv","A","8","v","v",TRUE,1
"CVOE_D",100,1,1,102,"H 29","","",FALSE,"CV","q",415,"cv","H","9","c","c",TRUE,1
"CVOE_D",100,1,1,103,"E 83","","",TRUE,"CV","p",537,"cv","E","3","v","v",TRUE,1
"CVOE_D",100,1,1,104,"D 43","","",FALSE,"CV","q",671,"cv","D","3","c","c",TRUE,1
"CVOE_D",100,1,1,105,"P 45","","",TRUE,"CV","q",456,"cv","P","5","c","c",TRUE,1
"CVOE_D",100,1,1,106,"J 17","","",TRUE,"CV","q",425,"cv","J","7","c","c",TRUE,1
"CVOE updated",101,1,2,11,"A 24","","",TRUE,"OE","p",2078,"oe","A","4","e","e",TRUE,1
"CVOE updated",101,1,2,12,"O 83","","",FALSE,"OE","q",1526,"oe","O","3","o","o",TRUE,1
"CVOE updated",101,1,2,13,"H 55","","",TRUE,"OE","q",1532,"oe","H","5","o","o",TRUE,1
"CVOE updated",101,1,2,14,"P 10","","",FALSE,"OE","p",786,"oe","P","0","e","e",TRUE,1
"CVOE updated",101,1,2,15,"D 30","","",FALSE,"OE","p",2742,"oe","D","0","e","e",TRUE,1
"CVOE updated",101,1,2,16,"U 62","","",TRUE,"OE","p",1180,"oe","U","2","e","e",TRUE,1
"CVOE updated",101,1,2,17,"P 95","","",TRUE,"OE","q",952,"oe","P","5","o","o",TRUE,1
"CVOE updated",101,1,2,18,"U 06","","",TRUE,"OE","p",685,"oe","U","6","e","e",TRUE,1
"CVOE updated",101,1,2,19,"E 75","","",FALSE,"OE","q",893,"oe","E","5","o","o",TRUE,1
"CVOE updated",101,1,2,20,"I 67","","",FALSE,"OE","q",700,"oe","I","7","o","o",TRUE,1
"CVOE updated",101,1,2,21,"S 13","","",TRUE,"OE","q",699,"oe","S","3","o","o",TRUE,1
"CVOE updated",101,1,2,22,"P 78","","",FALSE,"OE","p",2202,"oe","P","8","e","e",TRUE,1
"CVOE updated",101,1,2,23,"I 15","","",FALSE,"OE","q",2830,"oe","I","5","o","o",TRUE,1
"CVOE updated",101,1,2,24,"D 27","","",TRUE,"OE","q",991,"oe","D","7","o","o",TRUE,1
"CVOE updated",101,1,2,25,"O 94","","",TRUE,"OE","p",691,"oe","O","4","e","e",TRUE,1
"CVOE updated",101,1,2,26,"A 65","","",FALSE,"OE","q",1027,"oe","A","5","o","o",TRUE,1
"CVOE updated",101,1,2,27,"I 42","","",TRUE,"OE","p",1053,"oe","I","2","e","e",TRUE,1
"CVOE updated",101,1,2,28,"E 25","","",FALSE,"OE","q",1734,"oe","E","5","o","o",TRUE,1
"CVOE updated",101,1,2,29,"H 49","","",TRUE,"OE","q",1740,"oe","H","9","o","o",TRUE,1
"CVOE updated",101,1,2,30,"S 18","","",FALSE,"OE","p",2018,"oe","S","8","e","e",TRUE,1
"CVOE updated",101,1,2,31,"H 51","","",TRUE,"OE","q",748,"oe","H","1","o","o",TRUE,1
"CVOE updated",101,1,2,32,"U 14","","",TRUE,"OE","p",682,"oe","U","4","e","e",TRUE,1
"CVOE updated",101,1,2,33,"E 02","","",TRUE,"OE","p",1074,"oe","E","2","e","e",TRUE,1
"CVOE updated",101,1,2,34,"J 26","","",FALSE,"OE","p",3546,"oe","J","6","e","e",TRUE,1
"CVOE updated",101,1,2,35,"D 24","","",FALSE,"OE","p",2311,"oe","D","4","e","e",TRUE,1
"CVOE updated",101,1,2,36,"O 50","","",TRUE,"OE","p",886,"oe","O","0","e","e",TRUE,1
"CVOE updated",101,1,2,37,"U 16","","",TRUE,"OE","p",1598,"oe","U","6","e","e",TRUE,1
"CVOE updated",101,1,2,38,"O 15","","",FALSE,"OE","q",969,"oe","O","5","o","o",TRUE,1
"CVOE updated",101,1,2,39,"D 32","","",FALSE,"OE","p",781,"oe","D","2","e","e",TRUE,1
"CVOE updated",101,1,2,40,"S 67","","",TRUE,"OE","q",753,"oe","S","7","o","o",TRUE,1
"CVOE updated",101,1,2,41,"J 74","","",FALSE,"OE","p",623,"oe","J","4","e","e",TRUE,1
"CVOE updated",101,1,2,42,"D 92","","",FALSE,"OE","p",697,"oe","D","2","e","e",TRUE,1
"CVOE updated",101,1,2,43,"A 65","","",FALSE,"OE","q",968,"oe","A","5","o","o",TRUE,1
"CVOE updated",101,1,2,44,"I 87","","",FALSE,"OE","q",1085,"oe","I","7","o","o",TRUE,1
"CVOE updated",101,1,2,45,"H 61","","",TRUE,"OE","q",829,"oe","H","1","o","o",TRUE,1
"CVOE updated",101,1,2,46,"E 59","","",FALSE,"OE","q",623,"oe","E","9","o","o",TRUE,1
"CVOE updated",101,1,2,47,"I 33","","",FALSE,"OE","q",1009,"oe","I","3","o","o",TRUE,1
"CVOE updated",101,1,2,48,"O 90","","",TRUE,"OE","p",756,"oe","O","0","e","e",TRUE,1
"CVOE updated",101,1,2,49,"U 51","","",FALSE,"OE","q",625,"oe","U","1","o","o",TRUE,1
"CVOE updated",101,1,2,50,"A 10","","",TRUE,"OE","p",580,"oe","A","0","e","e",TRUE,1
"CVOE updated",101,1,2,51,"E 50","","",TRUE,"OE","p",616,"oe","E","0","e","e",TRUE,1
"CVOE updated",101,1,2,52,"D 92","","",FALSE,"OE","p",642,"oe","D","2","e","e",TRUE,1
"CVOE updated",101,1,2,53,"E 60","","",TRUE,"OE","p",676,"oe","E","0","e","e",TRUE,1
"CVOE updated",101,1,2,54,"A 95","","",FALSE,"OE","q",628,"oe","A","5","o","o",TRUE,1
"CVOE updated",101,1,2,55,"E 64","","",TRUE,"OE","p",630,"oe","E","4","e","e",TRUE,1
"CVOE updated",101,1,2,56,"P 20","","",FALSE,"OE","p",608,"oe","P","0","e","e",TRUE,1
"CVOE updated",101,1,2,57,"S 06","","",FALSE,"OE","p",595,"oe","S","6","e","e",TRUE,1
"CVOE updated",101,1,2,58,"P 64","","",FALSE,"OE","p",502,"oe","P","4","e","e",TRUE,1
"CVOE updated",101,1,2,59,"U 70","","",TRUE,"OE","p",606,"oe","U","0","e","e",TRUE,1
"CVOE updated",101,1,2,60,"S 16","","",FALSE,"OE","p",1737,"oe","S","6","e","e",TRUE,1
"CVOE updated",101,1,2,61,"E 35","","",FALSE,"OE","q",559,"oe","E","5","o","o",TRUE,1
"CVOE updated",101,1,2,62,"I 93","","",FALSE,"OE","q",484,"oe","I","3","o","o",TRUE,1
"CVOE updated",101,1,2,63,"D 63","","",TRUE,"OE","q",460,"oe","D","3","o","o",TRUE,1
"CVOE updated",101,1,2,64,"U 89","","",FALSE,"OE","q",733,"oe","U","9","o","o",TRUE,1
"CVOE updated",101,1,2,65,"E 91","","",FALSE,"OE","q",634,"oe","E","1","o","o",TRUE,1
"CVOE updated",101,1,2,66,"A 12","","",TRUE,"OE","p",620,"oe","A","2","e","e",TRUE,1
"CVOE updated",101,1,2,67,"P 56","","",FALSE,"OE","p",503,"oe","P","6","e","e",TRUE,1
"CVOE updated",101,1,2,68,"S 65","","",TRUE,"OE","q",662,"oe","S","5","o","o",TRUE,1
"CVOE updated",101,1,2,69,"P 07","","",TRUE,"OE","p",559,"oe","P","7","o","e",FALSE,0
"CVOE updated",101,1,2,70,"I 77","","",FALSE,"OE","q",996,"oe","I","7","o","o",TRUE,1
"CVOE updated",101,1,2,71,"J 19","","",TRUE,"OE","q",1095,"oe","J","9","o","o",TRUE,1
"CVOE updated",101,1,2,72,"O 59","","",FALSE,"OE","q",455,"oe","O","9","o","o",TRUE,1
"CVOE updated",101,1,2,73,"J 15","","",TRUE,"OE","q",736,"oe","J","5","o","o",TRUE,1
"CVOE updated",101,1,2,74,"I 89","","",FALSE,"OE","q",486,"oe","I","9","o","o",TRUE,1
"CVOE updated",101,1,2,75,"O 97","","",FALSE,"OE","q",606,"oe","O","7","o","o",TRUE,1
"CVOE updated",101,1,2,76,"A 92","","",TRUE,"OE","p",593,"oe","A","2","e","e",TRUE,1
"CVOE updated",101,1,2,77,"J 90","","",FALSE,"OE","p",540,"oe","J","0","e","e",TRUE,1
"CVOE updated",101,1,2,78,"H 65","","",TRUE,"OE","q",586,"oe","H","5","o","o",TRUE,1
"CVOE updated",101,1,2,79,"H 17","","",TRUE,"OE","q",918,"oe","H","7","o","o",TRUE,1
"CVOE updated",101,1,2,80,"S 26","","",FALSE,"OE","p",637,"oe","S","6","e","e",TRUE,1
"CVOE updated",101,1,2,81,"D 56","","",FALSE,"OE","p",639,"oe","D","6","e","e",TRUE,1
"CVOE updated",101,1,2,82,"I 91","","",FALSE,"OE","q",568,"oe","I","1","o","o",TRUE,1
"CVOE updated",101,1,2,83,"J 11","","",TRUE,"OE","q",901,"oe","J","1","o","o",TRUE,1
"CVOE updated",101,1,2,84,"O 28","","",TRUE,"OE","p",596,"oe","O","8","e","e",TRUE,1
"CVOE updated",101,1,2,85,"H 29","","",TRUE,"OE","q",568,"oe","H","9","o","o",TRUE,1
"CVOE updated",101,1,2,86,"J 25","","",TRUE,"OE","q",516,"oe","J","5","o","o",TRUE,1
"CVOE updated",101,1,2,87,"A 73","","",FALSE,"OE","q",627,"oe","A","3","o","o",TRUE,1
"CVOE updated",101,1,2,88,"J 63","","",TRUE,"OE","q",477,"oe","J","3","o","o",TRUE,1
"CVOE updated",101,1,2,89,"U 84","","",TRUE,"OE","p",733,"oe","U","4","e","e",TRUE,1
"CVOE updated",101,1,2,90,"A 58","","",TRUE,"OE","q",507,"oe","A","8","e","o",FALSE,0
"CVOE updated",101,1,2,91,"S 43","","",TRUE,"OE","q",746,"oe","S","3","o","o",TRUE,1
"CVOE updated",101,1,2,92,"H 54","","",FALSE,"OE","p",583,"oe","H","4","e","e",TRUE,1
"CVOE updated",101,1,2,93,"D 4","","",FALSE,"OE","p",619,"oe","D","","o","e",FALSE,0
"CVOE updated",101,1,2,94,"J 75","","",TRUE,"OE","q",2502,"oe","J","5","o","o",TRUE,1
"CVOE updated",101,1,2,95,"D 19","","",TRUE,"OE","q",749,"oe","D","9","o","o",TRUE,1
"CVOE updated",101,1,2,96,"J 38","","",FALSE,"OE","p",850,"oe","J","8","e","e",TRUE,1
"CVOE updated",101,1,2,97,"I 56","","",TRUE,"OE","p",731,"oe","I","6","e","e",TRUE,1
"CVOE updated",101,1,2,98,"P 87","","",TRUE,"OE","q",633,"oe","P","7","o","o",TRUE,1
"CVOE updated",101,1,2,99,"O 80","","",TRUE,"OE","p",587,"oe","O","0","e","e",TRUE,1
"CVOE updated",101,1,2,100,"U 60","","",TRUE,"OE","p",583,"oe","U","0","e","e",TRUE,1
"CVOE updated",101,1,2,101,"P 48","","",FALSE,"OE","p",587,"oe","P","8","e","e",TRUE,1
"CVOE updated",101,1,2,102,"H 64","","",FALSE,"OE","p",567,"oe","H","4","e","e",TRUE,1
"CVOE updated",101,1,2,103,"A 13","","",FALSE,"OE","q",539,"oe","A","3","o","o",TRUE,1
"CVOE updated",101,1,2,104,"H 68","","",FALSE,"OE","p",497,"oe","H","8","e","e",TRUE,1
"CVOE updated",101,1,2,105,"E 16","","",TRUE,"OE","p",705,"oe","E","6","e","e",TRUE,1
"CVOE updated",101,1,2,106,"S 71","","",TRUE,"OE","q",664,"oe","S","1","o","o",TRUE,1
"CVOE updated",93,1,2,11,"A 24","","",TRUE,"OE","p",1100,"oe","A","4","e","e",TRUE,1
"CVOE updated",93,1,2,12,"O 83","","",FALSE,"OE","q",876,"oe","O","3","o","o",TRUE,1
"CVOE updated",93,1,2,13,"H 55","","",TRUE,"OE","q",731,"oe","H","5","o","o",TRUE,1
"CVOE updated",93,1,2,14,"P 10","","",FALSE,"OE","p",697,"oe","P","0","e","e",TRUE,1
"CVOE updated",93,1,2,15,"D 30","","",FALSE,"OE","p",537,"oe","D","0","e","e",TRUE,1
"CVOE updated",93,1,2,16,"U 62","","",TRUE,"OE","p",615,"oe","U","2","e","e",TRUE,1
"CVOE updated",93,1,2,17,"P 95","","",TRUE,"OE","q",578,"oe","P","5","o","o",TRUE,1
"CVOE updated",93,1,2,18,"U 06","","",TRUE,"OE","p",670,"oe","U","6","e","e",TRUE,1
"CVOE updated",93,1,2,19,"E 75","","",FALSE,"OE","q",525,"oe","E","5","o","o",TRUE,1
"CVOE updated",93,1,2,20,"I 67","","",FALSE,"OE","q",604,"oe","I","7","o","o",TRUE,1
"CVOE updated",93,1,2,21,"S 13","","",TRUE,"OE","q",608,"oe","S","3","o","o",TRUE,1
"CVOE updated",93,1,2,22,"P 78","","",FALSE,"OE","p",651,"oe","P","8","e","e",TRUE,1
"CVOE updated",93,1,2,23,"I 15","","",FALSE,"OE","q",668,"oe","I","5","o","o",TRUE,1
"CVOE updated",93,1,2,24,"D 27","","",TRUE,"OE","q",549,"oe","D","7","o","o",TRUE,1
"CVOE updated",93,1,2,25,"O 94","","",TRUE,"OE","p",538,"oe","O","4","e","e",TRUE,1
"CVOE updated",93,1,2,26,"A 65","","",FALSE,"OE","q",592,"oe","A","5","o","o",TRUE,1
"CVOE updated",93,1,2,27,"I 42","","",TRUE,"OE","p",532,"oe","I","2","e","e",TRUE,1
"CVOE updated",93,1,2,28,"E 25","","",FALSE,"OE","q",498,"oe","E","5","o","o",TRUE,1
"CVOE updated",93,1,2,29,"H 49","","",TRUE,"OE","q",505,"oe","H","9","o","o",TRUE,1
"CVOE updated",93,1,2,30,"S 18","","",FALSE,"OE","p",599,"oe","S","8","e","e",TRUE,1
"CVOE updated",93,1,2,31,"H 51","","",TRUE,"OE","q",500,"oe","H","1","o","o",TRUE,1
"CVOE updated",93,1,2,32,"U 14","","",TRUE,"OE","p",635,"oe","U","4","e","e",TRUE,1
"CVOE updated",93,1,2,33,"E 02","","",TRUE,"OE","p",581,"oe","E","2","e","e",TRUE,1
"CVOE updated",93,1,2,34,"J 26","","",FALSE,"OE","p",513,"oe","J","6","e","e",TRUE,1
"CVOE updated",93,1,2,35,"D 24","","",FALSE,"OE","p",527,"oe","D","4","e","e",TRUE,1
"CVOE updated",93,1,2,36,"O 50","","",TRUE,"OE","p",517,"oe","O","0","e","e",TRUE,1
"CVOE updated",93,1,2,37,"U 16","","",TRUE,"OE","p",484,"oe","U","6","e","e",TRUE,1
"CVOE updated",93,1,2,38,"O 15","","",FALSE,"OE","q",420,"oe","O","5","o","o",TRUE,1
"CVOE updated",93,1,2,39,"D 32","","",FALSE,"OE","p",438,"oe","D","2","e","e",TRUE,1
"CVOE updated",93,1,2,40,"S 67","","",TRUE,"OE","q",432,"oe","S","7","o","o",TRUE,1
"CVOE updated",93,1,2,41,"J 74","","",FALSE,"OE","p",554,"oe","J","4","e","e",TRUE,1
"CVOE updated",93,1,2,42,"D 92","","",FALSE,"OE","p",470,"oe","D","2","e","e",TRUE,1
"CVOE updated",93,1,2,43,"A 65","","",FALSE,"OE","q",480,"oe","A","5","o","o",TRUE,1
"CVOE updated",93,1,2,44,"I 87","","",FALSE,"OE","q",640,"oe","I","7","o","o",TRUE,1
"CVOE updated",93,1,2,45,"H 61","","",TRUE,"OE","q",578,"oe","H","1","o","o",TRUE,1
"CVOE updated",93,1,2,46,"E 59","","",FALSE,"OE","q",518,"oe","E","9","o","o",TRUE,1
"CVOE updated",93,1,2,47,"I 33","","",FALSE,"OE","p",595,"oe","I","3","o","e",FALSE,0
"CVOE updated",93,1,2,48,"O 90","","",TRUE,"OE","p",560,"oe","O","0","e","e",TRUE,1
"CVOE updated",93,1,2,49,"U 51","","",FALSE,"OE","q",508,"oe","U","1","o","o",TRUE,1
"CVOE updated",93,1,2,50,"A 10","","",TRUE,"OE","p",612,"oe","A","0","e","e",TRUE,1
"CVOE updated",93,1,2,51,"E 50","","",TRUE,"OE","p",790,"oe","E","0","e","e",TRUE,1
"CVOE updated",93,1,2,52,"D 92","","",FALSE,"OE","p",498,"oe","D","2","e","e",TRUE,1
"CVOE updated",93,1,2,53,"E 60","","",TRUE,"OE","p",569,"oe","E","0","e","e",TRUE,1
"CVOE updated",93,1,2,54,"A 95","","",FALSE,"OE","q",486,"oe","A","5","o","o",TRUE,1
"CVOE updated",93,1,2,55,"E 64","","",TRUE,"OE","p",494,"oe","E","4","e","e",TRUE,1
"CVOE updated",93,1,2,56,"P 20","","",FALSE,"OE","p",533,"oe","P","0","e","e",TRUE,1
"CVOE updated",93,1,2,57,"S 06","","",FALSE,"OE","p",731,"oe","S","6","e","e",TRUE,1
"CVOE updated",93,1,2,58,"P 64","","",FALSE,"OE","p",689,"oe","P","4","e","e",TRUE,1
"CVOE updated",93,1,2,59,"U 70","","",TRUE,"OE","p",561,"oe","U","0","e","e",TRUE,1
"CVOE updated",93,1,2,60,"S 16","","",FALSE,"OE","p",693,"oe","S","6","e","e",TRUE,1
"CVOE updated",93,1,2,61,"E 35","","",FALSE,"OE","q",693,"oe","E","5","o","o",TRUE,1
"CVOE updated",93,1,2,62,"I 93","","",FALSE,"OE","q",613,"oe","I","3","o","o",TRUE,1
"CVOE updated",93,1,2,63,"D 63","","",TRUE,"OE","q",655,"oe","D","3","o","o",TRUE,1
"CVOE updated",93,1,2,64,"U 89","","",FALSE,"OE","q",680,"oe","U","9","o","o",TRUE,1
"CVOE updated",93,1,2,65,"E 91","","",FALSE,"OE","q",896,"oe","E","1","o","o",TRUE,1
"CVOE updated",93,1,2,66,"A 12","","",TRUE,"OE","p",776,"oe","A","2","e","e",TRUE,1
"CVOE updated",93,1,2,67,"P 56","","",FALSE,"OE","p",636,"oe","P","6","e","e",TRUE,1
"CVOE updated",93,1,2,68,"S 65","","",TRUE,"OE","q",598,"oe","S","5","o","o",TRUE,1
"CVOE updated",93,1,2,69,"P 07","","",TRUE,"OE","q",553,"oe","P","7","o","o",TRUE,1
"CVOE updated",93,1,2,70,"I 77","","",FALSE,"OE","q",511,"oe","I","7","o","o",TRUE,1
"CVOE updated",93,1,2,71,"J 19","","",TRUE,"OE","q",717,"oe","J","9","o","o",TRUE,1
"CVOE updated",93,1,2,72,"O 59","","",FALSE,"OE","q",540,"oe","O","9","o","o",TRUE,1
"CVOE updated",93,1,2,73,"J 15","","",TRUE,"OE","q",546,"oe","J","5","o","o",TRUE,1
"CVOE updated",93,1,2,74,"I 89","","",FALSE,"OE","q",495,"oe","I","9","o","o",TRUE,1
"CVOE updated",93,1,2,75,"O 97","","",FALSE,"OE","q",462,"oe","O","7","o","o",TRUE,1
"CVOE updated",93,1,2,76,"A 92","","",TRUE,"OE","p",599,"oe","A","2","e","e",TRUE,1
"CVOE updated",93,1,2,77,"J 90","","",FALSE,"OE","p",586,"oe","J","0","e","e",TRUE,1
"CVOE updated",93,1,2,78,"H 65","","",TRUE,"OE","q",566,"oe","H","5","o","o",TRUE,1
"CVOE updated",93,1,2,79,"H 17","","",TRUE,"OE","q",563,"oe","H","7","o","o",TRUE,1
"CVOE updated",93,1,2,80,"S 26","","",FALSE,"OE","p",655,"oe","S","6","e","e",TRUE,1
"CVOE updated",93,1,2,81,"D 56","","",FALSE,"OE","p",520,"oe","D","6","e","e",TRUE,1
"CVOE updated",93,1,2,82,"I 91","","",FALSE,"OE","q",591,"oe","I","1","o","o",TRUE,1
"CVOE updated",93,1,2,83,"J 11","","",TRUE,"OE","q",779,"oe","J","1","o","o",TRUE,1
"CVOE updated",93,1,2,84,"O 28","","",TRUE,"OE","p",631,"oe","O","8","e","e",TRUE,1
"CVOE updated",93,1,2,85,"H 29","","",TRUE,"OE","q",617,"oe","H","9","o","o",TRUE,1
"CVOE updated",93,1,2,86,"J 25","","",TRUE,"OE","q",507,"oe","J","5","o","o",TRUE,1
