ExperimentName,Subject,Group,Block,Trial,STIM,TASK,Switch,Congruent,CVOE,Response,RT,block_type,letter,number,key2,response2,match2,score2
CVOE updated,45,1,1,11,A 71,,,FALSE,CV,p,1248,cv,A,1,v,v,TRUE,1
CVOE updated,45,1,1,12,I 66,,,TRUE,CV,p,611,cv,I,6,v,v,TRUE,1
CVOE updated,45,1,1,13,S 30,,,FALSE,CV,q,518,cv,S,0,c,c,TRUE,1
CVOE updated,45,1,1,14,D 20,,,FALSE,CV,q,622,cv,D,0,c,c,TRUE,1
CVOE updated,45,1,1,15,I 31,,,FALSE,CV,p,516,cv,I,1,v,v,TRUE,1
CVOE updated,45,1,1,16,P 16,,,FALSE,CV,q,781,cv,P,6,c,c,TRUE,1
CVOE updated,45,1,1,17,A 49,,,FALSE,CV,p,746,cv,A,9,v,v,TRUE,1
CVOE updated,45,1,1,18,O 64,,,TRUE,CV,p,448,cv,O,4,v,v,TRUE,1
CVOE updated,45,1,1,19,D 02,,,FALSE,CV,q,428,cv,D,2,c,c,TRUE,1
CVOE updated,45,1,1,20,P 81,,,TRUE,CV,q,473,cv,P,1,c,c,TRUE,1
CVOE updated,45,1,1,21,J 58,,,FALSE,CV,q,503,cv,J,8,c,c,TRUE,1
CVOE updated,45,1,1,22,A 22,,,TRUE,CV,p,404,cv,A,2,v,v,TRUE,1
CVOE updated,45,1,1,23,J 72,,,FALSE,CV,q,445,cv,J,2,c,c,TRUE,1
CVOE updated,45,1,1,24,P 91,,,TRUE,CV,q,533,cv,P,1,c,c,TRUE,1
CVOE updated,45,1,1,25,E 19,,,FALSE,CV,p,440,cv,E,9,v,v,TRUE,1
CVOE updated,45,1,1,26,I 30,,,TRUE,CV,p,473,cv,I,0,v,v,TRUE,1
CVOE updated,45,1,1,27,D 91,,,TRUE,CV,q,494,cv,D,1,c,c,TRUE,1
CVOE updated,45,1,1,28,O 48,,,TRUE,CV,p,593,cv,O,8,v,v,TRUE,1
CVOE updated,45,1,1,29,A 89,,,FALSE,CV,p,554,cv,A,9,v,v,TRUE,1
CVOE updated,45,1,1,30,U 11,,,FALSE,CV,p,562,cv,U,1,v,v,TRUE,1
CVOE updated,45,1,1,31,I 76,,,TRUE,CV,p,387,cv,I,6,v,v,TRUE,1
CVOE updated,45,1,1,32,U 89,,,FALSE,CV,p,432,cv,U,9,v,v,TRUE,1
CVOE updated,45,1,1,33,D 63,,,TRUE,CV,q,526,cv,D,3,c,c,TRUE,1
CVOE updated,45,1,1,34,H 70,,,FALSE,CV,q,606,cv,H,0,c,c,TRUE,1
CVOE updated,45,1,1,35,D 48,,,FALSE,CV,q,473,cv,D,8,c,c,TRUE,1
CVOE updated,45,1,1,36,P 56,,,FALSE,CV,q,442,cv,P,6,c,c,TRUE,1
CVOE updated,45,1,1,37,O 77,,,FALSE,CV,p,562,cv,O,7,v,v,TRUE,1
CVOE updated,45,1,1,38,P 42,,,FALSE,CV,q,611,cv,P,2,c,c,TRUE,1
CVOE updated,45,1,1,39,H 22,,,FALSE,CV,q,638,cv,H,2,c,c,TRUE,1
CVOE updated,45,1,1,40,E 42,,,TRUE,CV,p,670,cv,E,2,v,v,TRUE,1
CVOE updated,45,1,1,41,J 28,,,FALSE,CV,q,436,cv,J,8,c,c,TRUE,1
CVOE updated,45,1,1,42,E 95,,,FALSE,CV,p,404,cv,E,5,v,v,TRUE,1
CVOE updated,45,1,1,43,S 63,,,TRUE,CV,q,517,cv,S,3,c,c,TRUE,1
CVOE updated,45,1,1,44,H 50,,,FALSE,CV,q,357,cv,H,0,c,c,TRUE,1
CVOE updated,45,1,1,45,S 33,,,TRUE,CV,q,381,cv,S,3,c,c,TRUE,1
CVOE updated,45,1,1,46,P 57,,,TRUE,CV,q,419,cv,P,7,c,c,TRUE,1
CVOE updated,45,1,1,47,E 23,,,FALSE,CV,p,414,cv,E,3,v,v,TRUE,1
CVOE updated,45,1,1,48,S 61,,,TRUE,CV,q,425,cv,S,1,c,c,TRUE,1
CVOE updated,45,1,1,49,U 67,,,FALSE,CV,p,728,cv,U,7,v,v,TRUE,1
CVOE updated,45,1,1,50,H 32,,,FALSE,CV,q,482,cv,H,2,c,c,TRUE,1
CVOE updated,45,1,1,51,U 50,,,TRUE,CV,p,586,cv,U,0,v,v,TRUE,1
CVOE updated,45,1,1,52,O 49,,,FALSE,CV,p,544,cv,O,9,v,v,TRUE,1
CVOE updated,45,1,1,53,U 32,,,TRUE,CV,p,502,cv,U,2,v,v,TRUE,1
CVOE updated,45,1,1,54,J 78,,,FALSE,CV,q,412,cv,J,8,c,c,TRUE,1
CVOE updated,45,1,1,55,S 54,,,FALSE,CV,q,503,cv,S,4,c,c,TRUE,1
CVOE updated,45,1,1,56,J 27,,,TRUE,CV,q,396,cv,J,7,c,c,TRUE,1
CVOE updated,45,1,1,57,S 06,,,FALSE,CV,q,389,cv,S,6,c,c,TRUE,1
CVOE updated,45,1,1,58,D 67,,,TRUE,CV,q,466,cv,D,7,c,c,TRUE,1
CVOE updated,45,1,1,59,A 79,,,FALSE,CV,p,552,cv,A,9,v,v,TRUE,1
CVOE updated,45,1,1,60,S 52,,,FALSE,CV,q,430,cv,S,2,c,c,TRUE,1
CVOE updated,45,1,1,61,U 16,,,TRUE,CV,p,459,cv,U,6,v,v,TRUE,1
CVOE updated,45,1,1,62,O 82,,,TRUE,CV,p,454,cv,O,2,v,v,TRUE,1
CVOE updated,45,1,1,63,H 87,,,TRUE,CV,q,449,cv,H,7,c,c,TRUE,1
CVOE updated,45,1,1,64,I 32,,,TRUE,CV,p,565,cv,I,2,v,v,TRUE,1
CVOE updated,45,1,1,65,U 37,,,FALSE,CV,q,629,cv,U,7,v,c,FALSE,0
CVOE updated,45,1,1,66,I 42,,,TRUE,CV,p,1347,cv,I,2,v,v,TRUE,1
CVOE updated,45,1,1,67,D 65,,,TRUE,CV,q,633,cv,D,5,c,c,TRUE,1
CVOE updated,45,1,1,68,U 77,,,FALSE,CV,p,687,cv,U,7,v,v,TRUE,1
CVOE updated,45,1,1,69,E 12,,,TRUE,CV,p,514,cv,E,2,v,v,TRUE,1
CVOE updated,45,1,1,70,I 60,,,TRUE,CV,p,378,cv,I,0,v,v,TRUE,1
CVOE updated,45,1,1,71,J 36,,,FALSE,CV,q,469,cv,J,6,c,c,TRUE,1
CVOE updated,45,1,1,72,H 75,,,TRUE,CV,q,555,cv,H,5,c,c,TRUE,1
CVOE updated,45,1,1,73,I 50,,,TRUE,CV,p,547,cv,I,0,v,v,TRUE,1
CVOE updated,45,1,1,74,E 99,,,FALSE,CV,p,497,cv,E,9,v,v,TRUE,1
CVOE updated,45,1,1,75,A 86,,,TRUE,CV,p,868,cv,A,6,v,v,TRUE,1
CVOE updated,45,1,1,76,U 48,,,TRUE,CV,p,946,cv,U,8,v,v,TRUE,1
CVOE updated,45,1,1,77,E 01,,,FALSE,CV,p,512,cv,E,1,v,v,TRUE,1
CVOE updated,45,1,1,78,A 78,,,TRUE,CV,p,421,cv,A,8,v,v,TRUE,1
CVOE updated,45,1,1,79,P 60,,,FALSE,CV,q,467,cv,P,0,c,c,TRUE,1
CVOE updated,45,1,1,80,E 43,,,FALSE,CV,p,417,cv,E,3,v,v,TRUE,1
CVOE updated,45,1,1,81,D 69,,,TRUE,CV,q,492,cv,D,9,c,c,TRUE,1
CVOE updated,45,1,1,82,H 11,,,TRUE,CV,q,903,cv,H,1,c,c,TRUE,1
CVOE updated,45,1,1,83,P 43,,,TRUE,CV,q,461,cv,P,3,c,c,TRUE,1
CVOE updated,45,1,1,84,O 67,,,FALSE,CV,p,835,cv,O,7,v,v,TRUE,1
CVOE updated,45,1,1,85,S 91,,,FALSE,CV,q,1251,cv,S,1,c,c,TRUE,1
CVOE updated,45,1,1,86,J 68,,,TRUE,CV,q,702,cv,J,8,c,c,TRUE,1
CVOE updated,45,1,1,87,S 47,,,FALSE,CV,q,452,cv,S,7,c,c,TRUE,1
CVOE updated,45,1,1,88,I 81,,,TRUE,CV,p,503,cv,I,1,v,v,TRUE,1
CVOE updated,45,1,1,89,J 39,,,FALSE,CV,q,405,cv,J,9,c,c,TRUE,1
CVOE updated,45,1,1,90,A 11,,,TRUE,CV,p,501,cv,A,1,v,v,TRUE,1
CVOE updated,45,1,1,91,O 76,,,FALSE,CV,p,555,cv,O,6,v,v,TRUE,1
CVOE updated,45,1,1,92,A 62,,,FALSE,CV,p,379,cv,A,2,v,v,TRUE,1
CVOE updated,45,1,1,93,O 27,,,TRUE,CV,p,470,cv,O,7,v,v,TRUE,1
CVOE updated,45,1,1,94,E 66,,,FALSE,CV,p,356,cv,E,6,v,v,TRUE,1
CVOE updated,45,1,1,95,J 62,,,TRUE,CV,q,653,cv,J,2,c,c,TRUE,1
CVOE updated,45,1,1,96,H 72,,,TRUE,CV,q,472,cv,H,2,c,c,TRUE,1
CVOE updated,45,1,1,97,E 49,,,TRUE,CV,p,533,cv,E,9,v,v,TRUE,1
CVOE updated,45,1,1,98,D 52,,,TRUE,CV,q,392,cv,D,2,c,c,TRUE,1
CVOE updated,45,1,1,99,H 62,,,TRUE,CV,q,358,cv,H,2,c,c,TRUE,1
CVOE updated,45,1,1,100,I 11,,,TRUE,CV,p,510,cv,I,1,v,v,TRUE,1
CVOE updated,45,1,1,101,A 98,,,FALSE,CV,p,580,cv,A,8,v,v,TRUE,1
CVOE updated,45,1,1,102,H 29,,,FALSE,CV,q,562,cv,H,9,c,c,TRUE,1
CVOE updated,45,1,1,103,E 83,,,TRUE,CV,p,442,cv,E,3,v,v,TRUE,1
CVOE updated,45,1,1,104,D 43,,,FALSE,CV,q,459,cv,D,3,c,c,TRUE,1
CVOE updated,45,1,1,105,P 45,,,TRUE,CV,q,718,cv,P,5,c,c,TRUE,1
CVOE updated,45,1,1,106,J 17,,,TRUE,CV,q,406,cv,J,7,c,c,TRUE,1
CVOE updated,49,1,1,11,A 71,,,FALSE,CV,p,1233,cv,A,1,v,v,TRUE,1
CVOE updated,49,1,1,12,I 66,,,TRUE,CV,p,414,cv,I,6,v,v,TRUE,1
CVOE updated,49,1,1,13,S 30,,,FALSE,CV,q,555,cv,S,0,c,c,TRUE,1
CVOE updated,49,1,1,14,D 20,,,FALSE,CV,q,643,cv,D,0,c,c,TRUE,1
CVOE updated,49,1,1,15,I 31,,,FALSE,CV,p,452,cv,I,1,v,v,TRUE,1
CVOE updated,49,1,1,16,P 16,,,FALSE,CV,q,963,cv,P,6,c,c,TRUE,1
CVOE updated,49,1,1,17,A 49,,,FALSE,CV,p,522,cv,A,9,v,v,TRUE,1
CVOE updated,49,1,1,18,O 64,,,TRUE,CV,p,536,cv,O,4,v,v,TRUE,1
CVOE updated,49,1,1,19,D 02,,,FALSE,CV,q,472,cv,D,2,c,c,TRUE,1
CVOE updated,49,1,1,20,P 81,,,TRUE,CV,p,394,cv,P,1,c,v,FALSE,0
CVOE updated,49,1,1,21,J 58,,,FALSE,CV,q,2659,cv,J,8,c,c,TRUE,1
CVOE updated,49,1,1,22,A 22,,,TRUE,CV,p,541,cv,A,2,v,v,TRUE,1
CVOE updated,49,1,1,23,J 72,,,FALSE,CV,q,477,cv,J,2,c,c,TRUE,1
CVOE updated,49,1,1,24,P 91,,,TRUE,CV,q,378,cv,P,1,c,c,TRUE,1
CVOE updated,49,1,1,25,E 19,,,FALSE,CV,p,469,cv,E,9,v,v,TRUE,1
CVOE updated,49,1,1,26,I 30,,,TRUE,CV,p,2079,cv,I,0,v,v,TRUE,1
CVOE updated,49,1,1,27,D 91,,,TRUE,CV,q,471,cv,D,1,c,c,TRUE,1
CVOE updated,49,1,1,28,O 48,,,TRUE,CV,p,6053,cv,O,8,v,v,TRUE,1
CVOE updated,49,1,1,29,A 89,,,FALSE,CV,p,460,cv,A,9,v,v,TRUE,1
CVOE updated,49,1,1,30,U 11,,,FALSE,CV,p,504,cv,U,1,v,v,TRUE,1
CVOE updated,49,1,1,31,I 76,,,TRUE,CV,p,445,cv,I,6,v,v,TRUE,1
CVOE updated,49,1,1,32,U 89,,,FALSE,CV,p,666,cv,U,9,v,v,TRUE,1
CVOE updated,49,1,1,33,D 63,,,TRUE,CV,q,593,cv,D,3,c,c,TRUE,1
CVOE updated,49,1,1,34,H 70,,,FALSE,CV,q,725,cv,H,0,c,c,TRUE,1
CVOE updated,49,1,1,35,D 48,,,FALSE,CV,q,475,cv,D,8,c,c,TRUE,1
CVOE updated,49,1,1,36,P 56,,,FALSE,CV,q,411,cv,P,6,c,c,TRUE,1
CVOE updated,49,1,1,37,O 77,,,FALSE,CV,p,502,cv,O,7,v,v,TRUE,1
CVOE updated,49,1,1,38,P 42,,,FALSE,CV,q,611,cv,P,2,c,c,TRUE,1
CVOE updated,49,1,1,39,H 22,,,FALSE,CV,q,394,cv,H,2,c,c,TRUE,1
CVOE updated,49,1,1,40,E 42,,,TRUE,CV,p,439,cv,E,2,v,v,TRUE,1
CVOE updated,49,1,1,41,J 28,,,FALSE,CV,q,566,cv,J,8,c,c,TRUE,1
CVOE updated,49,1,1,42,E 95,,,FALSE,CV,p,462,cv,E,5,v,v,TRUE,1
CVOE updated,49,1,1,43,S 63,,,TRUE,CV,q,530,cv,S,3,c,c,TRUE,1
CVOE updated,49,1,1,44,H 50,,,FALSE,CV,q,579,cv,H,0,c,c,TRUE,1
CVOE updated,49,1,1,45,S 33,,,TRUE,CV,q,448,cv,S,3,c,c,TRUE,1
CVOE updated,49,1,1,46,P 57,,,TRUE,CV,q,340,cv,P,7,c,c,TRUE,1
CVOE updated,49,1,1,47,E 23,,,FALSE,CV,p,469,cv,E,3,v,v,TRUE,1
CVOE updated,49,1,1,48,S 61,,,TRUE,CV,q,594,cv,S,1,c,c,TRUE,1
CVOE updated,49,1,1,49,U 67,,,FALSE,CV,p,603,cv,U,7,v,v,TRUE,1
CVOE updated,49,1,1,50,H 32,,,FALSE,CV,q,556,cv,H,2,c,c,TRUE,1
CVOE updated,49,1,1,51,U 50,,,TRUE,CV,p,551,cv,U,0,v,v,TRUE,1
CVOE updated,49,1,1,52,O 49,,,FALSE,CV,p,653,cv,O,9,v,v,TRUE,1
CVOE updated,49,1,1,53,U 32,,,TRUE,CV,p,511,cv,U,2,v,v,TRUE,1
CVOE updated,49,1,1,54,J 78,,,FALSE,CV,q,577,cv,J,8,c,c,TRUE,1
CVOE updated,49,1,1,55,S 54,,,FALSE,CV,q,586,cv,S,4,c,c,TRUE,1
CVOE updated,49,1,1,56,J 27,,,TRUE,CV,q,368,cv,J,7,c,c,TRUE,1
CVOE updated,49,1,1,57,S 06,,,FALSE,CV,q,576,cv,S,6,c,c,TRUE,1
CVOE updated,49,1,1,58,D 67,,,TRUE,CV,q,349,cv,D,7,c,c,TRUE,1
CVOE updated,49,1,1,59,A 79,,,FALSE,CV,p,531,cv,A,9,v,v,TRUE,1
CVOE updated,49,1,1,60,S 52,,,FALSE,CV,q,712,cv,S,2,c,c,TRUE,1
CVOE updated,49,1,1,61,U 16,,,TRUE,CV,p,631,cv,U,6,v,v,TRUE,1
CVOE updated,49,1,1,62,O 82,,,TRUE,CV,p,1176,cv,O,2,v,v,TRUE,1
CVOE updated,49,1,1,63,H 87,,,TRUE,CV,q,615,cv,H,7,c,c,TRUE,1
CVOE updated,49,1,1,64,I 32,,,TRUE,CV,p,634,cv,I,2,v,v,TRUE,1
CVOE updated,49,1,1,65,U 37,,,FALSE,CV,p,1029,cv,U,7,v,v,TRUE,1
CVOE updated,49,1,1,66,I 42,,,TRUE,CV,p,451,cv,I,2,v,v,TRUE,1
CVOE updated,49,1,1,67,D 65,,,TRUE,CV,q,641,cv,D,5,c,c,TRUE,1
CVOE updated,49,1,1,68,U 77,,,FALSE,CV,p,977,cv,U,7,v,v,TRUE,1
CVOE updated,49,1,1,69,E 12,,,TRUE,CV,p,352,cv,E,2,v,v,TRUE,1
CVOE updated,49,1,1,70,I 60,,,TRUE,CV,p,339,cv,I,0,v,v,TRUE,1
CVOE updated,49,1,1,71,J 36,,,FALSE,CV,q,515,cv,J,6,c,c,TRUE,1
CVOE updated,49,1,1,72,H 75,,,TRUE,CV,q,658,cv,H,5,c,c,TRUE,1
CVOE updated,49,1,1,73,I 50,,,TRUE,CV,q,271,cv,I,0,v,c,FALSE,0
CVOE updated,49,1,1,74,E 99,,,FALSE,CV,p,758,cv,E,9,v,v,TRUE,1
CVOE updated,49,1,1,75,A 86,,,TRUE,CV,p,1183,cv,A,6,v,v,TRUE,1
CVOE updated,49,1,1,76,U 48,,,TRUE,CV,p,605,cv,U,8,v,v,TRUE,1
CVOE updated,49,1,1,77,E 01,,,FALSE,CV,p,593,cv,E,1,v,v,TRUE,1
CVOE updated,49,1,1,78,A 78,,,TRUE,CV,p,545,cv,A,8,v,v,TRUE,1
CVOE updated,49,1,1,79,P 60,,,FALSE,CV,q,599,cv,P,0,c,c,TRUE,1
CVOE updated,49,1,1,80,E 43,,,FALSE,CV,p,886,cv,E,3,v,v,TRUE,1
CVOE updated,49,1,1,81,D 69,,,TRUE,CV,q,601,cv,D,9,c,c,TRUE,1
CVOE updated,49,1,1,82,H 11,,,TRUE,CV,q,1810,cv,H,1,c,c,TRUE,1
CVOE updated,49,1,1,83,P 43,,,TRUE,CV,q,345,cv,P,3,c,c,TRUE,1
CVOE updated,49,1,1,84,O 67,,,FALSE,CV,p,534,cv,O,7,v,v,TRUE,1
CVOE updated,49,1,1,85,S 91,,,FALSE,CV,q,723,cv,S,1,c,c,TRUE,1
CVOE updated,49,1,1,86,J 68,,,TRUE,CV,q,371,cv,J,8,c,c,TRUE,1
CVOE updated,49,1,1,87,S 47,,,FALSE,CV,q,503,cv,S,7,c,c,TRUE,1
CVOE updated,49,1,1,88,I 81,,,TRUE,CV,p,523,cv,I,1,v,v,TRUE,1
CVOE updated,49,1,1,89,J 39,,,FALSE,CV,q,2020,cv,J,9,c,c,TRUE,1
CVOE updated,49,1,1,90,A 11,,,TRUE,CV,p,501,cv,A,1,v,v,TRUE,1
CVOE updated,49,1,1,91,O 76,,,FALSE,CV,p,2940,cv,O,6,v,v,TRUE,1
CVOE updated,49,1,1,92,A 62,,,FALSE,CV,p,319,cv,A,2,v,v,TRUE,1
CVOE updated,49,1,1,93,O 27,,,TRUE,CV,p,299,cv,O,7,v,v,TRUE,1
CVOE updated,49,1,1,94,E 66,,,FALSE,CV,p,317,cv,E,6,v,v,TRUE,1
CVOE updated,49,1,1,95,J 62,,,TRUE,CV,q,653,cv,J,2,c,c,TRUE,1
CVOE updated,49,1,1,96,H 72,,,TRUE,CV,q,679,cv,H,2,c,c,TRUE,1
CVOE updated,49,1,1,97,E 49,,,TRUE,CV,p,527,cv,E,9,v,v,TRUE,1
CVOE updated,49,1,1,98,D 52,,,TRUE,CV,q,553,cv,D,2,c,c,TRUE,1
CVOE updated,49,1,1,99,H 62,,,TRUE,CV,q,658,cv,H,2,c,c,TRUE,1
CVOE updated,49,1,1,100,I 11,,,TRUE,CV,p,431,cv,I,1,v,v,TRUE,1
CVOE updated,49,1,1,101,A 98,,,FALSE,CV,p,1144,cv,A,8,v,v,TRUE,1
CVOE updated,49,1,1,102,H 29,,,FALSE,CV,q,535,cv,H,9,c,c,TRUE,1
CVOE updated,49,1,1,103,E 83,,,TRUE,CV,p,589,cv,E,3,v,v,TRUE,1
CVOE updated,49,1,1,104,D 43,,,FALSE,CV,p,347,cv,D,3,c,v,FALSE,0
CVOE updated,49,1,1,105,P 45,,,TRUE,CV,q,985,cv,P,5,c,c,TRUE,1
CVOE updated,49,1,1,106,J 17,,,TRUE,CV,q,650,cv,J,7,c,c,TRUE,1
CVOE updated,53,1,1,11,A 71,,,FALSE,CV,p,779,cv,A,1,v,v,TRUE,1
CVOE updated,53,1,1,12,I 66,,,TRUE,CV,p,550,cv,I,6,v,v,TRUE,1
CVOE updated,53,1,1,13,S 30,,,FALSE,CV,q,489,cv,S,0,c,c,TRUE,1
CVOE updated,53,1,1,14,D 20,,,FALSE,CV,q,469,cv,D,0,c,c,TRUE,1
CVOE updated,53,1,1,15,I 31,,,FALSE,CV,p,396,cv,I,1,v,v,TRUE,1
CVOE updated,53,1,1,16,P 16,,,FALSE,CV,q,416,cv,P,6,c,c,TRUE,1
CVOE updated,53,1,1,17,A 49,,,FALSE,CV,p,348,cv,A,9,v,v,TRUE,1
CVOE updated,53,1,1,18,O 64,,,TRUE,CV,p,481,cv,O,4,v,v,TRUE,1
CVOE updated,53,1,1,19,D 02,,,FALSE,CV,q,465,cv,D,2,c,c,TRUE,1
CVOE updated,53,1,1,20,P 81,,,TRUE,CV,q,440,cv,P,1,c,c,TRUE,1
CVOE updated,53,1,1,21,J 58,,,FALSE,CV,q,565,cv,J,8,c,c,TRUE,1
CVOE updated,53,1,1,22,A 22,,,TRUE,CV,p,401,cv,A,2,v,v,TRUE,1
CVOE updated,53,1,1,23,J 72,,,FALSE,CV,q,446,cv,J,2,c,c,TRUE,1
CVOE updated,53,1,1,24,P 91,,,TRUE,CV,q,552,cv,P,1,c,c,TRUE,1
CVOE updated,53,1,1,25,E 19,,,FALSE,CV,p,471,cv,E,9,v,v,TRUE,1
CVOE updated,53,1,1,26,I 30,,,TRUE,CV,p,449,cv,I,0,v,v,TRUE,1
CVOE updated,53,1,1,27,D 91,,,TRUE,CV,q,448,cv,D,1,c,c,TRUE,1
CVOE updated,53,1,1,28,O 48,,,TRUE,CV,p,399,cv,O,8,v,v,TRUE,1
CVOE updated,53,1,1,29,A 89,,,FALSE,CV,q,422,cv,A,9,v,c,FALSE,0
CVOE updated,53,1,1,30,U 11,,,FALSE,CV,p,688,cv,U,1,v,v,TRUE,1
CVOE updated,53,1,1,31,I 76,,,TRUE,CV,p,454,cv,I,6,v,v,TRUE,1
CVOE updated,53,1,1,32,U 89,,,FALSE,CV,p,536,cv,U,9,v,v,TRUE,1
CVOE updated,53,1,1,33,D 63,,,TRUE,CV,q,484,cv,D,3,c,c,TRUE,1
CVOE updated,53,1,1,34,H 70,,,FALSE,CV,q,625,cv,H,0,c,c,TRUE,1
CVOE updated,53,1,1,35,D 48,,,FALSE,CV,q,577,cv,D,8,c,c,TRUE,1
CVOE updated,53,1,1,36,P 56,,,FALSE,CV,q,474,cv,P,6,c,c,TRUE,1
CVOE updated,53,1,1,37,O 77,,,FALSE,CV,p,475,cv,O,7,v,v,TRUE,1
CVOE updated,53,1,1,38,P 42,,,FALSE,CV,q,458,cv,P,2,c,c,TRUE,1
CVOE updated,53,1,1,39,H 22,,,FALSE,CV,q,428,cv,H,2,c,c,TRUE,1
CVOE updated,53,1,1,40,E 42,,,TRUE,CV,p,544,cv,E,2,v,v,TRUE,1
CVOE updated,53,1,1,41,J 28,,,FALSE,CV,q,556,cv,J,8,c,c,TRUE,1
CVOE updated,53,1,1,42,E 95,,,FALSE,CV,p,396,cv,E,5,v,v,TRUE,1
CVOE updated,53,1,1,43,S 63,,,TRUE,CV,q,435,cv,S,3,c,c,TRUE,1
CVOE updated,53,1,1,44,H 50,,,FALSE,CV,q,572,cv,H,0,c,c,TRUE,1
CVOE updated,53,1,1,45,S 33,,,TRUE,CV,q,444,cv,S,3,c,c,TRUE,1
CVOE updated,53,1,1,46,P 57,,,TRUE,CV,q,444,cv,P,7,c,c,TRUE,1
CVOE updated,53,1,1,47,E 23,,,FALSE,CV,p,709,cv,E,3,v,v,TRUE,1
CVOE updated,53,1,1,48,S 61,,,TRUE,CV,q,500,cv,S,1,c,c,TRUE,1
CVOE updated,53,1,1,49,U 67,,,FALSE,CV,p,391,cv,U,7,v,v,TRUE,1
CVOE updated,53,1,1,50,H 32,,,FALSE,CV,q,449,cv,H,2,c,c,TRUE,1
CVOE updated,53,1,1,51,U 50,,,TRUE,CV,p,577,cv,U,0,v,v,TRUE,1
CVOE updated,53,1,1,52,O 49,,,FALSE,CV,p,470,cv,O,9,v,v,TRUE,1
CVOE updated,53,1,1,53,U 32,,,TRUE,CV,p,439,cv,U,2,v,v,TRUE,1
CVOE updated,53,1,1,54,J 78,,,FALSE,CV,q,560,cv,J,8,c,c,TRUE,1
CVOE updated,53,1,1,55,S 54,,,FALSE,CV,q,517,cv,S,4,c,c,TRUE,1
CVOE updated,53,1,1,56,J 27,,,TRUE,CV,q,481,cv,J,7,c,c,TRUE,1
CVOE updated,53,1,1,57,S 06,,,FALSE,CV,q,440,cv,S,6,c,c,TRUE,1
CVOE updated,53,1,1,58,D 67,,,TRUE,CV,q,393,cv,D,7,c,c,TRUE,1
CVOE updated,53,1,1,59,A 79,,,FALSE,CV,p,497,cv,A,9,v,v,TRUE,1
CVOE updated,53,1,1,60,S 52,,,FALSE,CV,q,509,cv,S,2,c,c,TRUE,1
CVOE updated,53,1,1,61,U 16,,,TRUE,CV,p,638,cv,U,6,v,v,TRUE,1
CVOE updated,53,1,1,62,O 82,,,TRUE,CV,p,1026,cv,O,2,v,v,TRUE,1
CVOE updated,53,1,1,63,H 87,,,TRUE,CV,q,530,cv,H,7,c,c,TRUE,1
CVOE updated,53,1,1,64,I 32,,,TRUE,CV,p,495,cv,I,2,v,v,TRUE,1
CVOE updated,53,1,1,65,U 37,,,FALSE,CV,p,569,cv,U,7,v,v,TRUE,1
CVOE updated,53,1,1,66,I 42,,,TRUE,CV,p,601,cv,I,2,v,v,TRUE,1
CVOE updated,53,1,1,67,D 65,,,TRUE,CV,q,405,cv,D,5,c,c,TRUE,1
CVOE updated,53,1,1,68,U 77,,,FALSE,CV,p,400,cv,U,7,v,v,TRUE,1
CVOE updated,53,1,1,69,E 12,,,TRUE,CV,p,576,cv,E,2,v,v,TRUE,1
CVOE updated,53,1,1,70,I 60,,,TRUE,CV,p,423,cv,I,0,v,v,TRUE,1
CVOE updated,53,1,1,71,J 36,,,FALSE,CV,q,564,cv,J,6,c,c,TRUE,1
CVOE updated,53,1,1,72,H 75,,,TRUE,CV,q,630,cv,H,5,c,c,TRUE,1
CVOE updated,53,1,1,73,I 50,,,TRUE,CV,p,560,cv,I,0,v,v,TRUE,1
CVOE updated,53,1,1,74,E 99,,,FALSE,CV,p,511,cv,E,9,v,v,TRUE,1
CVOE updated,53,1,1,75,A 86,,,TRUE,CV,p,504,cv,A,6,v,v,TRUE,1
CVOE updated,53,1,1,76,U 48,,,TRUE,CV,p,473,cv,U,8,v,v,TRUE,1
CVOE updated,53,1,1,77,E 01,,,FALSE,CV,p,517,cv,E,1,v,v,TRUE,1
CVOE updated,53,1,1,78,A 78,,,TRUE,CV,p,465,cv,A,8,v,v,TRUE,1
CVOE updated,53,1,1,79,P 60,,,FALSE,CV,q,508,cv,P,0,c,c,TRUE,1
CVOE updated,53,1,1,80,E 43,,,FALSE,CV,p,348,cv,E,3,v,v,TRUE,1
CVOE updated,53,1,1,81,D 69,,,TRUE,CV,q,476,cv,D,9,c,c,TRUE,1
CVOE updated,53,1,1,82,H 11,,,TRUE,CV,p,376,cv,H,1,c,v,FALSE,0
CVOE updated,53,1,1,83,P 43,,,TRUE,CV,q,795,cv,P,3,c,c,TRUE,1
CVOE updated,53,1,1,84,O 67,,,FALSE,CV,p,442,cv,O,7,v,v,TRUE,1
CVOE updated,53,1,1,85,S 91,,,FALSE,CV,q,394,cv,S,1,c,c,TRUE,1
CVOE updated,53,1,1,86,J 68,,,TRUE,CV,q,416,cv,J,8,c,c,TRUE,1
CVOE updated,53,1,1,87,S 47,,,FALSE,CV,q,376,cv,S,7,c,c,TRUE,1
CVOE updated,53,1,1,88,I 81,,,TRUE,CV,p,581,cv,I,1,v,v,TRUE,1
CVOE updated,53,1,1,89,J 39,,,FALSE,CV,q,429,cv,J,9,c,c,TRUE,1
CVOE updated,53,1,1,90,A 11,,,TRUE,CV,p,522,cv,A,1,v,v,TRUE,1
CVOE updated,53,1,1,91,O 76,,,FALSE,CV,p,666,cv,O,6,v,v,TRUE,1
CVOE updated,53,1,1,92,A 62,,,FALSE,CV,p,326,cv,A,2,v,v,TRUE,1
CVOE updated,53,1,1,93,O 27,,,TRUE,CV,p,341,cv,O,7,v,v,TRUE,1
CVOE updated,53,1,1,94,E 66,,,FALSE,CV,p,319,cv,E,6,v,v,TRUE,1
CVOE updated,53,1,1,95,J 62,,,TRUE,CV,q,434,cv,J,2,c,c,TRUE,1
CVOE updated,53,1,1,96,H 72,,,TRUE,CV,q,359,cv,H,2,c,c,TRUE,1
CVOE updated,53,1,1,97,E 49,,,TRUE,CV,p,541,cv,E,9,v,v,TRUE,1
CVOE updated,53,1,1,98,D 52,,,TRUE,CV,q,420,cv,D,2,c,c,TRUE,1
CVOE updated,53,1,1,99,H 62,,,TRUE,CV,q,454,cv,H,2,c,c,TRUE,1
CVOE updated,53,1,1,100,I 11,,,TRUE,CV,p,456,cv,I,1,v,v,TRUE,1
CVOE updated,53,1,1,101,A 98,,,FALSE,CV,p,454,cv,A,8,v,v,TRUE,1
CVOE updated,53,1,1,102,H 29,,,FALSE,CV,q,522,cv,H,9,c,c,TRUE,1
CVOE updated,53,1,1,103,E 83,,,TRUE,CV,p,391,cv,E,3,v,v,TRUE,1
CVOE updated,53,1,1,104,D 43,,,FALSE,CV,q,495,cv,D,3,c,c,TRUE,1
CVOE updated,53,1,1,105,P 45,,,TRUE,CV,q,543,cv,P,5,c,c,TRUE,1
CVOE updated,53,1,1,106,J 17,,,TRUE,CV,q,371,cv,J,7,c,c,TRUE,1
CVOE updated,57,1,1,11,A 71,,,FALSE,CV,p,550,cv,A,1,v,v,TRUE,1
CVOE updated,57,1,1,12,I 66,,,TRUE,CV,p,580,cv,I,6,v,v,TRUE,1
CVOE updated,57,1,1,13,S 30,,,FALSE,CV,q,519,cv,S,0,c,c,TRUE,1
CVOE updated,57,1,1,14,D 20,,,FALSE,CV,q,415,cv,D,0,c,c,TRUE,1
CVOE updated,57,1,1,15,I 31,,,FALSE,CV,p,402,cv,I,1,v,v,TRUE,1
CVOE updated,57,1,1,16,P 16,,,FALSE,CV,q,451,cv,P,6,c,c,TRUE,1
CVOE updated,57,1,1,17,A 49,,,FALSE,CV,p,510,cv,A,9,v,v,TRUE,1
CVOE updated,57,1,1,18,O 64,,,TRUE,CV,p,436,cv,O,4,v,v,TRUE,1
CVOE updated,57,1,1,19,D 02,,,FALSE,CV,q,396,cv,D,2,c,c,TRUE,1
CVOE updated,57,1,1,20,P 81,,,TRUE,CV,q,508,cv,P,1,c,c,TRUE,1
CVOE updated,57,1,1,21,J 58,,,FALSE,CV,q,482,cv,J,8,c,c,TRUE,1
CVOE updated,57,1,1,22,A 22,,,TRUE,CV,p,434,cv,A,2,v,v,TRUE,1
CVOE updated,57,1,1,23,J 72,,,FALSE,CV,q,355,cv,J,2,c,c,TRUE,1
CVOE updated,57,1,1,24,P 91,,,TRUE,CV,q,395,cv,P,1,c,c,TRUE,1
CVOE updated,57,1,1,25,E 19,,,FALSE,CV,p,323,cv,E,9,v,v,TRUE,1
CVOE updated,57,1,1,26,I 30,,,TRUE,CV,p,316,cv,I,0,v,v,TRUE,1
CVOE updated,57,1,1,27,D 91,,,TRUE,CV,q,372,cv,D,1,c,c,TRUE,1
CVOE updated,57,1,1,28,O 48,,,TRUE,CV,p,375,cv,O,8,v,v,TRUE,1
CVOE updated,57,1,1,29,A 89,,,FALSE,CV,q,338,cv,A,9,v,c,FALSE,0
CVOE updated,57,1,1,30,U 11,,,FALSE,CV,q,341,cv,U,1,v,c,FALSE,0
CVOE updated,57,1,1,31,I 76,,,TRUE,CV,p,483,cv,I,6,v,v,TRUE,1
CVOE updated,57,1,1,32,U 89,,,FALSE,CV,p,363,cv,U,9,v,v,TRUE,1
CVOE updated,57,1,1,33,D 63,,,TRUE,CV,q,419,cv,D,3,c,c,TRUE,1
CVOE updated,57,1,1,34,H 70,,,FALSE,CV,q,415,cv,H,0,c,c,TRUE,1
CVOE updated,57,1,1,35,D 48,,,FALSE,CV,q,434,cv,D,8,c,c,TRUE,1
CVOE updated,57,1,1,36,P 56,,,FALSE,CV,q,386,cv,P,6,c,c,TRUE,1
CVOE updated,57,1,1,37,O 77,,,FALSE,CV,p,360,cv,O,7,v,v,TRUE,1
CVOE updated,57,1,1,38,P 42,,,FALSE,CV,q,344,cv,P,2,c,c,TRUE,1
CVOE updated,57,1,1,39,H 22,,,FALSE,CV,q,422,cv,H,2,c,c,TRUE,1
CVOE updated,57,1,1,40,E 42,,,TRUE,CV,p,331,cv,E,2,v,v,TRUE,1
CVOE updated,57,1,1,41,J 28,,,FALSE,CV,q,478,cv,J,8,c,c,TRUE,1
CVOE updated,57,1,1,42,E 95,,,FALSE,CV,p,383,cv,E,5,v,v,TRUE,1
CVOE updated,57,1,1,43,S 63,,,TRUE,CV,q,468,cv,S,3,c,c,TRUE,1
CVOE updated,57,1,1,44,H 50,,,FALSE,CV,q,354,cv,H,0,c,c,TRUE,1
CVOE updated,57,1,1,45,S 33,,,TRUE,CV,p,434,cv,S,3,c,v,FALSE,0
CVOE updated,57,1,1,46,P 57,,,TRUE,CV,q,595,cv,P,7,c,c,TRUE,1
CVOE updated,57,1,1,47,E 23,,,FALSE,CV,q,395,cv,E,3,v,c,FALSE,0
CVOE updated,57,1,1,48,S 61,,,TRUE,CV,q,411,cv,S,1,c,c,TRUE,1
CVOE updated,57,1,1,49,U 67,,,FALSE,CV,q,503,cv,U,7,v,c,FALSE,0
CVOE updated,57,1,1,50,H 32,,,FALSE,CV,q,404,cv,H,2,c,c,TRUE,1
CVOE updated,57,1,1,51,U 50,,,TRUE,CV,p,365,cv,U,0,v,v,TRUE,1
CVOE updated,57,1,1,52,O 49,,,FALSE,CV,p,437,cv,O,9,v,v,TRUE,1
CVOE updated,57,1,1,53,U 32,,,TRUE,CV,p,821,cv,U,2,v,v,TRUE,1
CVOE updated,57,1,1,54,J 78,,,FALSE,CV,q,363,cv,J,8,c,c,TRUE,1
CVOE updated,57,1,1,55,S 54,,,FALSE,CV,q,411,cv,S,4,c,c,TRUE,1
CVOE updated,57,1,1,56,J 27,,,TRUE,CV,q,318,cv,J,7,c,c,TRUE,1
CVOE updated,57,1,1,57,S 06,,,FALSE,CV,q,327,cv,S,6,c,c,TRUE,1
CVOE updated,57,1,1,58,D 67,,,TRUE,CV,q,391,cv,D,7,c,c,TRUE,1
CVOE updated,57,1,1,59,A 79,,,FALSE,CV,p,341,cv,A,9,v,v,TRUE,1
CVOE updated,57,1,1,60,S 52,,,FALSE,CV,q,434,cv,S,2,c,c,TRUE,1
CVOE updated,57,1,1,61,U 16,,,TRUE,CV,p,379,cv,U,6,v,v,TRUE,1
CVOE updated,57,1,1,62,O 82,,,TRUE,CV,p,342,cv,O,2,v,v,TRUE,1
CVOE updated,57,1,1,63,H 87,,,TRUE,CV,q,380,cv,H,7,c,c,TRUE,1
CVOE updated,57,1,1,64,I 32,,,TRUE,CV,p,351,cv,I,2,v,v,TRUE,1
CVOE updated,57,1,1,65,U 37,,,FALSE,CV,q,324,cv,U,7,v,c,FALSE,0
CVOE updated,57,1,1,66,I 42,,,TRUE,CV,p,508,cv,I,2,v,v,TRUE,1
CVOE updated,57,1,1,67,D 65,,,TRUE,CV,q,650,cv,D,5,c,c,TRUE,1
CVOE updated,57,1,1,68,U 77,,,FALSE,CV,p,405,cv,U,7,v,v,TRUE,1
CVOE updated,57,1,1,69,E 12,,,TRUE,CV,p,406,cv,E,2,v,v,TRUE,1
CVOE updated,57,1,1,70,I 60,,,TRUE,CV,p,374,cv,I,0,v,v,TRUE,1
CVOE updated,57,1,1,71,J 36,,,FALSE,CV,q,497,cv,J,6,c,c,TRUE,1
CVOE updated,57,1,1,72,H 75,,,TRUE,CV,q,460,cv,H,5,c,c,TRUE,1
CVOE updated,57,1,1,73,I 50,,,TRUE,CV,p,343,cv,I,0,v,v,TRUE,1
CVOE updated,57,1,1,74,E 99,,,FALSE,CV,p,413,cv,E,9,v,v,TRUE,1
CVOE updated,57,1,1,75,A 86,,,TRUE,CV,p,344,cv,A,6,v,v,TRUE,1
CVOE updated,57,1,1,76,U 48,,,TRUE,CV,p,309,cv,U,8,v,v,TRUE,1
CVOE updated,57,1,1,77,E 01,,,FALSE,CV,p,451,cv,E,1,v,v,TRUE,1
CVOE updated,57,1,1,78,A 78,,,TRUE,CV,p,358,cv,A,8,v,v,TRUE,1
CVOE updated,57,1,1,79,P 60,,,FALSE,CV,q,454,cv,P,0,c,c,TRUE,1
CVOE updated,57,1,1,80,E 43,,,FALSE,CV,p,378,cv,E,3,v,v,TRUE,1
CVOE updated,57,1,1,81,D 69,,,TRUE,CV,q,453,cv,D,9,c,c,TRUE,1
CVOE updated,57,1,1,82,H 11,,,TRUE,CV,q,368,cv,H,1,c,c,TRUE,1
CVOE updated,57,1,1,83,P 43,,,TRUE,CV,q,395,cv,P,3,c,c,TRUE,1
CVOE updated,57,1,1,84,O 67,,,FALSE,CV,p,355,cv,O,7,v,v,TRUE,1
CVOE updated,57,1,1,85,S 91,,,FALSE,CV,p,323,cv,S,1,c,v,FALSE,0
CVOE updated,57,1,1,86,J 68,,,TRUE,CV,q,500,cv,J,8,c,c,TRUE,1
CVOE updated,57,1,1,87,S 47,,,FALSE,CV,q,511,cv,S,7,c,c,TRUE,1
CVOE updated,57,1,1,88,I 81,,,TRUE,CV,p,364,cv,I,1,v,v,TRUE,1
CVOE updated,57,1,1,89,J 39,,,FALSE,CV,p,373,cv,J,9,c,v,FALSE,0
CVOE updated,57,1,1,90,A 11,,,TRUE,CV,p,384,cv,A,1,v,v,TRUE,1
CVOE updated,57,1,1,91,O 76,,,FALSE,CV,q,349,cv,O,6,v,c,FALSE,0
CVOE updated,57,1,1,92,A 62,,,FALSE,CV,p,523,cv,A,2,v,v,TRUE,1
CVOE updated,57,1,1,93,O 27,,,TRUE,CV,p,387,cv,O,7,v,v,TRUE,1
CVOE updated,57,1,1,94,E 66,,,FALSE,CV,p,361,cv,E,6,v,v,TRUE,1
CVOE updated,57,1,1,95,J 62,,,TRUE,CV,q,417,cv,J,2,c,c,TRUE,1
CVOE updated,57,1,1,96,H 72,,,TRUE,CV,q,436,cv,H,2,c,c,TRUE,1
CVOE updated,57,1,1,97,E 49,,,TRUE,CV,p,373,cv,E,9,v,v,TRUE,1
CVOE updated,57,1,1,98,D 52,,,TRUE,CV,q,352,cv,D,2,c,c,TRUE,1
CVOE updated,57,1,1,99,H 62,,,TRUE,CV,q,382,cv,H,2,c,c,TRUE,1
CVOE updated,57,1,1,100,I 11,,,TRUE,CV,p,483,cv,I,1,v,v,TRUE,1
CVOE updated,57,1,1,101,A 98,,,FALSE,CV,p,444,cv,A,8,v,v,TRUE,1
CVOE updated,57,1,1,102,H 29,,,FALSE,CV,q,428,cv,H,9,c,c,TRUE,1
CVOE updated,57,1,1,103,E 83,,,TRUE,CV,p,386,cv,E,3,v,v,TRUE,1
CVOE updated,57,1,1,104,D 43,,,FALSE,CV,q,319,cv,D,3,c,c,TRUE,1
CVOE updated,57,1,1,105,P 45,,,TRUE,CV,q,384,cv,P,5,c,c,TRUE,1
CVOE updated,57,1,1,106,J 17,,,TRUE,CV,p,349,cv,J,7,c,v,FALSE,0
CVOE updated,61,1,1,11,A 71,,,FALSE,CV,p,2085,cv,A,1,v,v,TRUE,1
CVOE updated,61,1,1,12,I 66,,,TRUE,CV,p,702,cv,I,6,v,v,TRUE,1
CVOE updated,61,1,1,13,S 30,,,FALSE,CV,q,500,cv,S,0,c,c,TRUE,1
CVOE updated,61,1,1,14,D 20,,,FALSE,CV,q,463,cv,D,0,c,c,TRUE,1
CVOE updated,61,1,1,15,I 31,,,FALSE,CV,p,444,cv,I,1,v,v,TRUE,1
CVOE updated,61,1,1,16,P 16,,,FALSE,CV,q,461,cv,P,6,c,c,TRUE,1
CVOE updated,61,1,1,17,A 49,,,FALSE,CV,p,475,cv,A,9,v,v,TRUE,1
CVOE updated,61,1,1,18,O 64,,,TRUE,CV,q,475,cv,O,4,v,c,FALSE,0
CVOE updated,61,1,1,19,D 02,,,FALSE,CV,q,659,cv,D,2,c,c,TRUE,1
CVOE updated,61,1,1,20,P 81,,,TRUE,CV,q,470,cv,P,1,c,c,TRUE,1
CVOE updated,61,1,1,21,J 58,,,FALSE,CV,q,372,cv,J,8,c,c,TRUE,1
CVOE updated,61,1,1,22,A 22,,,TRUE,CV,p,575,cv,A,2,v,v,TRUE,1
CVOE updated,61,1,1,23,J 72,,,FALSE,CV,q,562,cv,J,2,c,c,TRUE,1
CVOE updated,61,1,1,24,P 91,,,TRUE,CV,q,763,cv,P,1,c,c,TRUE,1
CVOE updated,61,1,1,25,E 19,,,FALSE,CV,p,555,cv,E,9,v,v,TRUE,1
CVOE updated,61,1,1,26,I 30,,,TRUE,CV,p,547,cv,I,0,v,v,TRUE,1
CVOE updated,61,1,1,27,D 91,,,TRUE,CV,q,505,cv,D,1,c,c,TRUE,1
CVOE updated,61,1,1,28,O 48,,,TRUE,CV,p,431,cv,O,8,v,v,TRUE,1
CVOE updated,61,1,1,29,A 89,,,FALSE,CV,p,509,cv,A,9,v,v,TRUE,1
CVOE updated,61,1,1,30,U 11,,,FALSE,CV,p,522,cv,U,1,v,v,TRUE,1
CVOE updated,61,1,1,31,I 76,,,TRUE,CV,p,579,cv,I,6,v,v,TRUE,1
CVOE updated,61,1,1,32,U 89,,,FALSE,CV,p,478,cv,U,9,v,v,TRUE,1
CVOE updated,61,1,1,33,D 63,,,TRUE,CV,q,622,cv,D,3,c,c,TRUE,1
CVOE updated,61,1,1,34,H 70,,,FALSE,CV,q,708,cv,H,0,c,c,TRUE,1
CVOE updated,61,1,1,35,D 48,,,FALSE,CV,q,506,cv,D,8,c,c,TRUE,1
CVOE updated,61,1,1,36,P 56,,,FALSE,CV,q,440,cv,P,6,c,c,TRUE,1
CVOE updated,61,1,1,37,O 77,,,FALSE,CV,p,440,cv,O,7,v,v,TRUE,1
CVOE updated,61,1,1,38,P 42,,,FALSE,CV,q,512,cv,P,2,c,c,TRUE,1
CVOE updated,61,1,1,39,H 22,,,FALSE,CV,q,478,cv,H,2,c,c,TRUE,1
CVOE updated,61,1,1,40,E 42,,,TRUE,CV,p,446,cv,E,2,v,v,TRUE,1
CVOE updated,61,1,1,41,J 28,,,FALSE,CV,q,423,cv,J,8,c,c,TRUE,1
CVOE updated,61,1,1,42,E 95,,,FALSE,CV,p,436,cv,E,5,v,v,TRUE,1
CVOE updated,61,1,1,43,S 63,,,TRUE,CV,q,461,cv,S,3,c,c,TRUE,1
CVOE updated,61,1,1,44,H 50,,,FALSE,CV,q,482,cv,H,0,c,c,TRUE,1
CVOE updated,61,1,1,45,S 33,,,TRUE,CV,q,403,cv,S,3,c,c,TRUE,1
CVOE updated,61,1,1,46,P 57,,,TRUE,CV,q,419,cv,P,7,c,c,TRUE,1
CVOE updated,61,1,1,47,E 23,,,FALSE,CV,p,414,cv,E,3,v,v,TRUE,1
CVOE updated,61,1,1,48,S 61,,,TRUE,CV,q,441,cv,S,1,c,c,TRUE,1
CVOE updated,61,1,1,49,U 67,,,FALSE,CV,p,426,cv,U,7,v,v,TRUE,1
CVOE updated,61,1,1,50,H 32,,,FALSE,CV,q,367,cv,H,2,c,c,TRUE,1
CVOE updated,61,1,1,51,U 50,,,TRUE,CV,p,418,cv,U,0,v,v,TRUE,1
CVOE updated,61,1,1,52,O 49,,,FALSE,CV,p,445,cv,O,9,v,v,TRUE,1
CVOE updated,61,1,1,53,U 32,,,TRUE,CV,p,470,cv,U,2,v,v,TRUE,1
CVOE updated,61,1,1,54,J 78,,,FALSE,CV,q,443,cv,J,8,c,c,TRUE,1
CVOE updated,61,1,1,55,S 54,,,FALSE,CV,q,556,cv,S,4,c,c,TRUE,1
CVOE updated,61,1,1,56,J 27,,,TRUE,CV,q,444,cv,J,7,c,c,TRUE,1
CVOE updated,61,1,1,57,S 06,,,FALSE,CV,q,349,cv,S,6,c,c,TRUE,1
CVOE updated,61,1,1,58,D 67,,,TRUE,CV,q,338,cv,D,7,c,c,TRUE,1
CVOE updated,61,1,1,59,A 79,,,FALSE,CV,q,309,cv,A,9,v,c,FALSE,0
CVOE updated,61,1,1,60,S 52,,,FALSE,CV,q,643,cv,S,2,c,c,TRUE,1
CVOE updated,61,1,1,61,U 16,,,TRUE,CV,p,499,cv,U,6,v,v,TRUE,1
CVOE updated,61,1,1,62,O 82,,,TRUE,CV,p,478,cv,O,2,v,v,TRUE,1
CVOE updated,61,1,1,63,H 87,,,TRUE,CV,q,639,cv,H,7,c,c,TRUE,1
CVOE updated,61,1,1,64,I 32,,,TRUE,CV,p,631,cv,I,2,v,v,TRUE,1
CVOE updated,61,1,1,65,U 37,,,FALSE,CV,p,549,cv,U,7,v,v,TRUE,1
CVOE updated,61,1,1,66,I 42,,,TRUE,CV,p,539,cv,I,2,v,v,TRUE,1
CVOE updated,61,1,1,67,D 65,,,TRUE,CV,q,622,cv,D,5,c,c,TRUE,1
CVOE updated,61,1,1,68,U 77,,,FALSE,CV,p,508,cv,U,7,v,v,TRUE,1
CVOE updated,61,1,1,69,E 12,,,TRUE,CV,p,545,cv,E,2,v,v,TRUE,1
CVOE updated,61,1,1,70,I 60,,,TRUE,CV,p,439,cv,I,0,v,v,TRUE,1
CVOE updated,61,1,1,71,J 36,,,FALSE,CV,q,503,cv,J,6,c,c,TRUE,1
CVOE updated,61,1,1,72,H 75,,,TRUE,CV,q,517,cv,H,5,c,c,TRUE,1
CVOE updated,61,1,1,73,I 50,,,TRUE,CV,p,589,cv,I,0,v,v,TRUE,1
CVOE updated,61,1,1,74,E 99,,,FALSE,CV,p,603,cv,E,9,v,v,TRUE,1
CVOE updated,61,1,1,75,A 86,,,TRUE,CV,p,588,cv,A,6,v,v,TRUE,1
CVOE updated,61,1,1,76,U 48,,,TRUE,CV,p,553,cv,U,8,v,v,TRUE,1
CVOE updated,61,1,1,77,E 01,,,FALSE,CV,p,530,cv,E,1,v,v,TRUE,1
CVOE updated,61,1,1,78,A 78,,,TRUE,CV,p,533,cv,A,8,v,v,TRUE,1
CVOE updated,61,1,1,79,P 60,,,FALSE,CV,q,488,cv,P,0,c,c,TRUE,1
CVOE updated,61,1,1,80,E 43,,,FALSE,CV,p,555,cv,E,3,v,v,TRUE,1
CVOE updated,61,1,1,81,D 69,,,TRUE,CV,q,467,cv,D,9,c,c,TRUE,1
CVOE updated,61,1,1,82,H 11,,,TRUE,CV,q,473,cv,H,1,c,c,TRUE,1
CVOE updated,61,1,1,83,P 43,,,TRUE,CV,q,450,cv,P,3,c,c,TRUE,1
CVOE updated,61,1,1,84,O 67,,,FALSE,CV,p,461,cv,O,7,v,v,TRUE,1
CVOE updated,61,1,1,85,S 91,,,FALSE,CV,q,570,cv,S,1,c,c,TRUE,1
CVOE updated,61,1,1,86,J 68,,,TRUE,CV,q,533,cv,J,8,c,c,TRUE,1
CVOE updated,61,1,1,87,S 47,,,FALSE,CV,q,504,cv,S,7,c,c,TRUE,1
CVOE updated,61,1,1,88,I 81,,,TRUE,CV,p,470,cv,I,1,v,v,TRUE,1
CVOE updated,61,1,1,89,J 39,,,FALSE,CV,q,500,cv,J,9,c,c,TRUE,1
CVOE updated,61,1,1,90,A 11,,,TRUE,CV,p,479,cv,A,1,v,v,TRUE,1
CVOE updated,61,1,1,91,O 76,,,FALSE,CV,p,519,cv,O,6,v,v,TRUE,1
CVOE updated,61,1,1,92,A 62,,,FALSE,CV,p,536,cv,A,2,v,v,TRUE,1
CVOE updated,61,1,1,93,O 27,,,TRUE,CV,p,563,cv,O,7,v,v,TRUE,1
CVOE updated,61,1,1,94,E 66,,,FALSE,CV,p,483,cv,E,6,v,v,TRUE,1
CVOE updated,61,1,1,95,J 62,,,TRUE,CV,q,460,cv,J,2,c,c,TRUE,1
CVOE updated,61,1,1,96,H 72,,,TRUE,CV,q,727,cv,H,2,c,c,TRUE,1
CVOE updated,61,1,1,97,E 49,,,TRUE,CV,p,522,cv,E,9,v,v,TRUE,1
CVOE updated,61,1,1,98,D 52,,,TRUE,CV,q,522,cv,D,2,c,c,TRUE,1
CVOE updated,61,1,1,99,H 62,,,TRUE,CV,q,483,cv,H,2,c,c,TRUE,1
CVOE updated,61,1,1,100,I 11,,,TRUE,CV,p,515,cv,I,1,v,v,TRUE,1
CVOE updated,61,1,1,101,A 98,,,FALSE,CV,p,467,cv,A,8,v,v,TRUE,1
CVOE updated,61,1,1,102,H 29,,,FALSE,CV,q,529,cv,H,9,c,c,TRUE,1
CVOE updated,61,1,1,103,E 83,,,TRUE,CV,p,436,cv,E,3,v,v,TRUE,1
CVOE updated,61,1,1,104,D 43,,,FALSE,CV,q,484,cv,D,3,c,c,TRUE,1
CVOE updated,61,1,1,105,P 45,,,TRUE,CV,q,477,cv,P,5,c,c,TRUE,1
CVOE updated,61,1,1,106,J 17,,,TRUE,CV,q,429,cv,J,7,c,c,TRUE,1
CVOE updated,65,1,1,11,A 71,,,FALSE,CV,p,957,cv,A,1,v,v,TRUE,1
CVOE updated,65,1,1,12,I 66,,,TRUE,CV,p,918,cv,I,6,v,v,TRUE,1
CVOE updated,65,1,1,13,S 30,,,FALSE,CV,q,510,cv,S,0,c,c,TRUE,1
CVOE updated,65,1,1,14,D 20,,,FALSE,CV,q,589,cv,D,0,c,c,TRUE,1
CVOE updated,65,1,1,15,I 31,,,FALSE,CV,q,530,cv,I,1,v,c,FALSE,0
CVOE updated,65,1,1,16,P 16,,,FALSE,CV,q,709,cv,P,6,c,c,TRUE,1
CVOE updated,65,1,1,17,A 49,,,FALSE,CV,p,579,cv,A,9,v,v,TRUE,1
CVOE updated,65,1,1,18,O 64,,,TRUE,CV,p,590,cv,O,4,v,v,TRUE,1
CVOE updated,65,1,1,19,D 02,,,FALSE,CV,q,532,cv,D,2,c,c,TRUE,1
CVOE updated,65,1,1,20,P 81,,,TRUE,CV,q,647,cv,P,1,c,c,TRUE,1
CVOE updated,65,1,1,21,J 58,,,FALSE,CV,q,586,cv,J,8,c,c,TRUE,1
CVOE updated,65,1,1,22,A 22,,,TRUE,CV,p,520,cv,A,2,v,v,TRUE,1
CVOE updated,65,1,1,23,J 72,,,FALSE,CV,q,552,cv,J,2,c,c,TRUE,1
CVOE updated,65,1,1,24,P 91,,,TRUE,CV,p,502,cv,P,1,c,v,FALSE,0
CVOE updated,65,1,1,25,E 19,,,FALSE,CV,p,1035,cv,E,9,v,v,TRUE,1
CVOE updated,65,1,1,26,I 30,,,TRUE,CV,p,668,cv,I,0,v,v,TRUE,1
CVOE updated,65,1,1,27,D 91,,,TRUE,CV,q,514,cv,D,1,c,c,TRUE,1
CVOE updated,65,1,1,28,O 48,,,TRUE,CV,p,674,cv,O,8,v,v,TRUE,1
CVOE updated,65,1,1,29,A 89,,,FALSE,CV,p,611,cv,A,9,v,v,TRUE,1
CVOE updated,65,1,1,30,U 11,,,FALSE,CV,p,782,cv,U,1,v,v,TRUE,1
CVOE updated,65,1,1,31,I 76,,,TRUE,CV,p,580,cv,I,6,v,v,TRUE,1
CVOE updated,65,1,1,32,U 89,,,FALSE,CV,p,639,cv,U,9,v,v,TRUE,1
CVOE updated,65,1,1,33,D 63,,,TRUE,CV,q,623,cv,D,3,c,c,TRUE,1
CVOE updated,65,1,1,34,H 70,,,FALSE,CV,q,637,cv,H,0,c,c,TRUE,1
CVOE updated,65,1,1,35,D 48,,,FALSE,CV,q,725,cv,D,8,c,c,TRUE,1
CVOE updated,65,1,1,36,P 56,,,FALSE,CV,q,3510,cv,P,6,c,c,TRUE,1
CVOE updated,65,1,1,37,O 77,,,FALSE,CV,p,717,cv,O,7,v,v,TRUE,1
CVOE updated,65,1,1,38,P 42,,,FALSE,CV,q,573,cv,P,2,c,c,TRUE,1
CVOE updated,65,1,1,39,H 22,,,FALSE,CV,q,592,cv,H,2,c,c,TRUE,1
CVOE updated,65,1,1,40,E 42,,,TRUE,CV,p,598,cv,E,2,v,v,TRUE,1
CVOE updated,65,1,1,41,J 28,,,FALSE,CV,q,446,cv,J,8,c,c,TRUE,1
CVOE updated,65,1,1,42,E 95,,,FALSE,CV,p,561,cv,E,5,v,v,TRUE,1
CVOE updated,65,1,1,43,S 63,,,TRUE,CV,q,482,cv,S,3,c,c,TRUE,1
CVOE updated,65,1,1,44,H 50,,,FALSE,CV,q,546,cv,H,0,c,c,TRUE,1
CVOE updated,65,1,1,45,S 33,,,TRUE,CV,q,480,cv,S,3,c,c,TRUE,1
CVOE updated,65,1,1,46,P 57,,,TRUE,CV,q,584,cv,P,7,c,c,TRUE,1
CVOE updated,65,1,1,47,E 23,,,FALSE,CV,p,830,cv,E,3,v,v,TRUE,1
CVOE updated,65,1,1,48,S 61,,,TRUE,CV,q,516,cv,S,1,c,c,TRUE,1
CVOE updated,65,1,1,49,U 67,,,FALSE,CV,p,532,cv,U,7,v,v,TRUE,1
CVOE updated,65,1,1,50,H 32,,,FALSE,CV,q,495,cv,H,2,c,c,TRUE,1
CVOE updated,65,1,1,51,U 50,,,TRUE,CV,p,570,cv,U,0,v,v,TRUE,1
CVOE updated,65,1,1,52,O 49,,,FALSE,CV,p,526,cv,O,9,v,v,TRUE,1
CVOE updated,65,1,1,53,U 32,,,TRUE,CV,p,550,cv,U,2,v,v,TRUE,1
CVOE updated,65,1,1,54,J 78,,,FALSE,CV,q,460,cv,J,8,c,c,TRUE,1
CVOE updated,65,1,1,55,S 54,,,FALSE,CV,q,473,cv,S,4,c,c,TRUE,1
CVOE updated,65,1,1,56,J 27,,,TRUE,CV,q,450,cv,J,7,c,c,TRUE,1
CVOE updated,65,1,1,57,S 06,,,FALSE,CV,q,493,cv,S,6,c,c,TRUE,1
CVOE updated,65,1,1,58,D 67,,,TRUE,CV,q,536,cv,D,7,c,c,TRUE,1
CVOE updated,65,1,1,59,A 79,,,FALSE,CV,p,483,cv,A,9,v,v,TRUE,1
CVOE updated,65,1,1,60,S 52,,,FALSE,CV,q,531,cv,S,2,c,c,TRUE,1
CVOE updated,65,1,1,61,U 16,,,TRUE,CV,p,518,cv,U,6,v,v,TRUE,1
CVOE updated,65,1,1,62,O 82,,,TRUE,CV,p,455,cv,O,2,v,v,TRUE,1
CVOE updated,65,1,1,63,H 87,,,TRUE,CV,q,498,cv,H,7,c,c,TRUE,1
CVOE updated,65,1,1,64,I 32,,,TRUE,CV,p,565,cv,I,2,v,v,TRUE,1
CVOE updated,65,1,1,65,U 37,,,FALSE,CV,p,485,cv,U,7,v,v,TRUE,1
CVOE updated,65,1,1,66,I 42,,,TRUE,CV,p,510,cv,I,2,v,v,TRUE,1
CVOE updated,65,1,1,67,D 65,,,TRUE,CV,q,491,cv,D,5,c,c,TRUE,1
CVOE updated,65,1,1,68,U 77,,,FALSE,CV,p,566,cv,U,7,v,v,TRUE,1
CVOE updated,65,1,1,69,E 12,,,TRUE,CV,p,458,cv,E,2,v,v,TRUE,1
CVOE updated,65,1,1,70,I 60,,,TRUE,CV,q,421,cv,I,0,v,c,FALSE,0
CVOE updated,65,1,1,71,J 36,,,FALSE,CV,q,731,cv,J,6,c,c,TRUE,1
CVOE updated,65,1,1,72,H 75,,,TRUE,CV,q,693,cv,H,5,c,c,TRUE,1
CVOE updated,65,1,1,73,I 50,,,TRUE,CV,p,529,cv,I,0,v,v,TRUE,1
CVOE updated,65,1,1,74,E 99,,,FALSE,CV,p,492,cv,E,9,v,v,TRUE,1
CVOE updated,65,1,1,75,A 86,,,TRUE,CV,p,495,cv,A,6,v,v,TRUE,1
CVOE updated,65,1,1,76,U 48,,,TRUE,CV,p,466,cv,U,8,v,v,TRUE,1
CVOE updated,65,1,1,77,E 01,,,FALSE,CV,p,447,cv,E,1,v,v,TRUE,1
CVOE updated,65,1,1,78,A 78,,,TRUE,CV,p,458,cv,A,8,v,v,TRUE,1
CVOE updated,65,1,1,79,P 60,,,FALSE,CV,q,646,cv,P,0,c,c,TRUE,1
CVOE updated,65,1,1,80,E 43,,,FALSE,CV,p,1070,cv,E,3,v,v,TRUE,1
CVOE updated,65,1,1,81,D 69,,,TRUE,CV,q,660,cv,D,9,c,c,TRUE,1
CVOE updated,65,1,1,82,H 11,,,TRUE,CV,q,634,cv,H,1,c,c,TRUE,1
CVOE updated,65,1,1,83,P 43,,,TRUE,CV,q,514,cv,P,3,c,c,TRUE,1
CVOE updated,65,1,1,84,O 67,,,FALSE,CV,p,539,cv,O,7,v,v,TRUE,1
CVOE updated,65,1,1,85,S 91,,,FALSE,CV,q,534,cv,S,1,c,c,TRUE,1
CVOE updated,65,1,1,86,J 68,,,TRUE,CV,q,529,cv,J,8,c,c,TRUE,1
CVOE updated,65,1,1,87,S 47,,,FALSE,CV,q,444,cv,S,7,c,c,TRUE,1
CVOE updated,65,1,1,88,I 81,,,TRUE,CV,p,740,cv,I,1,v,v,TRUE,1
CVOE updated,65,1,1,89,J 39,,,FALSE,CV,q,506,cv,J,9,c,c,TRUE,1
CVOE updated,65,1,1,90,A 11,,,TRUE,CV,p,512,cv,A,1,v,v,TRUE,1
CVOE updated,65,1,1,91,O 76,,,FALSE,CV,p,485,cv,O,6,v,v,TRUE,1
CVOE updated,65,1,1,92,A 62,,,FALSE,CV,p,470,cv,A,2,v,v,TRUE,1
CVOE updated,65,1,1,93,O 27,,,TRUE,CV,p,563,cv,O,7,v,v,TRUE,1
CVOE updated,65,1,1,94,E 66,,,FALSE,CV,p,572,cv,E,6,v,v,TRUE,1
CVOE updated,65,1,1,95,J 62,,,TRUE,CV,q,639,cv,J,2,c,c,TRUE,1
CVOE updated,65,1,1,96,H 72,,,TRUE,CV,q,663,cv,H,2,c,c,TRUE,1
CVOE updated,65,1,1,97,E 49,,,TRUE,CV,p,477,cv,E,9,v,v,TRUE,1
CVOE updated,65,1,1,98,D 52,,,TRUE,CV,q,574,cv,D,2,c,c,TRUE,1
CVOE updated,65,1,1,99,H 62,,,TRUE,CV,q,561,cv,H,2,c,c,TRUE,1
CVOE updated,65,1,1,100,I 11,,,TRUE,CV,p,457,cv,I,1,v,v,TRUE,1
CVOE updated,65,1,1,101,A 98,,,FALSE,CV,p,476,cv,A,8,v,v,TRUE,1
CVOE updated,65,1,1,102,H 29,,,FALSE,CV,q,501,cv,H,9,c,c,TRUE,1
CVOE updated,65,1,1,103,E 83,,,TRUE,CV,p,514,cv,E,3,v,v,TRUE,1
CVOE updated,65,1,1,104,D 43,,,FALSE,CV,q,483,cv,D,3,c,c,TRUE,1
CVOE updated,65,1,1,105,P 45,,,TRUE,CV,q,579,cv,P,5,c,c,TRUE,1
CVOE updated,65,1,1,106,J 17,,,TRUE,CV,q,486,cv,J,7,c,c,TRUE,1
CVOE_B,46,1,2,11,A 71,,,FALSE,CV,p,1250,cv,A,1,v,v,TRUE,1
CVOE_B,46,1,2,12,I 66,,,TRUE,CV,q,773,cv,I,6,v,c,FALSE,0
CVOE_B,46,1,2,13,S 30,,,FALSE,CV,q,608,cv,S,0,c,c,TRUE,1
CVOE_B,46,1,2,14,D 20,,,FALSE,CV,q,675,cv,D,0,c,c,TRUE,1
CVOE_B,46,1,2,15,I 31,,,FALSE,CV,p,588,cv,I,1,v,v,TRUE,1
CVOE_B,46,1,2,16,P 16,,,FALSE,CV,q,650,cv,P,6,c,c,TRUE,1
CVOE_B,46,1,2,17,A 49,,,FALSE,CV,p,533,cv,A,9,v,v,TRUE,1
CVOE_B,46,1,2,18,O 64,,,TRUE,CV,p,512,cv,O,4,v,v,TRUE,1
CVOE_B,46,1,2,19,D 02,,,FALSE,CV,q,838,cv,D,2,c,c,TRUE,1
CVOE_B,46,1,2,20,P 81,,,TRUE,CV,q,806,cv,P,1,c,c,TRUE,1
CVOE_B,46,1,2,21,J 58,,,FALSE,CV,q,399,cv,J,8,c,c,TRUE,1
CVOE_B,46,1,2,22,A 22,,,TRUE,CV,p,567,cv,A,2,v,v,TRUE,1
CVOE_B,46,1,2,23,J 72,,,FALSE,CV,q,695,cv,J,2,c,c,TRUE,1
CVOE_B,46,1,2,24,P 91,,,TRUE,CV,q,530,cv,P,1,c,c,TRUE,1
CVOE_B,46,1,2,25,E 19,,,FALSE,CV,q,406,cv,E,9,v,c,FALSE,0
CVOE_B,46,1,2,26,I 30,,,TRUE,CV,p,590,cv,I,0,v,v,TRUE,1
CVOE_B,46,1,2,27,D 91,,,TRUE,CV,q,620,cv,D,1,c,c,TRUE,1
CVOE_B,46,1,2,28,O 48,,,TRUE,CV,p,543,cv,O,8,v,v,TRUE,1
CVOE_B,46,1,2,29,A 89,,,FALSE,CV,p,428,cv,A,9,v,v,TRUE,1
CVOE_B,46,1,2,30,U 11,,,FALSE,CV,p,610,cv,U,1,v,v,TRUE,1
CVOE_B,46,1,2,31,I 76,,,TRUE,CV,p,429,cv,I,6,v,v,TRUE,1
CVOE_B,46,1,2,32,U 89,,,FALSE,CV,p,579,cv,U,9,v,v,TRUE,1
CVOE_B,46,1,2,33,D 63,,,TRUE,CV,q,614,cv,D,3,c,c,TRUE,1
CVOE_B,46,1,2,34,H 70,,,FALSE,CV,q,465,cv,H,0,c,c,TRUE,1
CVOE_B,46,1,2,35,D 48,,,FALSE,CV,q,383,cv,D,8,c,c,TRUE,1
CVOE_B,46,1,2,36,P 56,,,FALSE,CV,q,557,cv,P,6,c,c,TRUE,1
CVOE_B,46,1,2,37,O 77,,,FALSE,CV,p,525,cv,O,7,v,v,TRUE,1
CVOE_B,46,1,2,38,P 42,,,FALSE,CV,q,733,cv,P,2,c,c,TRUE,1
CVOE_B,46,1,2,39,H 22,,,FALSE,CV,q,616,cv,H,2,c,c,TRUE,1
CVOE_B,46,1,2,40,E 42,,,TRUE,CV,p,764,cv,E,2,v,v,TRUE,1
CVOE_B,46,1,2,41,J 28,,,FALSE,CV,q,516,cv,J,8,c,c,TRUE,1
CVOE_B,46,1,2,42,E 95,,,FALSE,CV,p,564,cv,E,5,v,v,TRUE,1
CVOE_B,46,1,2,43,S 63,,,TRUE,CV,q,397,cv,S,3,c,c,TRUE,1
CVOE_B,46,1,2,44,H 50,,,FALSE,CV,q,453,cv,H,0,c,c,TRUE,1
CVOE_B,46,1,2,45,S 33,,,TRUE,CV,q,448,cv,S,3,c,c,TRUE,1
CVOE_B,46,1,2,46,P 57,,,TRUE,CV,q,355,cv,P,7,c,c,TRUE,1
CVOE_B,46,1,2,47,E 23,,,FALSE,CV,p,484,cv,E,3,v,v,TRUE,1
CVOE_B,46,1,2,48,S 61,,,TRUE,CV,q,540,cv,S,1,c,c,TRUE,1
CVOE_B,46,1,2,49,U 67,,,FALSE,CV,p,495,cv,U,7,v,v,TRUE,1
CVOE_B,46,1,2,50,H 32,,,FALSE,CV,q,410,cv,H,2,c,c,TRUE,1
CVOE_B,46,1,2,51,U 50,,,TRUE,CV,p,653,cv,U,0,v,v,TRUE,1
CVOE_B,46,1,2,52,O 49,,,FALSE,CV,p,576,cv,O,9,v,v,TRUE,1
CVOE_B,46,1,2,53,U 32,,,TRUE,CV,p,499,cv,U,2,v,v,TRUE,1
CVOE_B,46,1,2,54,J 78,,,FALSE,CV,q,374,cv,J,8,c,c,TRUE,1
CVOE_B,46,1,2,55,S 54,,,FALSE,CV,p,689,cv,S,4,c,v,FALSE,0
CVOE_B,46,1,2,56,J 27,,,TRUE,CV,q,461,cv,J,7,c,c,TRUE,1
CVOE_B,46,1,2,57,S 06,,,FALSE,CV,q,560,cv,S,6,c,c,TRUE,1
CVOE_B,46,1,2,58,D 67,,,TRUE,CV,q,480,cv,D,7,c,c,TRUE,1
CVOE_B,46,1,2,59,A 79,,,FALSE,CV,p,512,cv,A,9,v,v,TRUE,1
CVOE_B,46,1,2,60,S 52,,,FALSE,CV,q,486,cv,S,2,c,c,TRUE,1
CVOE_B,46,1,2,61,U 16,,,TRUE,CV,p,518,cv,U,6,v,v,TRUE,1
CVOE_B,46,1,2,62,O 82,,,TRUE,CV,p,519,cv,O,2,v,v,TRUE,1
CVOE_B,46,1,2,63,H 87,,,TRUE,CV,q,599,cv,H,7,c,c,TRUE,1
CVOE_B,46,1,2,64,I 32,,,TRUE,CV,p,2136,cv,I,2,v,v,TRUE,1
CVOE_B,46,1,2,65,U 37,,,FALSE,CV,p,763,cv,U,7,v,v,TRUE,1
CVOE_B,46,1,2,66,I 42,,,TRUE,CV,p,828,cv,I,2,v,v,TRUE,1
CVOE_B,46,1,2,67,D 65,,,TRUE,CV,q,1754,cv,D,5,c,c,TRUE,1
CVOE_B,46,1,2,68,U 77,,,FALSE,CV,p,1651,cv,U,7,v,v,TRUE,1
CVOE_B,46,1,2,69,E 12,,,TRUE,CV,p,614,cv,E,2,v,v,TRUE,1
CVOE_B,46,1,2,70,I 60,,,TRUE,CV,p,497,cv,I,0,v,v,TRUE,1
CVOE_B,46,1,2,71,J 36,,,FALSE,CV,q,508,cv,J,6,c,c,TRUE,1
CVOE_B,46,1,2,72,H 75,,,TRUE,CV,q,1298,cv,H,5,c,c,TRUE,1
CVOE_B,46,1,2,73,I 50,,,TRUE,CV,p,3509,cv,I,0,v,v,TRUE,1
CVOE_B,46,1,2,74,E 99,,,FALSE,CV,p,2236,cv,E,9,v,v,TRUE,1
CVOE_B,46,1,2,75,A 86,,,TRUE,CV,p,613,cv,A,6,v,v,TRUE,1
CVOE_B,46,1,2,76,U 48,,,TRUE,CV,p,432,cv,U,8,v,v,TRUE,1
CVOE_B,46,1,2,77,E 01,,,FALSE,CV,p,1302,cv,E,1,v,v,TRUE,1
CVOE_B,46,1,2,78,A 78,,,TRUE,CV,p,460,cv,A,8,v,v,TRUE,1
CVOE_B,46,1,2,79,P 60,,,FALSE,CV,q,519,cv,P,0,c,c,TRUE,1
CVOE_B,46,1,2,80,E 43,,,FALSE,CV,p,567,cv,E,3,v,v,TRUE,1
CVOE_B,46,1,2,81,D 69,,,TRUE,CV,q,475,cv,D,9,c,c,TRUE,1
CVOE_B,46,1,2,82,H 11,,,TRUE,CV,q,467,cv,H,1,c,c,TRUE,1
CVOE_B,46,1,2,83,P 43,,,TRUE,CV,q,353,cv,P,3,c,c,TRUE,1
CVOE_B,46,1,2,84,O 67,,,FALSE,CV,p,470,cv,O,7,v,v,TRUE,1
CVOE_B,46,1,2,85,S 91,,,FALSE,CV,q,596,cv,S,1,c,c,TRUE,1
CVOE_B,46,1,2,86,J 68,,,TRUE,CV,q,500,cv,J,8,c,c,TRUE,1
CVOE_B,46,1,2,87,S 47,,,FALSE,CV,q,770,cv,S,7,c,c,TRUE,1
CVOE_B,46,1,2,88,I 81,,,TRUE,CV,p,477,cv,I,1,v,v,TRUE,1
CVOE_B,46,1,2,89,J 39,,,FALSE,CV,q,550,cv,J,9,c,c,TRUE,1
CVOE_B,46,1,2,90,A 11,,,TRUE,CV,p,971,cv,A,1,v,v,TRUE,1
CVOE_B,46,1,2,91,O 76,,,FALSE,CV,p,943,cv,O,6,v,v,TRUE,1
CVOE_B,46,1,2,92,A 62,,,FALSE,CV,p,413,cv,A,2,v,v,TRUE,1
CVOE_B,46,1,2,93,O 27,,,TRUE,CV,p,416,cv,O,7,v,v,TRUE,1
CVOE_B,46,1,2,94,E 66,,,FALSE,CV,p,371,cv,E,6,v,v,TRUE,1
CVOE_B,46,1,2,95,J 62,,,TRUE,CV,q,430,cv,J,2,c,c,TRUE,1
CVOE_B,46,1,2,96,H 72,,,TRUE,CV,q,355,cv,H,2,c,c,TRUE,1
CVOE_B,46,1,2,97,E 49,,,TRUE,CV,p,460,cv,E,9,v,v,TRUE,1
CVOE_B,46,1,2,98,D 52,,,TRUE,CV,q,359,cv,D,2,c,c,TRUE,1
CVOE_B,46,1,2,99,H 62,,,TRUE,CV,q,439,cv,H,2,c,c,TRUE,1
CVOE_B,46,1,2,100,I 11,,,TRUE,CV,q,335,cv,I,1,v,c,FALSE,0
CVOE_B,46,1,2,101,A 98,,,FALSE,CV,p,426,cv,A,8,v,v,TRUE,1
CVOE_B,46,1,2,102,H 29,,,FALSE,CV,q,632,cv,H,9,c,c,TRUE,1
CVOE_B,46,1,2,103,E 83,,,TRUE,CV,p,550,cv,E,3,v,v,TRUE,1
CVOE_B,46,1,2,104,D 43,,,FALSE,CV,q,388,cv,D,3,c,c,TRUE,1
CVOE_B,46,1,2,105,P 45,,,TRUE,CV,q,417,cv,P,5,c,c,TRUE,1
CVOE_B,46,1,2,106,J 17,,,TRUE,CV,q,388,cv,J,7,c,c,TRUE,1
CVOE_B,50,1,2,11,A 71,,,FALSE,CV,p,1700,cv,A,1,v,v,TRUE,1
CVOE_B,50,1,2,12,I 66,,,TRUE,CV,p,661,cv,I,6,v,v,TRUE,1
CVOE_B,50,1,2,13,S 30,,,FALSE,CV,q,430,cv,S,0,c,c,TRUE,1
CVOE_B,50,1,2,14,D 20,,,FALSE,CV,q,602,cv,D,0,c,c,TRUE,1
CVOE_B,50,1,2,15,I 31,,,FALSE,CV,p,350,cv,I,1,v,v,TRUE,1
CVOE_B,50,1,2,16,P 16,,,FALSE,CV,q,390,cv,P,6,c,c,TRUE,1
CVOE_B,50,1,2,17,A 49,,,FALSE,CV,p,354,cv,A,9,v,v,TRUE,1
CVOE_B,50,1,2,18,O 64,,,TRUE,CV,p,429,cv,O,4,v,v,TRUE,1
CVOE_B,50,1,2,19,D 02,,,FALSE,CV,q,414,cv,D,2,c,c,TRUE,1
CVOE_B,50,1,2,20,P 81,,,TRUE,CV,q,316,cv,P,1,c,c,TRUE,1
CVOE_B,50,1,2,21,J 58,,,FALSE,CV,q,465,cv,J,8,c,c,TRUE,1
CVOE_B,50,1,2,22,A 22,,,TRUE,CV,p,311,cv,A,2,v,v,TRUE,1
CVOE_B,50,1,2,23,J 72,,,FALSE,CV,q,321,cv,J,2,c,c,TRUE,1
CVOE_B,50,1,2,24,P 91,,,TRUE,CV,q,331,cv,P,1,c,c,TRUE,1
CVOE_B,50,1,2,25,E 19,,,FALSE,CV,p,361,cv,E,9,v,v,TRUE,1
CVOE_B,50,1,2,26,I 30,,,TRUE,CV,p,432,cv,I,0,v,v,TRUE,1
CVOE_B,50,1,2,27,D 91,,,TRUE,CV,q,394,cv,D,1,c,c,TRUE,1
CVOE_B,50,1,2,28,O 48,,,TRUE,CV,p,546,cv,O,8,v,v,TRUE,1
CVOE_B,50,1,2,29,A 89,,,FALSE,CV,q,471,cv,A,9,v,c,FALSE,0
CVOE_B,50,1,2,30,U 11,,,FALSE,CV,p,1064,cv,U,1,v,v,TRUE,1
CVOE_B,50,1,2,31,I 76,,,TRUE,CV,p,420,cv,I,6,v,v,TRUE,1
CVOE_B,50,1,2,32,U 89,,,FALSE,CV,p,524,cv,U,9,v,v,TRUE,1
CVOE_B,50,1,2,33,D 63,,,TRUE,CV,q,513,cv,D,3,c,c,TRUE,1
CVOE_B,50,1,2,34,H 70,,,FALSE,CV,q,417,cv,H,0,c,c,TRUE,1
CVOE_B,50,1,2,35,D 48,,,FALSE,CV,q,476,cv,D,8,c,c,TRUE,1
CVOE_B,50,1,2,36,P 56,,,FALSE,CV,q,391,cv,P,6,c,c,TRUE,1
CVOE_B,50,1,2,37,O 77,,,FALSE,CV,p,381,cv,O,7,v,v,TRUE,1
CVOE_B,50,1,2,38,P 42,,,FALSE,CV,q,594,cv,P,2,c,c,TRUE,1
CVOE_B,50,1,2,39,H 22,,,FALSE,CV,q,385,cv,H,2,c,c,TRUE,1
CVOE_B,50,1,2,40,E 42,,,TRUE,CV,p,430,cv,E,2,v,v,TRUE,1
CVOE_B,50,1,2,41,J 28,,,FALSE,CV,q,847,cv,J,8,c,c,TRUE,1
CVOE_B,50,1,2,42,E 95,,,FALSE,CV,p,548,cv,E,5,v,v,TRUE,1
CVOE_B,50,1,2,43,S 63,,,TRUE,CV,q,723,cv,S,3,c,c,TRUE,1
CVOE_B,50,1,2,44,H 50,,,FALSE,CV,q,358,cv,H,0,c,c,TRUE,1
CVOE_B,50,1,2,45,S 33,,,TRUE,CV,q,351,cv,S,3,c,c,TRUE,1
CVOE_B,50,1,2,46,P 57,,,TRUE,CV,q,407,cv,P,7,c,c,TRUE,1
CVOE_B,50,1,2,47,E 23,,,FALSE,CV,p,445,cv,E,3,v,v,TRUE,1
CVOE_B,50,1,2,48,S 61,,,TRUE,CV,q,344,cv,S,1,c,c,TRUE,1
CVOE_B,50,1,2,49,U 67,,,FALSE,CV,p,483,cv,U,7,v,v,TRUE,1
CVOE_B,50,1,2,50,H 32,,,FALSE,CV,q,339,cv,H,2,c,c,TRUE,1
CVOE_B,50,1,2,51,U 50,,,TRUE,CV,p,604,cv,U,0,v,v,TRUE,1
CVOE_B,50,1,2,52,O 49,,,FALSE,CV,q,271,cv,O,9,v,c,FALSE,0
CVOE_B,50,1,2,53,U 32,,,TRUE,CV,p,789,cv,U,2,v,v,TRUE,1
CVOE_B,50,1,2,54,J 78,,,FALSE,CV,q,417,cv,J,8,c,c,TRUE,1
CVOE_B,50,1,2,55,S 54,,,FALSE,CV,q,402,cv,S,4,c,c,TRUE,1
CVOE_B,50,1,2,56,J 27,,,TRUE,CV,q,316,cv,J,7,c,c,TRUE,1
CVOE_B,50,1,2,57,S 06,,,FALSE,CV,q,353,cv,S,6,c,c,TRUE,1
CVOE_B,50,1,2,58,D 67,,,TRUE,CV,q,359,cv,D,7,c,c,TRUE,1
CVOE_B,50,1,2,59,A 79,,,FALSE,CV,p,372,cv,A,9,v,v,TRUE,1
CVOE_B,50,1,2,60,S 52,,,FALSE,CV,q,351,cv,S,2,c,c,TRUE,1
CVOE_B,50,1,2,61,U 16,,,TRUE,CV,p,455,cv,U,6,v,v,TRUE,1
CVOE_B,50,1,2,62,O 82,,,TRUE,CV,p,470,cv,O,2,v,v,TRUE,1
CVOE_B,50,1,2,63,H 87,,,TRUE,CV,q,474,cv,H,7,c,c,TRUE,1
CVOE_B,50,1,2,64,I 32,,,TRUE,CV,p,367,cv,I,2,v,v,TRUE,1
CVOE_B,50,1,2,65,U 37,,,FALSE,CV,p,366,cv,U,7,v,v,TRUE,1
CVOE_B,50,1,2,66,I 42,,,TRUE,CV,p,313,cv,I,2,v,v,TRUE,1
CVOE_B,50,1,2,67,D 65,,,TRUE,CV,q,559,cv,D,5,c,c,TRUE,1
CVOE_B,50,1,2,68,U 77,,,FALSE,CV,p,511,cv,U,7,v,v,TRUE,1
CVOE_B,50,1,2,69,E 12,,,TRUE,CV,p,559,cv,E,2,v,v,TRUE,1
CVOE_B,50,1,2,70,I 60,,,TRUE,CV,p,677,cv,I,0,v,v,TRUE,1
CVOE_B,50,1,2,71,J 36,,,FALSE,CV,q,533,cv,J,6,c,c,TRUE,1
CVOE_B,50,1,2,72,H 75,,,TRUE,CV,q,550,cv,H,5,c,c,TRUE,1
CVOE_B,50,1,2,73,I 50,,,TRUE,CV,p,389,cv,I,0,v,v,TRUE,1
CVOE_B,50,1,2,74,E 99,,,FALSE,CV,p,297,cv,E,9,v,v,TRUE,1
CVOE_B,50,1,2,75,A 86,,,TRUE,CV,p,260,cv,A,6,v,v,TRUE,1
CVOE_B,50,1,2,76,U 48,,,TRUE,CV,p,388,cv,U,8,v,v,TRUE,1
CVOE_B,50,1,2,77,E 01,,,FALSE,CV,p,365,cv,E,1,v,v,TRUE,1
CVOE_B,50,1,2,78,A 78,,,TRUE,CV,p,295,cv,A,8,v,v,TRUE,1
CVOE_B,50,1,2,79,P 60,,,FALSE,CV,q,397,cv,P,0,c,c,TRUE,1
CVOE_B,50,1,2,80,E 43,,,FALSE,CV,p,366,cv,E,3,v,v,TRUE,1
CVOE_B,50,1,2,81,D 69,,,TRUE,CV,q,443,cv,D,9,c,c,TRUE,1
CVOE_B,50,1,2,82,H 11,,,TRUE,CV,q,392,cv,H,1,c,c,TRUE,1
CVOE_B,50,1,2,83,P 43,,,TRUE,CV,q,367,cv,P,3,c,c,TRUE,1
CVOE_B,50,1,2,84,O 67,,,FALSE,CV,p,432,cv,O,7,v,v,TRUE,1
CVOE_B,50,1,2,85,S 91,,,FALSE,CV,q,405,cv,S,1,c,c,TRUE,1
CVOE_B,50,1,2,86,J 68,,,TRUE,CV,q,386,cv,J,8,c,c,TRUE,1
CVOE_B,50,1,2,87,S 47,,,FALSE,CV,q,589,cv,S,7,c,c,TRUE,1
CVOE_B,50,1,2,88,I 81,,,TRUE,CV,p,515,cv,I,1,v,v,TRUE,1
CVOE_B,50,1,2,89,J 39,,,FALSE,CV,q,387,cv,J,9,c,c,TRUE,1
CVOE_B,50,1,2,90,A 11,,,TRUE,CV,p,684,cv,A,1,v,v,TRUE,1
CVOE_B,50,1,2,91,O 76,,,FALSE,CV,p,390,cv,O,6,v,v,TRUE,1
CVOE_B,50,1,2,92,A 62,,,FALSE,CV,p,578,cv,A,2,v,v,TRUE,1
CVOE_B,50,1,2,93,O 27,,,TRUE,CV,p,710,cv,O,7,v,v,TRUE,1
CVOE_B,50,1,2,94,E 66,,,FALSE,CV,p,603,cv,E,6,v,v,TRUE,1
CVOE_B,50,1,2,95,J 62,,,TRUE,CV,q,410,cv,J,2,c,c,TRUE,1
CVOE_B,50,1,2,96,H 72,,,TRUE,CV,q,443,cv,H,2,c,c,TRUE,1
CVOE_B,50,1,2,97,E 49,,,TRUE,CV,p,428,cv,E,9,v,v,TRUE,1
CVOE_B,50,1,2,98,D 52,,,TRUE,CV,q,595,cv,D,2,c,c,TRUE,1
CVOE_B,50,1,2,99,H 62,,,TRUE,CV,q,384,cv,H,2,c,c,TRUE,1
CVOE_B,50,1,2,100,I 11,,,TRUE,CV,p,463,cv,I,1,v,v,TRUE,1
CVOE_B,50,1,2,101,A 98,,,FALSE,CV,p,411,cv,A,8,v,v,TRUE,1
CVOE_B,50,1,2,102,H 29,,,FALSE,CV,q,531,cv,H,9,c,c,TRUE,1
CVOE_B,50,1,2,103,E 83,,,TRUE,CV,p,424,cv,E,3,v,v,TRUE,1
CVOE_B,50,1,2,104,D 43,,,FALSE,CV,q,445,cv,D,3,c,c,TRUE,1
CVOE_B,50,1,2,105,P 45,,,TRUE,CV,q,427,cv,P,5,c,c,TRUE,1
CVOE_B,50,1,2,106,J 17,,,TRUE,CV,q,359,cv,J,7,c,c,TRUE,1
CVOE_B,54,1,2,11,A 71,,,FALSE,CV,p,599,cv,A,1,v,v,TRUE,1
CVOE_B,54,1,2,12,I 66,,,TRUE,CV,p,585,cv,I,6,v,v,TRUE,1
CVOE_B,54,1,2,13,S 30,,,FALSE,CV,q,504,cv,S,0,c,c,TRUE,1
CVOE_B,54,1,2,14,D 20,,,FALSE,CV,q,639,cv,D,0,c,c,TRUE,1
CVOE_B,54,1,2,15,I 31,,,FALSE,CV,p,454,cv,I,1,v,v,TRUE,1
CVOE_B,54,1,2,16,P 16,,,FALSE,CV,q,522,cv,P,6,c,c,TRUE,1
CVOE_B,54,1,2,17,A 49,,,FALSE,CV,p,446,cv,A,9,v,v,TRUE,1
CVOE_B,54,1,2,18,O 64,,,TRUE,CV,p,375,cv,O,4,v,v,TRUE,1
CVOE_B,54,1,2,19,D 02,,,FALSE,CV,p,387,cv,D,2,c,v,FALSE,0
CVOE_B,54,1,2,20,P 81,,,TRUE,CV,q,579,cv,P,1,c,c,TRUE,1
CVOE_B,54,1,2,21,J 58,,,FALSE,CV,q,2024,cv,J,8,c,c,TRUE,1
CVOE_B,54,1,2,22,A 22,,,TRUE,CV,p,515,cv,A,2,v,v,TRUE,1
CVOE_B,54,1,2,23,J 72,,,FALSE,CV,q,743,cv,J,2,c,c,TRUE,1
CVOE_B,54,1,2,24,P 91,,,TRUE,CV,q,576,cv,P,1,c,c,TRUE,1
CVOE_B,54,1,2,25,E 19,,,FALSE,CV,p,459,cv,E,9,v,v,TRUE,1
CVOE_B,54,1,2,26,I 30,,,TRUE,CV,p,679,cv,I,0,v,v,TRUE,1
CVOE_B,54,1,2,27,D 91,,,TRUE,CV,q,515,cv,D,1,c,c,TRUE,1
CVOE_B,54,1,2,28,O 48,,,TRUE,CV,p,460,cv,O,8,v,v,TRUE,1
CVOE_B,54,1,2,29,A 89,,,FALSE,CV,q,411,cv,A,9,v,c,FALSE,0
CVOE_B,54,1,2,30,U 11,,,FALSE,CV,p,829,cv,U,1,v,v,TRUE,1
CVOE_B,54,1,2,31,I 76,,,TRUE,CV,p,777,cv,I,6,v,v,TRUE,1
CVOE_B,54,1,2,32,U 89,,,FALSE,CV,p,376,cv,U,9,v,v,TRUE,1
CVOE_B,54,1,2,33,D 63,,,TRUE,CV,q,561,cv,D,3,c,c,TRUE,1
CVOE_B,54,1,2,34,H 70,,,FALSE,CV,p,491,cv,H,0,c,v,FALSE,0
CVOE_B,54,1,2,35,D 48,,,FALSE,CV,q,614,cv,D,8,c,c,TRUE,1
CVOE_B,54,1,2,36,P 56,,,FALSE,CV,q,843,cv,P,6,c,c,TRUE,1
CVOE_B,54,1,2,37,O 77,,,FALSE,CV,p,469,cv,O,7,v,v,TRUE,1
CVOE_B,54,1,2,38,P 42,,,FALSE,CV,q,551,cv,P,2,c,c,TRUE,1
CVOE_B,54,1,2,39,H 22,,,FALSE,CV,q,741,cv,H,2,c,c,TRUE,1
CVOE_B,54,1,2,40,E 42,,,TRUE,CV,p,630,cv,E,2,v,v,TRUE,1
CVOE_B,54,1,2,41,J 28,,,FALSE,CV,q,389,cv,J,8,c,c,TRUE,1
CVOE_B,54,1,2,42,E 95,,,FALSE,CV,p,452,cv,E,5,v,v,TRUE,1
CVOE_B,54,1,2,43,S 63,,,TRUE,CV,q,508,cv,S,3,c,c,TRUE,1
CVOE_B,54,1,2,44,H 50,,,FALSE,CV,p,424,cv,H,0,c,v,FALSE,0
CVOE_B,54,1,2,45,S 33,,,TRUE,CV,q,563,cv,S,3,c,c,TRUE,1
CVOE_B,54,1,2,46,P 57,,,TRUE,CV,q,764,cv,P,7,c,c,TRUE,1
CVOE_B,54,1,2,47,E 23,,,FALSE,CV,p,549,cv,E,3,v,v,TRUE,1
CVOE_B,54,1,2,48,S 61,,,TRUE,CV,q,457,cv,S,1,c,c,TRUE,1
CVOE_B,54,1,2,49,U 67,,,FALSE,CV,p,745,cv,U,7,v,v,TRUE,1
CVOE_B,54,1,2,50,H 32,,,FALSE,CV,q,465,cv,H,2,c,c,TRUE,1
CVOE_B,54,1,2,51,U 50,,,TRUE,CV,q,455,cv,U,0,v,c,FALSE,0
CVOE_B,54,1,2,52,O 49,,,FALSE,CV,q,470,cv,O,9,v,c,FALSE,0
CVOE_B,54,1,2,53,U 32,,,TRUE,CV,p,629,cv,U,2,v,v,TRUE,1
CVOE_B,54,1,2,54,J 78,,,FALSE,CV,q,419,cv,J,8,c,c,TRUE,1
CVOE_B,54,1,2,55,S 54,,,FALSE,CV,q,884,cv,S,4,c,c,TRUE,1
CVOE_B,54,1,2,56,J 27,,,TRUE,CV,q,601,cv,J,7,c,c,TRUE,1
CVOE_B,54,1,2,57,S 06,,,FALSE,CV,q,646,cv,S,6,c,c,TRUE,1
CVOE_B,54,1,2,58,D 67,,,TRUE,CV,q,499,cv,D,7,c,c,TRUE,1
CVOE_B,54,1,2,59,A 79,,,FALSE,CV,p,480,cv,A,9,v,v,TRUE,1
CVOE_B,54,1,2,60,S 52,,,FALSE,CV,q,459,cv,S,2,c,c,TRUE,1
CVOE_B,54,1,2,61,U 16,,,TRUE,CV,p,493,cv,U,6,v,v,TRUE,1
CVOE_B,54,1,2,62,O 82,,,TRUE,CV,p,588,cv,O,2,v,v,TRUE,1
CVOE_B,54,1,2,63,H 87,,,TRUE,CV,q,702,cv,H,7,c,c,TRUE,1
CVOE_B,54,1,2,64,I 32,,,TRUE,CV,p,805,cv,I,2,v,v,TRUE,1
CVOE_B,54,1,2,65,U 37,,,FALSE,CV,p,1242,cv,U,7,v,v,TRUE,1
CVOE_B,54,1,2,66,I 42,,,TRUE,CV,p,486,cv,I,2,v,v,TRUE,1
CVOE_B,54,1,2,67,D 65,,,TRUE,CV,q,455,cv,D,5,c,c,TRUE,1
CVOE_B,54,1,2,68,U 77,,,FALSE,CV,p,437,cv,U,7,v,v,TRUE,1
CVOE_B,54,1,2,69,E 12,,,TRUE,CV,p,615,cv,E,2,v,v,TRUE,1
CVOE_B,54,1,2,70,I 60,,,TRUE,CV,p,430,cv,I,0,v,v,TRUE,1
CVOE_B,54,1,2,71,J 36,,,FALSE,CV,q,514,cv,J,6,c,c,TRUE,1
CVOE_B,54,1,2,72,H 75,,,TRUE,CV,q,727,cv,H,5,c,c,TRUE,1
CVOE_B,54,1,2,73,I 50,,,TRUE,CV,p,1896,cv,I,0,v,v,TRUE,1
CVOE_B,54,1,2,74,E 99,,,FALSE,CV,p,432,cv,E,9,v,v,TRUE,1
CVOE_B,54,1,2,75,A 86,,,TRUE,CV,p,451,cv,A,6,v,v,TRUE,1
CVOE_B,54,1,2,76,U 48,,,TRUE,CV,p,462,cv,U,8,v,v,TRUE,1
CVOE_B,54,1,2,77,E 01,,,FALSE,CV,p,368,cv,E,1,v,v,TRUE,1
CVOE_B,54,1,2,78,A 78,,,TRUE,CV,p,311,cv,A,8,v,v,TRUE,1
CVOE_B,54,1,2,79,P 60,,,FALSE,CV,p,316,cv,P,0,c,v,FALSE,0
CVOE_B,54,1,2,80,E 43,,,FALSE,CV,p,341,cv,E,3,v,v,TRUE,1
CVOE_B,54,1,2,81,D 69,,,TRUE,CV,q,440,cv,D,9,c,c,TRUE,1
CVOE_B,54,1,2,82,H 11,,,TRUE,CV,q,421,cv,H,1,c,c,TRUE,1
CVOE_B,54,1,2,83,P 43,,,TRUE,CV,q,415,cv,P,3,c,c,TRUE,1
CVOE_B,54,1,2,84,O 67,,,FALSE,CV,p,391,cv,O,7,v,v,TRUE,1
CVOE_B,54,1,2,85,S 91,,,FALSE,CV,q,475,cv,S,1,c,c,TRUE,1
CVOE_B,54,1,2,86,J 68,,,TRUE,CV,p,488,cv,J,8,c,v,FALSE,0
CVOE_B,54,1,2,87,S 47,,,FALSE,CV,q,544,cv,S,7,c,c,TRUE,1
CVOE_B,54,1,2,88,I 81,,,TRUE,CV,p,473,cv,I,1,v,v,TRUE,1
CVOE_B,54,1,2,89,J 39,,,FALSE,CV,q,494,cv,J,9,c,c,TRUE,1
CVOE_B,54,1,2,90,A 11,,,TRUE,CV,p,478,cv,A,1,v,v,TRUE,1
CVOE_B,54,1,2,91,O 76,,,FALSE,CV,p,487,cv,O,6,v,v,TRUE,1
CVOE_B,54,1,2,92,A 62,,,FALSE,CV,p,511,cv,A,2,v,v,TRUE,1
CVOE_B,54,1,2,93,O 27,,,TRUE,CV,p,389,cv,O,7,v,v,TRUE,1
CVOE_B,54,1,2,94,E 66,,,FALSE,CV,p,418,cv,E,6,v,v,TRUE,1
CVOE_B,54,1,2,95,J 62,,,TRUE,CV,q,384,cv,J,2,c,c,TRUE,1
CVOE_B,54,1,2,96,H 72,,,TRUE,CV,q,516,cv,H,2,c,c,TRUE,1
CVOE_B,54,1,2,97,E 49,,,TRUE,CV,p,650,cv,E,9,v,v,TRUE,1
CVOE_B,54,1,2,98,D 52,,,TRUE,CV,q,497,cv,D,2,c,c,TRUE,1
CVOE_B,54,1,2,99,H 62,,,TRUE,CV,q,718,cv,H,2,c,c,TRUE,1
CVOE_B,54,1,2,100,I 11,,,TRUE,CV,p,469,cv,I,1,v,v,TRUE,1
CVOE_B,54,1,2,101,A 98,,,FALSE,CV,p,661,cv,A,8,v,v,TRUE,1
CVOE_B,54,1,2,102,H 29,,,FALSE,CV,q,591,cv,H,9,c,c,TRUE,1
CVOE_B,54,1,2,103,E 83,,,TRUE,CV,p,473,cv,E,3,v,v,TRUE,1
CVOE_B,54,1,2,104,D 43,,,FALSE,CV,q,735,cv,D,3,c,c,TRUE,1
CVOE_B,54,1,2,105,P 45,,,TRUE,CV,q,489,cv,P,5,c,c,TRUE,1
CVOE_B,54,1,2,106,J 17,,,TRUE,CV,q,493,cv,J,7,c,c,TRUE,1
CVOE_B,58,1,2,11,A 71,,,FALSE,CV,p,3565,cv,A,1,v,v,TRUE,1
CVOE_B,58,1,2,12,I 66,,,TRUE,CV,p,814,cv,I,6,v,v,TRUE,1
CVOE_B,58,1,2,13,S 30,,,FALSE,CV,q,682,cv,S,0,c,c,TRUE,1
CVOE_B,58,1,2,14,D 20,,,FALSE,CV,q,1058,cv,D,0,c,c,TRUE,1
CVOE_B,58,1,2,15,I 31,,,FALSE,CV,p,805,cv,I,1,v,v,TRUE,1
CVOE_B,58,1,2,16,P 16,,,FALSE,CV,q,854,cv,P,6,c,c,TRUE,1
CVOE_B,58,1,2,17,A 49,,,FALSE,CV,p,601,cv,A,9,v,v,TRUE,1
CVOE_B,58,1,2,18,O 64,,,TRUE,CV,p,513,cv,O,4,v,v,TRUE,1
CVOE_B,58,1,2,19,D 02,,,FALSE,CV,q,527,cv,D,2,c,c,TRUE,1
CVOE_B,58,1,2,20,P 81,,,TRUE,CV,q,970,cv,P,1,c,c,TRUE,1
CVOE_B,58,1,2,21,J 58,,,FALSE,CV,q,757,cv,J,8,c,c,TRUE,1
CVOE_B,58,1,2,22,A 22,,,TRUE,CV,p,582,cv,A,2,v,v,TRUE,1
CVOE_B,58,1,2,23,J 72,,,FALSE,CV,q,644,cv,J,2,c,c,TRUE,1
CVOE_B,58,1,2,24,P 91,,,TRUE,CV,q,388,cv,P,1,c,c,TRUE,1
CVOE_B,58,1,2,25,E 19,,,FALSE,CV,p,490,cv,E,9,v,v,TRUE,1
CVOE_B,58,1,2,26,I 30,,,TRUE,CV,p,485,cv,I,0,v,v,TRUE,1
CVOE_B,58,1,2,27,D 91,,,TRUE,CV,q,549,cv,D,1,c,c,TRUE,1
CVOE_B,58,1,2,28,O 48,,,TRUE,CV,p,539,cv,O,8,v,v,TRUE,1
CVOE_B,58,1,2,29,A 89,,,FALSE,CV,p,1158,cv,A,9,v,v,TRUE,1
CVOE_B,58,1,2,30,U 11,,,FALSE,CV,p,431,cv,U,1,v,v,TRUE,1
CVOE_B,58,1,2,31,I 76,,,TRUE,CV,p,540,cv,I,6,v,v,TRUE,1
CVOE_B,58,1,2,32,U 89,,,FALSE,CV,p,650,cv,U,9,v,v,TRUE,1
CVOE_B,58,1,2,33,D 63,,,TRUE,CV,q,909,cv,D,3,c,c,TRUE,1
CVOE_B,58,1,2,34,H 70,,,FALSE,CV,q,411,cv,H,0,c,c,TRUE,1
CVOE_B,58,1,2,35,D 48,,,FALSE,CV,q,398,cv,D,8,c,c,TRUE,1
CVOE_B,58,1,2,36,P 56,,,FALSE,CV,q,542,cv,P,6,c,c,TRUE,1
CVOE_B,58,1,2,37,O 77,,,FALSE,CV,p,492,cv,O,7,v,v,TRUE,1
CVOE_B,58,1,2,38,P 42,,,FALSE,CV,q,623,cv,P,2,c,c,TRUE,1
CVOE_B,58,1,2,39,H 22,,,FALSE,CV,q,573,cv,H,2,c,c,TRUE,1
CVOE_B,58,1,2,40,E 42,,,TRUE,CV,p,728,cv,E,2,v,v,TRUE,1
CVOE_B,58,1,2,41,J 28,,,FALSE,CV,q,667,cv,J,8,c,c,TRUE,1
CVOE_B,58,1,2,42,E 95,,,FALSE,CV,p,505,cv,E,5,v,v,TRUE,1
CVOE_B,58,1,2,43,S 63,,,TRUE,CV,q,591,cv,S,3,c,c,TRUE,1
CVOE_B,58,1,2,44,H 50,,,FALSE,CV,q,517,cv,H,0,c,c,TRUE,1
CVOE_B,58,1,2,45,S 33,,,TRUE,CV,q,1021,cv,S,3,c,c,TRUE,1
CVOE_B,58,1,2,46,P 57,,,TRUE,CV,q,611,cv,P,7,c,c,TRUE,1
CVOE_B,58,1,2,47,E 23,,,FALSE,CV,p,630,cv,E,3,v,v,TRUE,1
CVOE_B,58,1,2,48,S 61,,,TRUE,CV,q,684,cv,S,1,c,c,TRUE,1
CVOE_B,58,1,2,49,U 67,,,FALSE,CV,p,652,cv,U,7,v,v,TRUE,1
CVOE_B,58,1,2,50,H 32,,,FALSE,CV,q,1663,cv,H,2,c,c,TRUE,1
CVOE_B,58,1,2,51,U 50,,,TRUE,CV,p,621,cv,U,0,v,v,TRUE,1
CVOE_B,58,1,2,52,O 49,,,FALSE,CV,p,595,cv,O,9,v,v,TRUE,1
CVOE_B,58,1,2,53,U 32,,,TRUE,CV,p,524,cv,U,2,v,v,TRUE,1
CVOE_B,58,1,2,54,J 78,,,FALSE,CV,q,652,cv,J,8,c,c,TRUE,1
CVOE_B,58,1,2,55,S 54,,,FALSE,CV,q,687,cv,S,4,c,c,TRUE,1
CVOE_B,58,1,2,56,J 27,,,TRUE,CV,q,562,cv,J,7,c,c,TRUE,1
CVOE_B,58,1,2,57,S 06,,,FALSE,CV,q,427,cv,S,6,c,c,TRUE,1
CVOE_B,58,1,2,58,D 67,,,TRUE,CV,q,504,cv,D,7,c,c,TRUE,1
CVOE_B,58,1,2,59,A 79,,,FALSE,CV,p,446,cv,A,9,v,v,TRUE,1
CVOE_B,58,1,2,60,S 52,,,FALSE,CV,q,742,cv,S,2,c,c,TRUE,1
CVOE_B,58,1,2,61,U 16,,,TRUE,CV,p,596,cv,U,6,v,v,TRUE,1
CVOE_B,58,1,2,62,O 82,,,TRUE,CV,p,581,cv,O,2,v,v,TRUE,1
CVOE_B,58,1,2,63,H 87,,,TRUE,CV,q,570,cv,H,7,c,c,TRUE,1
CVOE_B,58,1,2,64,I 32,,,TRUE,CV,p,2222,cv,I,2,v,v,TRUE,1
CVOE_B,58,1,2,65,U 37,,,FALSE,CV,p,476,cv,U,7,v,v,TRUE,1
CVOE_B,58,1,2,66,I 42,,,TRUE,CV,p,476,cv,I,2,v,v,TRUE,1
CVOE_B,58,1,2,67,D 65,,,TRUE,CV,q,733,cv,D,5,c,c,TRUE,1
CVOE_B,58,1,2,68,U 77,,,FALSE,CV,p,704,cv,U,7,v,v,TRUE,1
CVOE_B,58,1,2,69,E 12,,,TRUE,CV,p,558,cv,E,2,v,v,TRUE,1
CVOE_B,58,1,2,70,I 60,,,TRUE,CV,p,422,cv,I,0,v,v,TRUE,1
CVOE_B,58,1,2,71,J 36,,,FALSE,CV,p,484,cv,J,6,c,v,FALSE,0
CVOE_B,58,1,2,72,H 75,,,TRUE,CV,q,1132,cv,H,5,c,c,TRUE,1
CVOE_B,58,1,2,73,I 50,,,TRUE,CV,p,1743,cv,I,0,v,v,TRUE,1
CVOE_B,58,1,2,74,E 99,,,FALSE,CV,p,558,cv,E,9,v,v,TRUE,1
CVOE_B,58,1,2,75,A 86,,,TRUE,CV,p,1414,cv,A,6,v,v,TRUE,1
CVOE_B,58,1,2,76,U 48,,,TRUE,CV,p,1073,cv,U,8,v,v,TRUE,1
CVOE_B,58,1,2,77,E 01,,,FALSE,CV,p,834,cv,E,1,v,v,TRUE,1
CVOE_B,58,1,2,78,A 78,,,TRUE,CV,p,475,cv,A,8,v,v,TRUE,1
CVOE_B,58,1,2,79,P 60,,,FALSE,CV,q,499,cv,P,0,c,c,TRUE,1
CVOE_B,58,1,2,80,E 43,,,FALSE,CV,p,630,cv,E,3,v,v,TRUE,1
CVOE_B,58,1,2,81,D 69,,,TRUE,CV,q,1020,cv,D,9,c,c,TRUE,1
CVOE_B,58,1,2,82,H 11,,,TRUE,CV,q,735,cv,H,1,c,c,TRUE,1
CVOE_B,58,1,2,83,P 43,,,TRUE,CV,q,586,cv,P,3,c,c,TRUE,1
CVOE_B,58,1,2,84,O 67,,,FALSE,CV,p,640,cv,O,7,v,v,TRUE,1
CVOE_B,58,1,2,85,S 91,,,FALSE,CV,q,520,cv,S,1,c,c,TRUE,1
CVOE_B,58,1,2,86,J 68,,,TRUE,CV,q,1625,cv,J,8,c,c,TRUE,1
CVOE_B,58,1,2,87,S 47,,,FALSE,CV,q,1095,cv,S,7,c,c,TRUE,1
CVOE_B,58,1,2,88,I 81,,,TRUE,CV,p,514,cv,I,1,v,v,TRUE,1
CVOE_B,58,1,2,89,J 39,,,FALSE,CV,q,1187,cv,J,9,c,c,TRUE,1
CVOE_B,58,1,2,90,A 11,,,TRUE,CV,p,553,cv,A,1,v,v,TRUE,1
CVOE_B,58,1,2,91,O 76,,,FALSE,CV,q,1438,cv,O,6,v,c,FALSE,0
CVOE_B,58,1,2,92,A 62,,,FALSE,CV,p,1735,cv,A,2,v,v,TRUE,1
CVOE_B,58,1,2,93,O 27,,,TRUE,CV,p,1443,cv,O,7,v,v,TRUE,1
CVOE_B,58,1,2,94,E 66,,,FALSE,CV,p,723,cv,E,6,v,v,TRUE,1
CVOE_B,58,1,2,95,J 62,,,TRUE,CV,p,820,cv,J,2,c,v,FALSE,0
CVOE_B,58,1,2,96,H 72,,,TRUE,CV,q,735,cv,H,2,c,c,TRUE,1
CVOE_B,58,1,2,97,E 49,,,TRUE,CV,p,890,cv,E,9,v,v,TRUE,1
CVOE_B,58,1,2,98,D 52,,,TRUE,CV,q,1237,cv,D,2,c,c,TRUE,1
CVOE_B,58,1,2,99,H 62,,,TRUE,CV,q,2878,cv,H,2,c,c,TRUE,1
CVOE_B,58,1,2,100,I 11,,,TRUE,CV,p,1847,cv,I,1,v,v,TRUE,1
CVOE_B,58,1,2,101,A 98,,,FALSE,CV,p,1827,cv,A,8,v,v,TRUE,1
CVOE_B,58,1,2,102,H 29,,,FALSE,CV,q,1761,cv,H,9,c,c,TRUE,1
CVOE_B,58,1,2,103,E 83,,,TRUE,CV,p,1050,cv,E,3,v,v,TRUE,1
CVOE_B,58,1,2,104,D 43,,,FALSE,CV,q,1693,cv,D,3,c,c,TRUE,1
CVOE_B,58,1,2,105,P 45,,,TRUE,CV,q,881,cv,P,5,c,c,TRUE,1
CVOE_B,58,1,2,106,J 17,,,TRUE,CV,q,505,cv,J,7,c,c,TRUE,1
CVOE_B,62,1,2,11,A 71,,,FALSE,CV,p,1832,cv,A,1,v,v,TRUE,1
CVOE_B,62,1,2,12,I 66,,,TRUE,CV,p,862,cv,I,6,v,v,TRUE,1
CVOE_B,62,1,2,13,S 30,,,FALSE,CV,q,1116,cv,S,0,c,c,TRUE,1
CVOE_B,62,1,2,14,D 20,,,FALSE,CV,q,589,cv,D,0,c,c,TRUE,1
CVOE_B,62,1,2,15,I 31,,,FALSE,CV,p,674,cv,I,1,v,v,TRUE,1
CVOE_B,62,1,2,16,P 16,,,FALSE,CV,q,643,cv,P,6,c,c,TRUE,1
CVOE_B,62,1,2,17,A 49,,,FALSE,CV,p,571,cv,A,9,v,v,TRUE,1
CVOE_B,62,1,2,18,O 64,,,TRUE,CV,p,710,cv,O,4,v,v,TRUE,1
CVOE_B,62,1,2,19,D 02,,,FALSE,CV,q,588,cv,D,2,c,c,TRUE,1
CVOE_B,62,1,2,20,P 81,,,TRUE,CV,q,650,cv,P,1,c,c,TRUE,1
CVOE_B,62,1,2,21,J 58,,,FALSE,CV,q,557,cv,J,8,c,c,TRUE,1
CVOE_B,62,1,2,22,A 22,,,TRUE,CV,p,573,cv,A,2,v,v,TRUE,1
CVOE_B,62,1,2,23,J 72,,,FALSE,CV,q,576,cv,J,2,c,c,TRUE,1
CVOE_B,62,1,2,24,P 91,,,TRUE,CV,q,572,cv,P,1,c,c,TRUE,1
CVOE_B,62,1,2,25,E 19,,,FALSE,CV,p,575,cv,E,9,v,v,TRUE,1
CVOE_B,62,1,2,26,I 30,,,TRUE,CV,p,530,cv,I,0,v,v,TRUE,1
CVOE_B,62,1,2,27,D 91,,,TRUE,CV,q,573,cv,D,1,c,c,TRUE,1
CVOE_B,62,1,2,28,O 48,,,TRUE,CV,p,600,cv,O,8,v,v,TRUE,1
CVOE_B,62,1,2,29,A 89,,,FALSE,CV,p,528,cv,A,9,v,v,TRUE,1
CVOE_B,62,1,2,30,U 11,,,FALSE,CV,p,547,cv,U,1,v,v,TRUE,1
CVOE_B,62,1,2,31,I 76,,,TRUE,CV,p,545,cv,I,6,v,v,TRUE,1
CVOE_B,62,1,2,32,U 89,,,FALSE,CV,p,495,cv,U,9,v,v,TRUE,1
CVOE_B,62,1,2,33,D 63,,,TRUE,CV,q,578,cv,D,3,c,c,TRUE,1
CVOE_B,62,1,2,34,H 70,,,FALSE,CV,q,549,cv,H,0,c,c,TRUE,1
CVOE_B,62,1,2,35,D 48,,,FALSE,CV,q,619,cv,D,8,c,c,TRUE,1
CVOE_B,62,1,2,36,P 56,,,FALSE,CV,q,486,cv,P,6,c,c,TRUE,1
CVOE_B,62,1,2,37,O 77,,,FALSE,CV,p,590,cv,O,7,v,v,TRUE,1
CVOE_B,62,1,2,38,P 42,,,FALSE,CV,q,492,cv,P,2,c,c,TRUE,1
CVOE_B,62,1,2,39,H 22,,,FALSE,CV,q,487,cv,H,2,c,c,TRUE,1
CVOE_B,62,1,2,40,E 42,,,TRUE,CV,p,594,cv,E,2,v,v,TRUE,1
CVOE_B,62,1,2,41,J 28,,,FALSE,CV,q,754,cv,J,8,c,c,TRUE,1
CVOE_B,62,1,2,42,E 95,,,FALSE,CV,p,587,cv,E,5,v,v,TRUE,1
CVOE_B,62,1,2,43,S 63,,,TRUE,CV,q,505,cv,S,3,c,c,TRUE,1
CVOE_B,62,1,2,44,H 50,,,FALSE,CV,q,534,cv,H,0,c,c,TRUE,1
CVOE_B,62,1,2,45,S 33,,,TRUE,CV,q,618,cv,S,3,c,c,TRUE,1
CVOE_B,62,1,2,46,P 57,,,TRUE,CV,q,509,cv,P,7,c,c,TRUE,1
CVOE_B,62,1,2,47,E 23,,,FALSE,CV,p,506,cv,E,3,v,v,TRUE,1
CVOE_B,62,1,2,48,S 61,,,TRUE,CV,q,528,cv,S,1,c,c,TRUE,1
CVOE_B,62,1,2,49,U 67,,,FALSE,CV,p,571,cv,U,7,v,v,TRUE,1
CVOE_B,62,1,2,50,H 32,,,FALSE,CV,q,1102,cv,H,2,c,c,TRUE,1
CVOE_B,62,1,2,51,U 50,,,TRUE,CV,p,1148,cv,U,0,v,v,TRUE,1
CVOE_B,62,1,2,52,O 49,,,FALSE,CV,p,618,cv,O,9,v,v,TRUE,1
CVOE_B,62,1,2,53,U 32,,,TRUE,CV,p,461,cv,U,2,v,v,TRUE,1
CVOE_B,62,1,2,54,J 78,,,FALSE,CV,q,499,cv,J,8,c,c,TRUE,1
CVOE_B,62,1,2,55,S 54,,,FALSE,CV,q,558,cv,S,4,c,c,TRUE,1
CVOE_B,62,1,2,56,J 27,,,TRUE,CV,q,550,cv,J,7,c,c,TRUE,1
CVOE_B,62,1,2,57,S 06,,,FALSE,CV,q,492,cv,S,6,c,c,TRUE,1
CVOE_B,62,1,2,58,D 67,,,TRUE,CV,p,503,cv,D,7,c,v,FALSE,0
CVOE_B,62,1,2,59,A 79,,,FALSE,CV,p,581,cv,A,9,v,v,TRUE,1
CVOE_B,62,1,2,60,S 52,,,FALSE,CV,q,579,cv,S,2,c,c,TRUE,1
CVOE_B,62,1,2,61,U 16,,,TRUE,CV,p,654,cv,U,6,v,v,TRUE,1
CVOE_B,62,1,2,62,O 82,,,TRUE,CV,p,609,cv,O,2,v,v,TRUE,1
CVOE_B,62,1,2,63,H 87,,,TRUE,CV,q,636,cv,H,7,c,c,TRUE,1
CVOE_B,62,1,2,64,I 32,,,TRUE,CV,p,772,cv,I,2,v,v,TRUE,1
CVOE_B,62,1,2,65,U 37,,,FALSE,CV,p,624,cv,U,7,v,v,TRUE,1
CVOE_B,62,1,2,66,I 42,,,TRUE,CV,p,581,cv,I,2,v,v,TRUE,1
CVOE_B,62,1,2,67,D 65,,,TRUE,CV,q,595,cv,D,5,c,c,TRUE,1
CVOE_B,62,1,2,68,U 77,,,FALSE,CV,p,596,cv,U,7,v,v,TRUE,1
CVOE_B,62,1,2,69,E 12,,,TRUE,CV,p,500,cv,E,2,v,v,TRUE,1
CVOE_B,62,1,2,70,I 60,,,TRUE,CV,p,514,cv,I,0,v,v,TRUE,1
CVOE_B,62,1,2,71,J 36,,,FALSE,CV,q,1042,cv,J,6,c,c,TRUE,1
CVOE_B,62,1,2,72,H 75,,,TRUE,CV,q,595,cv,H,5,c,c,TRUE,1
CVOE_B,62,1,2,73,I 50,,,TRUE,CV,p,747,cv,I,0,v,v,TRUE,1
CVOE_B,62,1,2,74,E 99,,,FALSE,CV,p,697,cv,E,9,v,v,TRUE,1
CVOE_B,62,1,2,75,A 86,,,TRUE,CV,p,796,cv,A,6,v,v,TRUE,1
CVOE_B,62,1,2,76,U 48,,,TRUE,CV,p,669,cv,U,8,v,v,TRUE,1
CVOE_B,62,1,2,77,E 01,,,FALSE,CV,p,706,cv,E,1,v,v,TRUE,1
CVOE_B,62,1,2,78,A 78,,,TRUE,CV,p,616,cv,A,8,v,v,TRUE,1
CVOE_B,62,1,2,79,P 60,,,FALSE,CV,q,539,cv,P,0,c,c,TRUE,1
CVOE_B,62,1,2,80,E 43,,,FALSE,CV,p,1446,cv,E,3,v,v,TRUE,1
CVOE_B,62,1,2,81,D 69,,,TRUE,CV,q,551,cv,D,9,c,c,TRUE,1
CVOE_B,62,1,2,82,H 11,,,TRUE,CV,q,597,cv,H,1,c,c,TRUE,1
CVOE_B,62,1,2,83,P 43,,,TRUE,CV,q,549,cv,P,3,c,c,TRUE,1
CVOE_B,62,1,2,84,O 67,,,FALSE,CV,p,491,cv,O,7,v,v,TRUE,1
CVOE_B,62,1,2,85,S 91,,,FALSE,CV,q,510,cv,S,1,c,c,TRUE,1
CVOE_B,62,1,2,86,J 68,,,TRUE,CV,q,556,cv,J,8,c,c,TRUE,1
CVOE_B,62,1,2,87,S 47,,,FALSE,CV,q,580,cv,S,7,c,c,TRUE,1
CVOE_B,62,1,2,88,I 81,,,TRUE,CV,p,554,cv,I,1,v,v,TRUE,1
CVOE_B,62,1,2,89,J 39,,,FALSE,CV,q,602,cv,J,9,c,c,TRUE,1
CVOE_B,62,1,2,90,A 11,,,TRUE,CV,p,563,cv,A,1,v,v,TRUE,1
CVOE_B,62,1,2,91,O 76,,,FALSE,CV,p,531,cv,O,6,v,v,TRUE,1
CVOE_B,62,1,2,92,A 62,,,FALSE,CV,p,526,cv,A,2,v,v,TRUE,1
CVOE_B,62,1,2,93,O 27,,,TRUE,CV,p,503,cv,O,7,v,v,TRUE,1
CVOE_B,62,1,2,94,E 66,,,FALSE,CV,p,580,cv,E,6,v,v,TRUE,1
CVOE_B,62,1,2,95,J 62,,,TRUE,CV,q,522,cv,J,2,c,c,TRUE,1
CVOE_B,62,1,2,96,H 72,,,TRUE,CV,q,643,cv,H,2,c,c,TRUE,1
CVOE_B,62,1,2,97,E 49,,,TRUE,CV,p,539,cv,E,9,v,v,TRUE,1
CVOE_B,62,1,2,98,D 52,,,TRUE,CV,q,558,cv,D,2,c,c,TRUE,1
CVOE_B,62,1,2,99,H 62,,,TRUE,CV,q,502,cv,H,2,c,c,TRUE,1
CVOE_B,62,1,2,100,I 11,,,TRUE,CV,p,604,cv,I,1,v,v,TRUE,1
CVOE_B,62,1,2,101,A 98,,,FALSE,CV,p,549,cv,A,8,v,v,TRUE,1
CVOE_B,62,1,2,102,H 29,,,FALSE,CV,q,562,cv,H,9,c,c,TRUE,1
CVOE_B,62,1,2,103,E 83,,,TRUE,CV,q,523,cv,E,3,v,c,FALSE,0
CVOE_B,62,1,2,104,D 43,,,FALSE,CV,q,843,cv,D,3,c,c,TRUE,1
CVOE_B,62,1,2,105,P 45,,,TRUE,CV,q,684,cv,P,5,c,c,TRUE,1
CVOE_B,62,1,2,106,J 17,,,TRUE,CV,q,596,cv,J,7,c,c,TRUE,1
CVOE_C,35,1,2,11,A 71,,,FALSE,CV,p,686,cv,A,1,v,v,TRUE,1
CVOE_C,35,1,2,12,I 66,,,TRUE,CV,p,790,cv,I,6,v,v,TRUE,1
CVOE_C,35,1,2,13,S 30,,,FALSE,CV,q,460,cv,S,0,c,c,TRUE,1
CVOE_C,35,1,2,14,D 20,,,FALSE,CV,q,431,cv,D,0,c,c,TRUE,1
CVOE_C,35,1,2,15,I 31,,,FALSE,CV,p,397,cv,I,1,v,v,TRUE,1
CVOE_C,35,1,2,16,P 16,,,FALSE,CV,q,381,cv,P,6,c,c,TRUE,1
CVOE_C,35,1,2,17,A 49,,,FALSE,CV,p,395,cv,A,9,v,v,TRUE,1
CVOE_C,35,1,2,18,O 64,,,TRUE,CV,p,755,cv,O,4,v,v,TRUE,1
CVOE_C,35,1,2,19,D 02,,,FALSE,CV,q,539,cv,D,2,c,c,TRUE,1
CVOE_C,35,1,2,20,P 81,,,TRUE,CV,q,423,cv,P,1,c,c,TRUE,1
CVOE_C,35,1,2,21,J 58,,,FALSE,CV,q,420,cv,J,8,c,c,TRUE,1
CVOE_C,35,1,2,22,A 22,,,TRUE,CV,p,354,cv,A,2,v,v,TRUE,1
CVOE_C,35,1,2,23,J 72,,,FALSE,CV,q,386,cv,J,2,c,c,TRUE,1
CVOE_C,35,1,2,24,P 91,,,TRUE,CV,q,440,cv,P,1,c,c,TRUE,1
CVOE_C,35,1,2,25,E 19,,,FALSE,CV,p,392,cv,E,9,v,v,TRUE,1
CVOE_C,35,1,2,26,I 30,,,TRUE,CV,p,446,cv,I,0,v,v,TRUE,1
CVOE_C,35,1,2,27,D 91,,,TRUE,CV,q,342,cv,D,1,c,c,TRUE,1
CVOE_C,35,1,2,28,O 48,,,TRUE,CV,p,468,cv,O,8,v,v,TRUE,1
CVOE_C,35,1,2,29,A 89,,,FALSE,CV,p,426,cv,A,9,v,v,TRUE,1
CVOE_C,35,1,2,30,U 11,,,FALSE,CV,p,487,cv,U,1,v,v,TRUE,1
CVOE_C,35,1,2,31,I 76,,,TRUE,CV,p,426,cv,I,6,v,v,TRUE,1
CVOE_C,35,1,2,32,U 89,,,FALSE,CV,p,432,cv,U,9,v,v,TRUE,1
CVOE_C,35,1,2,33,D 63,,,TRUE,CV,q,462,cv,D,3,c,c,TRUE,1
CVOE_C,35,1,2,34,H 70,,,FALSE,CV,q,452,cv,H,0,c,c,TRUE,1
CVOE_C,35,1,2,35,D 48,,,FALSE,CV,q,375,cv,D,8,c,c,TRUE,1
CVOE_C,35,1,2,36,P 56,,,FALSE,CV,p,386,cv,P,6,c,v,FALSE,0
CVOE_C,35,1,2,37,O 77,,,FALSE,CV,p,471,cv,O,7,v,v,TRUE,1
CVOE_C,35,1,2,38,P 42,,,FALSE,CV,q,445,cv,P,2,c,c,TRUE,1
CVOE_C,35,1,2,39,H 22,,,FALSE,CV,q,445,cv,H,2,c,c,TRUE,1
CVOE_C,35,1,2,40,E 42,,,TRUE,CV,p,462,cv,E,2,v,v,TRUE,1
CVOE_C,35,1,2,41,J 28,,,FALSE,CV,q,379,cv,J,8,c,c,TRUE,1
CVOE_C,35,1,2,42,E 95,,,FALSE,CV,p,406,cv,E,5,v,v,TRUE,1
CVOE_C,35,1,2,43,S 63,,,TRUE,CV,q,375,cv,S,3,c,c,TRUE,1
CVOE_C,35,1,2,44,H 50,,,FALSE,CV,q,506,cv,H,0,c,c,TRUE,1
CVOE_C,35,1,2,45,S 33,,,TRUE,CV,q,351,cv,S,3,c,c,TRUE,1
CVOE_C,35,1,2,46,P 57,,,TRUE,CV,q,285,cv,P,7,c,c,TRUE,1
CVOE_C,35,1,2,47,E 23,,,FALSE,CV,q,317,cv,E,3,v,c,FALSE,0
CVOE_C,35,1,2,48,S 61,,,TRUE,CV,q,334,cv,S,1,c,c,TRUE,1
CVOE_C,35,1,2,49,U 67,,,FALSE,CV,p,417,cv,U,7,v,v,TRUE,1
CVOE_C,35,1,2,50,H 32,,,FALSE,CV,q,380,cv,H,2,c,c,TRUE,1
CVOE_C,35,1,2,51,U 50,,,TRUE,CV,p,463,cv,U,0,v,v,TRUE,1
CVOE_C,35,1,2,52,O 49,,,FALSE,CV,p,493,cv,O,9,v,v,TRUE,1
CVOE_C,35,1,2,53,U 32,,,TRUE,CV,p,320,cv,U,2,v,v,TRUE,1
CVOE_C,35,1,2,54,J 78,,,FALSE,CV,q,368,cv,J,8,c,c,TRUE,1
CVOE_C,35,1,2,55,S 54,,,FALSE,CV,q,339,cv,S,4,c,c,TRUE,1
CVOE_C,35,1,2,56,J 27,,,TRUE,CV,q,294,cv,J,7,c,c,TRUE,1
CVOE_C,35,1,2,57,S 06,,,FALSE,CV,q,657,cv,S,6,c,c,TRUE,1
CVOE_C,35,1,2,58,D 67,,,TRUE,CV,q,444,cv,D,7,c,c,TRUE,1
CVOE_C,35,1,2,59,A 79,,,FALSE,CV,p,492,cv,A,9,v,v,TRUE,1
CVOE_C,35,1,2,60,S 52,,,FALSE,CV,q,447,cv,S,2,c,c,TRUE,1
CVOE_C,35,1,2,61,U 16,,,TRUE,CV,q,354,cv,U,6,v,c,FALSE,0
CVOE_C,35,1,2,62,O 82,,,TRUE,CV,p,419,cv,O,2,v,v,TRUE,1
CVOE_C,35,1,2,63,H 87,,,TRUE,CV,q,478,cv,H,7,c,c,TRUE,1
CVOE_C,35,1,2,64,I 32,,,TRUE,CV,p,582,cv,I,2,v,v,TRUE,1
CVOE_C,35,1,2,65,U 37,,,FALSE,CV,p,428,cv,U,7,v,v,TRUE,1
CVOE_C,35,1,2,66,I 42,,,TRUE,CV,p,386,cv,I,2,v,v,TRUE,1
CVOE_C,35,1,2,67,D 65,,,TRUE,CV,p,319,cv,D,5,c,v,FALSE,0
CVOE_C,35,1,2,68,U 77,,,FALSE,CV,p,416,cv,U,7,v,v,TRUE,1
CVOE_C,35,1,2,69,E 12,,,TRUE,CV,p,363,cv,E,2,v,v,TRUE,1
CVOE_C,35,1,2,70,I 60,,,TRUE,CV,p,315,cv,I,0,v,v,TRUE,1
CVOE_C,35,1,2,71,J 36,,,FALSE,CV,q,459,cv,J,6,c,c,TRUE,1
CVOE_C,35,1,2,72,H 75,,,TRUE,CV,q,350,cv,H,5,c,c,TRUE,1
CVOE_C,35,1,2,73,I 50,,,TRUE,CV,p,588,cv,I,0,v,v,TRUE,1
CVOE_C,35,1,2,74,E 99,,,FALSE,CV,p,370,cv,E,9,v,v,TRUE,1
CVOE_C,35,1,2,75,A 86,,,TRUE,CV,p,717,cv,A,6,v,v,TRUE,1
CVOE_C,35,1,2,76,U 48,,,TRUE,CV,p,453,cv,U,8,v,v,TRUE,1
CVOE_C,35,1,2,77,E 01,,,FALSE,CV,p,728,cv,E,1,v,v,TRUE,1
CVOE_C,35,1,2,78,A 78,,,TRUE,CV,p,579,cv,A,8,v,v,TRUE,1
CVOE_C,35,1,2,79,P 60,,,FALSE,CV,q,407,cv,P,0,c,c,TRUE,1
CVOE_C,35,1,2,80,E 43,,,FALSE,CV,p,471,cv,E,3,v,v,TRUE,1
CVOE_C,35,1,2,81,D 69,,,TRUE,CV,q,437,cv,D,9,c,c,TRUE,1
CVOE_C,35,1,2,82,H 11,,,TRUE,CV,q,445,cv,H,1,c,c,TRUE,1
CVOE_C,35,1,2,83,P 43,,,TRUE,CV,q,453,cv,P,3,c,c,TRUE,1
CVOE_C,35,1,2,84,O 67,,,FALSE,CV,p,496,cv,O,7,v,v,TRUE,1
CVOE_C,35,1,2,85,S 91,,,FALSE,CV,q,443,cv,S,1,c,c,TRUE,1
CVOE_C,35,1,2,86,J 68,,,TRUE,CV,q,396,cv,J,8,c,c,TRUE,1
CVOE_C,35,1,2,87,S 47,,,FALSE,CV,q,404,cv,S,7,c,c,TRUE,1
CVOE_C,35,1,2,88,I 81,,,TRUE,CV,p,396,cv,I,1,v,v,TRUE,1
CVOE_C,35,1,2,89,J 39,,,FALSE,CV,q,373,cv,J,9,c,c,TRUE,1
CVOE_C,35,1,2,90,A 11,,,TRUE,CV,p,568,cv,A,1,v,v,TRUE,1
CVOE_C,35,1,2,91,O 76,,,FALSE,CV,p,459,cv,O,6,v,v,TRUE,1
CVOE_C,35,1,2,92,A 62,,,FALSE,CV,p,414,cv,A,2,v,v,TRUE,1
CVOE_C,35,1,2,93,O 27,,,TRUE,CV,p,385,cv,O,7,v,v,TRUE,1
CVOE_C,35,1,2,94,E 66,,,FALSE,CV,p,343,cv,E,6,v,v,TRUE,1
CVOE_C,35,1,2,95,J 62,,,TRUE,CV,q,452,cv,J,2,c,c,TRUE,1
CVOE_C,35,1,2,96,H 72,,,TRUE,CV,q,351,cv,H,2,c,c,TRUE,1
CVOE_C,35,1,2,97,E 49,,,TRUE,CV,q,301,cv,E,9,v,c,FALSE,0
CVOE_C,35,1,2,98,D 52,,,TRUE,CV,q,451,cv,D,2,c,c,TRUE,1
CVOE_C,35,1,2,99,H 62,,,TRUE,CV,q,318,cv,H,2,c,c,TRUE,1
CVOE_C,35,1,2,100,I 11,,,TRUE,CV,p,406,cv,I,1,v,v,TRUE,1
CVOE_C,35,1,2,101,A 98,,,FALSE,CV,p,366,cv,A,8,v,v,TRUE,1
CVOE_C,35,1,2,102,H 29,,,FALSE,CV,q,375,cv,H,9,c,c,TRUE,1
CVOE_C,35,1,2,103,E 83,,,TRUE,CV,p,370,cv,E,3,v,v,TRUE,1
CVOE_C,35,1,2,104,D 43,,,FALSE,CV,q,437,cv,D,3,c,c,TRUE,1
CVOE_C,35,1,2,105,P 45,,,TRUE,CV,q,365,cv,P,5,c,c,TRUE,1
CVOE_C,35,1,2,106,J 17,,,TRUE,CV,q,357,cv,J,7,c,c,TRUE,1
CVOE_C,47,1,2,11,A 71,,,FALSE,CV,p,1281,cv,A,1,v,v,TRUE,1
CVOE_C,47,1,2,12,I 66,,,TRUE,CV,p,1514,cv,I,6,v,v,TRUE,1
CVOE_C,47,1,2,13,S 30,,,FALSE,CV,q,459,cv,S,0,c,c,TRUE,1
CVOE_C,47,1,2,14,D 20,,,FALSE,CV,q,590,cv,D,0,c,c,TRUE,1
CVOE_C,47,1,2,15,I 31,,,FALSE,CV,p,451,cv,I,1,v,v,TRUE,1
CVOE_C,47,1,2,16,P 16,,,FALSE,CV,q,655,cv,P,6,c,c,TRUE,1
CVOE_C,47,1,2,17,A 49,,,FALSE,CV,p,530,cv,A,9,v,v,TRUE,1
CVOE_C,47,1,2,18,O 64,,,TRUE,CV,p,613,cv,O,4,v,v,TRUE,1
CVOE_C,47,1,2,19,D 02,,,FALSE,CV,q,480,cv,D,2,c,c,TRUE,1
CVOE_C,47,1,2,20,P 81,,,TRUE,CV,q,896,cv,P,1,c,c,TRUE,1
CVOE_C,47,1,2,21,J 58,,,FALSE,CV,q,1027,cv,J,8,c,c,TRUE,1
CVOE_C,47,1,2,22,A 22,,,TRUE,CV,p,617,cv,A,2,v,v,TRUE,1
CVOE_C,47,1,2,23,J 72,,,FALSE,CV,q,516,cv,J,2,c,c,TRUE,1
CVOE_C,47,1,2,24,P 91,,,TRUE,CV,q,549,cv,P,1,c,c,TRUE,1
CVOE_C,47,1,2,25,E 19,,,FALSE,CV,p,675,cv,E,9,v,v,TRUE,1
CVOE_C,47,1,2,26,I 30,,,TRUE,CV,p,411,cv,I,0,v,v,TRUE,1
CVOE_C,47,1,2,27,D 91,,,TRUE,CV,q,438,cv,D,1,c,c,TRUE,1
CVOE_C,47,1,2,28,O 48,,,TRUE,CV,p,1174,cv,O,8,v,v,TRUE,1
CVOE_C,47,1,2,29,A 89,,,FALSE,CV,p,562,cv,A,9,v,v,TRUE,1
CVOE_C,47,1,2,30,U 11,,,FALSE,CV,p,754,cv,U,1,v,v,TRUE,1
CVOE_C,47,1,2,31,I 76,,,TRUE,CV,p,491,cv,I,6,v,v,TRUE,1
CVOE_C,47,1,2,32,U 89,,,FALSE,CV,p,446,cv,U,9,v,v,TRUE,1
CVOE_C,47,1,2,33,D 63,,,TRUE,CV,q,390,cv,D,3,c,c,TRUE,1
CVOE_C,47,1,2,34,H 70,,,FALSE,CV,q,588,cv,H,0,c,c,TRUE,1
CVOE_C,47,1,2,35,D 48,,,FALSE,CV,q,465,cv,D,8,c,c,TRUE,1
CVOE_C,47,1,2,36,P 56,,,FALSE,CV,q,575,cv,P,6,c,c,TRUE,1
CVOE_C,47,1,2,37,O 77,,,FALSE,CV,p,1202,cv,O,7,v,v,TRUE,1
CVOE_C,47,1,2,38,P 42,,,FALSE,CV,q,515,cv,P,2,c,c,TRUE,1
CVOE_C,47,1,2,39,H 22,,,FALSE,CV,q,875,cv,H,2,c,c,TRUE,1
CVOE_C,47,1,2,40,E 42,,,TRUE,CV,p,508,cv,E,2,v,v,TRUE,1
CVOE_C,47,1,2,41,J 28,,,FALSE,CV,q,554,cv,J,8,c,c,TRUE,1
CVOE_C,47,1,2,42,E 95,,,FALSE,CV,p,439,cv,E,5,v,v,TRUE,1
CVOE_C,47,1,2,43,S 63,,,TRUE,CV,q,552,cv,S,3,c,c,TRUE,1
CVOE_C,47,1,2,44,H 50,,,FALSE,CV,q,661,cv,H,0,c,c,TRUE,1
CVOE_C,47,1,2,45,S 33,,,TRUE,CV,q,1243,cv,S,3,c,c,TRUE,1
CVOE_C,47,1,2,46,P 57,,,TRUE,CV,q,2452,cv,P,7,c,c,TRUE,1
CVOE_C,47,1,2,47,E 23,,,FALSE,CV,p,880,cv,E,3,v,v,TRUE,1
CVOE_C,47,1,2,48,S 61,,,TRUE,CV,q,528,cv,S,1,c,c,TRUE,1
CVOE_C,47,1,2,49,U 67,,,FALSE,CV,p,675,cv,U,7,v,v,TRUE,1
CVOE_C,47,1,2,50,H 32,,,FALSE,CV,q,580,cv,H,2,c,c,TRUE,1
CVOE_C,47,1,2,51,U 50,,,TRUE,CV,p,375,cv,U,0,v,v,TRUE,1
CVOE_C,47,1,2,52,O 49,,,FALSE,CV,p,562,cv,O,9,v,v,TRUE,1
CVOE_C,47,1,2,53,U 32,,,TRUE,CV,p,386,cv,U,2,v,v,TRUE,1
CVOE_C,47,1,2,54,J 78,,,FALSE,CV,q,528,cv,J,8,c,c,TRUE,1
CVOE_C,47,1,2,55,S 54,,,FALSE,CV,q,883,cv,S,4,c,c,TRUE,1
CVOE_C,47,1,2,56,J 27,,,TRUE,CV,q,939,cv,J,7,c,c,TRUE,1
CVOE_C,47,1,2,57,S 06,,,FALSE,CV,q,511,cv,S,6,c,c,TRUE,1
CVOE_C,47,1,2,58,D 67,,,TRUE,CV,q,572,cv,D,7,c,c,TRUE,1
CVOE_C,47,1,2,59,A 79,,,FALSE,CV,p,632,cv,A,9,v,v,TRUE,1
CVOE_C,47,1,2,60,S 52,,,FALSE,CV,q,2093,cv,S,2,c,c,TRUE,1
CVOE_C,47,1,2,61,U 16,,,TRUE,CV,p,513,cv,U,6,v,v,TRUE,1
CVOE_C,47,1,2,62,O 82,,,TRUE,CV,p,407,cv,O,2,v,v,TRUE,1
CVOE_C,47,1,2,63,H 87,,,TRUE,CV,q,559,cv,H,7,c,c,TRUE,1
CVOE_C,47,1,2,64,I 32,,,TRUE,CV,p,791,cv,I,2,v,v,TRUE,1
CVOE_C,47,1,2,65,U 37,,,FALSE,CV,p,717,cv,U,7,v,v,TRUE,1
CVOE_C,47,1,2,66,I 42,,,TRUE,CV,p,582,cv,I,2,v,v,TRUE,1
CVOE_C,47,1,2,67,D 65,,,TRUE,CV,q,499,cv,D,5,c,c,TRUE,1
CVOE_C,47,1,2,68,U 77,,,FALSE,CV,p,599,cv,U,7,v,v,TRUE,1
CVOE_C,47,1,2,69,E 12,,,TRUE,CV,p,431,cv,E,2,v,v,TRUE,1
CVOE_C,47,1,2,70,I 60,,,TRUE,CV,p,365,cv,I,0,v,v,TRUE,1
CVOE_C,47,1,2,71,J 36,,,FALSE,CV,q,381,cv,J,6,c,c,TRUE,1
CVOE_C,47,1,2,72,H 75,,,TRUE,CV,q,427,cv,H,5,c,c,TRUE,1
CVOE_C,47,1,2,73,I 50,,,TRUE,CV,p,696,cv,I,0,v,v,TRUE,1
CVOE_C,47,1,2,74,E 99,,,FALSE,CV,p,1612,cv,E,9,v,v,TRUE,1
CVOE_C,47,1,2,75,A 86,,,TRUE,CV,q,1079,cv,A,6,v,c,FALSE,0
CVOE_C,47,1,2,76,U 48,,,TRUE,CV,p,816,cv,U,8,v,v,TRUE,1
CVOE_C,47,1,2,77,E 01,,,FALSE,CV,p,747,cv,E,1,v,v,TRUE,1
CVOE_C,47,1,2,78,A 78,,,TRUE,CV,p,929,cv,A,8,v,v,TRUE,1
CVOE_C,47,1,2,79,P 60,,,FALSE,CV,q,660,cv,P,0,c,c,TRUE,1
CVOE_C,47,1,2,80,E 43,,,FALSE,CV,p,519,cv,E,3,v,v,TRUE,1
CVOE_C,47,1,2,81,D 69,,,TRUE,CV,q,519,cv,D,9,c,c,TRUE,1
CVOE_C,47,1,2,82,H 11,,,TRUE,CV,q,464,cv,H,1,c,c,TRUE,1
CVOE_C,47,1,2,83,P 43,,,TRUE,CV,q,469,cv,P,3,c,c,TRUE,1
CVOE_C,47,1,2,84,O 67,,,FALSE,CV,p,379,cv,O,7,v,v,TRUE,1
CVOE_C,47,1,2,85,S 91,,,FALSE,CV,q,526,cv,S,1,c,c,TRUE,1
CVOE_C,47,1,2,86,J 68,,,TRUE,CV,q,479,cv,J,8,c,c,TRUE,1
CVOE_C,47,1,2,87,S 47,,,FALSE,CV,q,383,cv,S,7,c,c,TRUE,1
CVOE_C,47,1,2,88,I 81,,,TRUE,CV,p,493,cv,I,1,v,v,TRUE,1
CVOE_C,47,1,2,89,J 39,,,FALSE,CV,q,592,cv,J,9,c,c,TRUE,1
CVOE_C,47,1,2,90,A 11,,,TRUE,CV,p,549,cv,A,1,v,v,TRUE,1
CVOE_C,47,1,2,91,O 76,,,FALSE,CV,p,539,cv,O,6,v,v,TRUE,1
CVOE_C,47,1,2,92,A 62,,,FALSE,CV,q,454,cv,A,2,v,c,FALSE,0
CVOE_C,47,1,2,93,O 27,,,TRUE,CV,p,529,cv,O,7,v,v,TRUE,1
CVOE_C,47,1,2,94,E 66,,,FALSE,CV,p,844,cv,E,6,v,v,TRUE,1
CVOE_C,47,1,2,95,J 62,,,TRUE,CV,q,533,cv,J,2,c,c,TRUE,1
CVOE_C,47,1,2,96,H 72,,,TRUE,CV,q,728,cv,H,2,c,c,TRUE,1
CVOE_C,47,1,2,97,E 49,,,TRUE,CV,p,587,cv,E,9,v,v,TRUE,1
CVOE_C,47,1,2,98,D 52,,,TRUE,CV,q,745,cv,D,2,c,c,TRUE,1
CVOE_C,47,1,2,99,H 62,,,TRUE,CV,q,439,cv,H,2,c,c,TRUE,1
CVOE_C,47,1,2,100,I 11,,,TRUE,CV,p,343,cv,I,1,v,v,TRUE,1
CVOE_C,47,1,2,101,A 98,,,FALSE,CV,p,677,cv,A,8,v,v,TRUE,1
CVOE_C,47,1,2,102,H 29,,,FALSE,CV,q,533,cv,H,9,c,c,TRUE,1
CVOE_C,47,1,2,103,E 83,,,TRUE,CV,p,384,cv,E,3,v,v,TRUE,1
CVOE_C,47,1,2,104,D 43,,,FALSE,CV,q,534,cv,D,3,c,c,TRUE,1
CVOE_C,47,1,2,105,P 45,,,TRUE,CV,q,1369,cv,P,5,c,c,TRUE,1
CVOE_C,47,1,2,106,J 17,,,TRUE,CV,q,492,cv,J,7,c,c,TRUE,1
CVOE_C,51,1,2,11,A 71,,,FALSE,CV,p,2066,cv,A,1,v,v,TRUE,1
CVOE_C,51,1,2,12,I 66,,,TRUE,CV,q,568,cv,I,6,v,c,FALSE,0
CVOE_C,51,1,2,13,S 30,,,FALSE,CV,q,571,cv,S,0,c,c,TRUE,1
CVOE_C,51,1,2,14,D 20,,,FALSE,CV,q,578,cv,D,0,c,c,TRUE,1
CVOE_C,51,1,2,15,I 31,,,FALSE,CV,p,533,cv,I,1,v,v,TRUE,1
CVOE_C,51,1,2,16,P 16,,,FALSE,CV,q,662,cv,P,6,c,c,TRUE,1
CVOE_C,51,1,2,17,A 49,,,FALSE,CV,p,544,cv,A,9,v,v,TRUE,1
CVOE_C,51,1,2,18,O 64,,,TRUE,CV,p,447,cv,O,4,v,v,TRUE,1
CVOE_C,51,1,2,19,D 02,,,FALSE,CV,q,597,cv,D,2,c,c,TRUE,1
CVOE_C,51,1,2,20,P 81,,,TRUE,CV,q,523,cv,P,1,c,c,TRUE,1
CVOE_C,51,1,2,21,J 58,,,FALSE,CV,q,477,cv,J,8,c,c,TRUE,1
CVOE_C,51,1,2,22,A 22,,,TRUE,CV,p,564,cv,A,2,v,v,TRUE,1
CVOE_C,51,1,2,23,J 72,,,FALSE,CV,q,482,cv,J,2,c,c,TRUE,1
CVOE_C,51,1,2,24,P 91,,,TRUE,CV,q,649,cv,P,1,c,c,TRUE,1
CVOE_C,51,1,2,25,E 19,,,FALSE,CV,p,503,cv,E,9,v,v,TRUE,1
CVOE_C,51,1,2,26,I 30,,,TRUE,CV,p,458,cv,I,0,v,v,TRUE,1
CVOE_C,51,1,2,27,D 91,,,TRUE,CV,q,471,cv,D,1,c,c,TRUE,1
CVOE_C,51,1,2,28,O 48,,,TRUE,CV,p,702,cv,O,8,v,v,TRUE,1
CVOE_C,51,1,2,29,A 89,,,FALSE,CV,p,667,cv,A,9,v,v,TRUE,1
CVOE_C,51,1,2,30,U 11,,,FALSE,CV,p,764,cv,U,1,v,v,TRUE,1
CVOE_C,51,1,2,31,I 76,,,TRUE,CV,p,497,cv,I,6,v,v,TRUE,1
CVOE_C,51,1,2,32,U 89,,,FALSE,CV,p,500,cv,U,9,v,v,TRUE,1
CVOE_C,51,1,2,33,D 63,,,TRUE,CV,q,545,cv,D,3,c,c,TRUE,1
CVOE_C,51,1,2,34,H 70,,,FALSE,CV,q,621,cv,H,0,c,c,TRUE,1
CVOE_C,51,1,2,35,D 48,,,FALSE,CV,q,578,cv,D,8,c,c,TRUE,1
CVOE_C,51,1,2,36,P 56,,,FALSE,CV,q,481,cv,P,6,c,c,TRUE,1
CVOE_C,51,1,2,37,O 77,,,FALSE,CV,p,565,cv,O,7,v,v,TRUE,1
CVOE_C,51,1,2,38,P 42,,,FALSE,CV,q,516,cv,P,2,c,c,TRUE,1
CVOE_C,51,1,2,39,H 22,,,FALSE,CV,q,479,cv,H,2,c,c,TRUE,1
CVOE_C,51,1,2,40,E 42,,,TRUE,CV,p,534,cv,E,2,v,v,TRUE,1
CVOE_C,51,1,2,41,J 28,,,FALSE,CV,q,496,cv,J,8,c,c,TRUE,1
CVOE_C,51,1,2,42,E 95,,,FALSE,CV,p,530,cv,E,5,v,v,TRUE,1
CVOE_C,51,1,2,43,S 63,,,TRUE,CV,q,532,cv,S,3,c,c,TRUE,1
CVOE_C,51,1,2,44,H 50,,,FALSE,CV,q,575,cv,H,0,c,c,TRUE,1
CVOE_C,51,1,2,45,S 33,,,TRUE,CV,q,533,cv,S,3,c,c,TRUE,1
CVOE_C,51,1,2,46,P 57,,,TRUE,CV,q,433,cv,P,7,c,c,TRUE,1
CVOE_C,51,1,2,47,E 23,,,FALSE,CV,q,410,cv,E,3,v,c,FALSE,0
CVOE_C,51,1,2,48,S 61,,,TRUE,CV,q,693,cv,S,1,c,c,TRUE,1
CVOE_C,51,1,2,49,U 67,,,FALSE,CV,p,416,cv,U,7,v,v,TRUE,1
CVOE_C,51,1,2,50,H 32,,,FALSE,CV,q,544,cv,H,2,c,c,TRUE,1
CVOE_C,51,1,2,51,U 50,,,TRUE,CV,p,536,cv,U,0,v,v,TRUE,1
CVOE_C,51,1,2,52,O 49,,,FALSE,CV,p,426,cv,O,9,v,v,TRUE,1
CVOE_C,51,1,2,53,U 32,,,TRUE,CV,p,389,cv,U,2,v,v,TRUE,1
CVOE_C,51,1,2,54,J 78,,,FALSE,CV,q,607,cv,J,8,c,c,TRUE,1
CVOE_C,51,1,2,55,S 54,,,FALSE,CV,q,488,cv,S,4,c,c,TRUE,1
CVOE_C,51,1,2,56,J 27,,,TRUE,CV,q,532,cv,J,7,c,c,TRUE,1
CVOE_C,51,1,2,57,S 06,,,FALSE,CV,q,542,cv,S,6,c,c,TRUE,1
CVOE_C,51,1,2,58,D 67,,,TRUE,CV,q,876,cv,D,7,c,c,TRUE,1
CVOE_C,51,1,2,59,A 79,,,FALSE,CV,p,514,cv,A,9,v,v,TRUE,1
CVOE_C,51,1,2,60,S 52,,,FALSE,CV,q,462,cv,S,2,c,c,TRUE,1
CVOE_C,51,1,2,61,U 16,,,TRUE,CV,p,521,cv,U,6,v,v,TRUE,1
CVOE_C,51,1,2,62,O 82,,,TRUE,CV,p,524,cv,O,2,v,v,TRUE,1
CVOE_C,51,1,2,63,H 87,,,TRUE,CV,q,650,cv,H,7,c,c,TRUE,1
CVOE_C,51,1,2,64,I 32,,,TRUE,CV,p,801,cv,I,2,v,v,TRUE,1
CVOE_C,51,1,2,65,U 37,,,FALSE,CV,p,784,cv,U,7,v,v,TRUE,1
CVOE_C,51,1,2,66,I 42,,,TRUE,CV,p,561,cv,I,2,v,v,TRUE,1
CVOE_C,51,1,2,67,D 65,,,TRUE,CV,q,566,cv,D,5,c,c,TRUE,1
CVOE_C,51,1,2,68,U 77,,,FALSE,CV,p,559,cv,U,7,v,v,TRUE,1
CVOE_C,51,1,2,69,E 12,,,TRUE,CV,p,532,cv,E,2,v,v,TRUE,1
CVOE_C,51,1,2,70,I 60,,,TRUE,CV,p,472,cv,I,0,v,v,TRUE,1
CVOE_C,51,1,2,71,J 36,,,FALSE,CV,q,506,cv,J,6,c,c,TRUE,1
CVOE_C,51,1,2,72,H 75,,,TRUE,CV,q,522,cv,H,5,c,c,TRUE,1
CVOE_C,51,1,2,73,I 50,,,TRUE,CV,p,598,cv,I,0,v,v,TRUE,1
CVOE_C,51,1,2,74,E 99,,,FALSE,CV,p,429,cv,E,9,v,v,TRUE,1
CVOE_C,51,1,2,75,A 86,,,TRUE,CV,p,428,cv,A,6,v,v,TRUE,1
CVOE_C,51,1,2,76,U 48,,,TRUE,CV,p,435,cv,U,8,v,v,TRUE,1
CVOE_C,51,1,2,77,E 01,,,FALSE,CV,p,355,cv,E,1,v,v,TRUE,1
CVOE_C,51,1,2,78,A 78,,,TRUE,CV,p,440,cv,A,8,v,v,TRUE,1
CVOE_C,51,1,2,79,P 60,,,FALSE,CV,q,427,cv,P,0,c,c,TRUE,1
CVOE_C,51,1,2,80,E 43,,,FALSE,CV,p,883,cv,E,3,v,v,TRUE,1
CVOE_C,51,1,2,81,D 69,,,TRUE,CV,q,562,cv,D,9,c,c,TRUE,1
CVOE_C,51,1,2,82,H 11,,,TRUE,CV,q,686,cv,H,1,c,c,TRUE,1
CVOE_C,51,1,2,83,P 43,,,TRUE,CV,q,460,cv,P,3,c,c,TRUE,1
CVOE_C,51,1,2,84,O 67,,,FALSE,CV,p,490,cv,O,7,v,v,TRUE,1
CVOE_C,51,1,2,85,S 91,,,FALSE,CV,q,466,cv,S,1,c,c,TRUE,1
CVOE_C,51,1,2,86,J 68,,,TRUE,CV,q,658,cv,J,8,c,c,TRUE,1
CVOE_C,51,1,2,87,S 47,,,FALSE,CV,q,552,cv,S,7,c,c,TRUE,1
CVOE_C,51,1,2,88,I 81,,,TRUE,CV,p,539,cv,I,1,v,v,TRUE,1
CVOE_C,51,1,2,89,J 39,,,FALSE,CV,q,450,cv,J,9,c,c,TRUE,1
CVOE_C,51,1,2,90,A 11,,,TRUE,CV,p,429,cv,A,1,v,v,TRUE,1
CVOE_C,51,1,2,91,O 76,,,FALSE,CV,p,427,cv,O,6,v,v,TRUE,1
CVOE_C,51,1,2,92,A 62,,,FALSE,CV,p,386,cv,A,2,v,v,TRUE,1
CVOE_C,51,1,2,93,O 27,,,TRUE,CV,p,406,cv,O,7,v,v,TRUE,1
CVOE_C,51,1,2,94,E 66,,,FALSE,CV,p,525,cv,E,6,v,v,TRUE,1
CVOE_C,51,1,2,95,J 62,,,TRUE,CV,q,451,cv,J,2,c,c,TRUE,1
CVOE_C,51,1,2,96,H 72,,,TRUE,CV,q,788,cv,H,2,c,c,TRUE,1
CVOE_C,51,1,2,97,E 49,,,TRUE,CV,p,547,cv,E,9,v,v,TRUE,1
CVOE_C,51,1,2,98,D 52,,,TRUE,CV,q,599,cv,D,2,c,c,TRUE,1
CVOE_C,51,1,2,99,H 62,,,TRUE,CV,q,836,cv,H,2,c,c,TRUE,1
CVOE_C,51,1,2,100,I 11,,,TRUE,CV,p,513,cv,I,1,v,v,TRUE,1
CVOE_C,51,1,2,101,A 98,,,FALSE,CV,p,391,cv,A,8,v,v,TRUE,1
CVOE_C,51,1,2,102,H 29,,,FALSE,CV,q,437,cv,H,9,c,c,TRUE,1
CVOE_C,51,1,2,103,E 83,,,TRUE,CV,p,461,cv,E,3,v,v,TRUE,1
CVOE_C,51,1,2,104,D 43,,,FALSE,CV,q,500,cv,D,3,c,c,TRUE,1
CVOE_C,51,1,2,105,P 45,,,TRUE,CV,q,528,cv,P,5,c,c,TRUE,1
CVOE_C,51,1,2,106,J 17,,,TRUE,CV,q,530,cv,J,7,c,c,TRUE,1
CVOE_C,55,1,2,11,A 71,,,FALSE,CV,p,1322,cv,A,1,v,v,TRUE,1
CVOE_C,55,1,2,12,I 66,,,TRUE,CV,p,600,cv,I,6,v,v,TRUE,1
CVOE_C,55,1,2,13,S 30,,,FALSE,CV,q,726,cv,S,0,c,c,TRUE,1
CVOE_C,55,1,2,14,D 20,,,FALSE,CV,q,1568,cv,D,0,c,c,TRUE,1
CVOE_C,55,1,2,15,I 31,,,FALSE,CV,p,1106,cv,I,1,v,v,TRUE,1
CVOE_C,55,1,2,16,P 16,,,FALSE,CV,q,1166,cv,P,6,c,c,TRUE,1
CVOE_C,55,1,2,17,A 49,,,FALSE,CV,p,1231,cv,A,9,v,v,TRUE,1
CVOE_C,55,1,2,18,O 64,,,TRUE,CV,q,702,cv,O,4,v,c,FALSE,0
CVOE_C,55,1,2,19,D 02,,,FALSE,CV,p,674,cv,D,2,c,v,FALSE,0
CVOE_C,55,1,2,20,P 81,,,TRUE,CV,q,1316,cv,P,1,c,c,TRUE,1
CVOE_C,55,1,2,21,J 58,,,FALSE,CV,q,1225,cv,J,8,c,c,TRUE,1
CVOE_C,55,1,2,22,A 22,,,TRUE,CV,p,651,cv,A,2,v,v,TRUE,1
CVOE_C,55,1,2,23,J 72,,,FALSE,CV,q,1101,cv,J,2,c,c,TRUE,1
CVOE_C,55,1,2,24,P 91,,,TRUE,CV,q,520,cv,P,1,c,c,TRUE,1
CVOE_C,55,1,2,25,E 19,,,FALSE,CV,p,580,cv,E,9,v,v,TRUE,1
CVOE_C,55,1,2,26,I 30,,,TRUE,CV,p,628,cv,I,0,v,v,TRUE,1
CVOE_C,55,1,2,27,D 91,,,TRUE,CV,q,521,cv,D,1,c,c,TRUE,1
CVOE_C,55,1,2,28,O 48,,,TRUE,CV,p,659,cv,O,8,v,v,TRUE,1
CVOE_C,55,1,2,29,A 89,,,FALSE,CV,p,637,cv,A,9,v,v,TRUE,1
CVOE_C,55,1,2,30,U 11,,,FALSE,CV,p,680,cv,U,1,v,v,TRUE,1
CVOE_C,55,1,2,31,I 76,,,TRUE,CV,p,552,cv,I,6,v,v,TRUE,1
CVOE_C,55,1,2,32,U 89,,,FALSE,CV,p,547,cv,U,9,v,v,TRUE,1
CVOE_C,55,1,2,33,D 63,,,TRUE,CV,q,611,cv,D,3,c,c,TRUE,1
CVOE_C,55,1,2,34,H 70,,,FALSE,CV,q,4204,cv,H,0,c,c,TRUE,1
CVOE_C,55,1,2,35,D 48,,,FALSE,CV,q,727,cv,D,8,c,c,TRUE,1
CVOE_C,55,1,2,36,P 56,,,FALSE,CV,q,1384,cv,P,6,c,c,TRUE,1
CVOE_C,55,1,2,37,O 77,,,FALSE,CV,p,623,cv,O,7,v,v,TRUE,1
CVOE_C,55,1,2,38,P 42,,,FALSE,CV,q,639,cv,P,2,c,c,TRUE,1
CVOE_C,55,1,2,39,H 22,,,FALSE,CV,q,1442,cv,H,2,c,c,TRUE,1
CVOE_C,55,1,2,40,E 42,,,TRUE,CV,p,519,cv,E,2,v,v,TRUE,1
CVOE_C,55,1,2,41,J 28,,,FALSE,CV,q,526,cv,J,8,c,c,TRUE,1
CVOE_C,55,1,2,42,E 95,,,FALSE,CV,p,472,cv,E,5,v,v,TRUE,1
CVOE_C,55,1,2,43,S 63,,,TRUE,CV,q,574,cv,S,3,c,c,TRUE,1
CVOE_C,55,1,2,44,H 50,,,FALSE,CV,q,2988,cv,H,0,c,c,TRUE,1
CVOE_C,55,1,2,45,S 33,,,TRUE,CV,q,2349,cv,S,3,c,c,TRUE,1
CVOE_C,55,1,2,46,P 57,,,TRUE,CV,q,936,cv,P,7,c,c,TRUE,1
CVOE_C,55,1,2,47,E 23,,,FALSE,CV,p,812,cv,E,3,v,v,TRUE,1
CVOE_C,55,1,2,48,S 61,,,TRUE,CV,q,709,cv,S,1,c,c,TRUE,1
CVOE_C,55,1,2,49,U 67,,,FALSE,CV,p,756,cv,U,7,v,v,TRUE,1
CVOE_C,55,1,2,50,H 32,,,FALSE,CV,q,935,cv,H,2,c,c,TRUE,1
CVOE_C,55,1,2,51,U 50,,,TRUE,CV,p,657,cv,U,0,v,v,TRUE,1
CVOE_C,55,1,2,52,O 49,,,FALSE,CV,p,1568,cv,O,9,v,v,TRUE,1
CVOE_C,55,1,2,53,U 32,,,TRUE,CV,p,867,cv,U,2,v,v,TRUE,1
CVOE_C,55,1,2,54,J 78,,,FALSE,CV,q,673,cv,J,8,c,c,TRUE,1
CVOE_C,55,1,2,55,S 54,,,FALSE,CV,q,522,cv,S,4,c,c,TRUE,1
CVOE_C,55,1,2,56,J 27,,,TRUE,CV,q,582,cv,J,7,c,c,TRUE,1
CVOE_C,55,1,2,57,S 06,,,FALSE,CV,q,494,cv,S,6,c,c,TRUE,1
CVOE_C,55,1,2,58,D 67,,,TRUE,CV,q,559,cv,D,7,c,c,TRUE,1
CVOE_C,55,1,2,59,A 79,,,FALSE,CV,p,530,cv,A,9,v,v,TRUE,1
CVOE_C,55,1,2,60,S 52,,,FALSE,CV,q,589,cv,S,2,c,c,TRUE,1
CVOE_C,55,1,2,61,U 16,,,TRUE,CV,p,485,cv,U,6,v,v,TRUE,1
CVOE_C,55,1,2,62,O 82,,,TRUE,CV,p,872,cv,O,2,v,v,TRUE,1
CVOE_C,55,1,2,63,H 87,,,TRUE,CV,q,503,cv,H,7,c,c,TRUE,1
CVOE_C,55,1,2,64,I 32,,,TRUE,CV,p,443,cv,I,2,v,v,TRUE,1
CVOE_C,55,1,2,65,U 37,,,FALSE,CV,p,370,cv,U,7,v,v,TRUE,1
CVOE_C,55,1,2,66,I 42,,,TRUE,CV,p,535,cv,I,2,v,v,TRUE,1
CVOE_C,55,1,2,67,D 65,,,TRUE,CV,q,719,cv,D,5,c,c,TRUE,1
CVOE_C,55,1,2,68,U 77,,,FALSE,CV,p,666,cv,U,7,v,v,TRUE,1
CVOE_C,55,1,2,69,E 12,,,TRUE,CV,p,522,cv,E,2,v,v,TRUE,1
CVOE_C,55,1,2,70,I 60,,,TRUE,CV,p,368,cv,I,0,v,v,TRUE,1
CVOE_C,55,1,2,71,J 36,,,FALSE,CV,q,625,cv,J,6,c,c,TRUE,1
CVOE_C,55,1,2,72,H 75,,,TRUE,CV,q,2037,cv,H,5,c,c,TRUE,1
CVOE_C,55,1,2,73,I 50,,,TRUE,CV,p,774,cv,I,0,v,v,TRUE,1
CVOE_C,55,1,2,74,E 99,,,FALSE,CV,p,946,cv,E,9,v,v,TRUE,1
CVOE_C,55,1,2,75,A 86,,,TRUE,CV,p,991,cv,A,6,v,v,TRUE,1
CVOE_C,55,1,2,76,U 48,,,TRUE,CV,p,744,cv,U,8,v,v,TRUE,1
CVOE_C,55,1,2,77,E 01,,,FALSE,CV,p,818,cv,E,1,v,v,TRUE,1
CVOE_C,55,1,2,78,A 78,,,TRUE,CV,p,818,cv,A,8,v,v,TRUE,1
CVOE_C,55,1,2,79,P 60,,,FALSE,CV,q,683,cv,P,0,c,c,TRUE,1
CVOE_C,55,1,2,80,E 43,,,FALSE,CV,p,709,cv,E,3,v,v,TRUE,1
CVOE_C,55,1,2,81,D 69,,,TRUE,CV,q,646,cv,D,9,c,c,TRUE,1
CVOE_C,55,1,2,82,H 11,,,TRUE,CV,p,541,cv,H,1,c,v,FALSE,0
CVOE_C,55,1,2,83,P 43,,,TRUE,CV,q,1407,cv,P,3,c,c,TRUE,1
CVOE_C,55,1,2,84,O 67,,,FALSE,CV,p,866,cv,O,7,v,v,TRUE,1
CVOE_C,55,1,2,85,S 91,,,FALSE,CV,q,810,cv,S,1,c,c,TRUE,1
CVOE_C,55,1,2,86,J 68,,,TRUE,CV,q,681,cv,J,8,c,c,TRUE,1
CVOE_C,55,1,2,87,S 47,,,FALSE,CV,q,1386,cv,S,7,c,c,TRUE,1
CVOE_C,55,1,2,88,I 81,,,TRUE,CV,p,682,cv,I,1,v,v,TRUE,1
CVOE_C,55,1,2,89,J 39,,,FALSE,CV,q,579,cv,J,9,c,c,TRUE,1
CVOE_C,55,1,2,90,A 11,,,TRUE,CV,p,898,cv,A,1,v,v,TRUE,1
CVOE_C,55,1,2,91,O 76,,,FALSE,CV,p,702,cv,O,6,v,v,TRUE,1
CVOE_C,55,1,2,92,A 62,,,FALSE,CV,p,809,cv,A,2,v,v,TRUE,1
CVOE_C,55,1,2,93,O 27,,,TRUE,CV,p,427,cv,O,7,v,v,TRUE,1
CVOE_C,55,1,2,94,E 66,,,FALSE,CV,p,606,cv,E,6,v,v,TRUE,1
CVOE_C,55,1,2,95,J 62,,,TRUE,CV,q,587,cv,J,2,c,c,TRUE,1
CVOE_C,55,1,2,96,H 72,,,TRUE,CV,q,908,cv,H,2,c,c,TRUE,1
CVOE_C,55,1,2,97,E 49,,,TRUE,CV,p,571,cv,E,9,v,v,TRUE,1
CVOE_C,55,1,2,98,D 52,,,TRUE,CV,q,601,cv,D,2,c,c,TRUE,1
CVOE_C,55,1,2,99,H 62,,,TRUE,CV,q,1218,cv,H,2,c,c,TRUE,1
CVOE_C,55,1,2,100,I 11,,,TRUE,CV,p,903,cv,I,1,v,v,TRUE,1
CVOE_C,55,1,2,101,A 98,,,FALSE,CV,p,632,cv,A,8,v,v,TRUE,1
CVOE_C,55,1,2,102,H 29,,,FALSE,CV,q,821,cv,H,9,c,c,TRUE,1
CVOE_C,55,1,2,103,E 83,,,TRUE,CV,p,575,cv,E,3,v,v,TRUE,1
CVOE_C,55,1,2,104,D 43,,,FALSE,CV,q,842,cv,D,3,c,c,TRUE,1
CVOE_C,55,1,2,105,P 45,,,TRUE,CV,q,1416,cv,P,5,c,c,TRUE,1
CVOE_C,55,1,2,106,J 17,,,TRUE,CV,q,781,cv,J,7,c,c,TRUE,1
CVOE_C,59,1,2,11,A 71,,,FALSE,CV,p,2959,cv,A,1,v,v,TRUE,1
CVOE_C,59,1,2,12,I 66,,,TRUE,CV,p,960,cv,I,6,v,v,TRUE,1
CVOE_C,59,1,2,13,S 30,,,FALSE,CV,q,657,cv,S,0,c,c,TRUE,1
CVOE_C,59,1,2,14,D 20,,,FALSE,CV,q,548,cv,D,0,c,c,TRUE,1
CVOE_C,59,1,2,15,I 31,,,FALSE,CV,p,537,cv,I,1,v,v,TRUE,1
CVOE_C,59,1,2,16,P 16,,,FALSE,CV,q,677,cv,P,6,c,c,TRUE,1
CVOE_C,59,1,2,17,A 49,,,FALSE,CV,p,645,cv,A,9,v,v,TRUE,1
CVOE_C,59,1,2,18,O 64,,,TRUE,CV,p,645,cv,O,4,v,v,TRUE,1
CVOE_C,59,1,2,19,D 02,,,FALSE,CV,q,1590,cv,D,2,c,c,TRUE,1
CVOE_C,59,1,2,20,P 81,,,TRUE,CV,q,652,cv,P,1,c,c,TRUE,1
CVOE_C,59,1,2,21,J 58,,,FALSE,CV,q,663,cv,J,8,c,c,TRUE,1
CVOE_C,59,1,2,22,A 22,,,TRUE,CV,p,669,cv,A,2,v,v,TRUE,1
CVOE_C,59,1,2,23,J 72,,,FALSE,CV,q,683,cv,J,2,c,c,TRUE,1
CVOE_C,59,1,2,24,P 91,,,TRUE,CV,q,547,cv,P,1,c,c,TRUE,1
CVOE_C,59,1,2,25,E 19,,,FALSE,CV,p,657,cv,E,9,v,v,TRUE,1
CVOE_C,59,1,2,26,I 30,,,TRUE,CV,p,604,cv,I,0,v,v,TRUE,1
CVOE_C,59,1,2,27,D 91,,,TRUE,CV,q,1060,cv,D,1,c,c,TRUE,1
CVOE_C,59,1,2,28,O 48,,,TRUE,CV,p,538,cv,O,8,v,v,TRUE,1
CVOE_C,59,1,2,29,A 89,,,FALSE,CV,q,565,cv,A,9,v,c,FALSE,0
CVOE_C,59,1,2,30,U 11,,,FALSE,CV,p,854,cv,U,1,v,v,TRUE,1
CVOE_C,59,1,2,31,I 76,,,TRUE,CV,p,665,cv,I,6,v,v,TRUE,1
CVOE_C,59,1,2,32,U 89,,,FALSE,CV,p,647,cv,U,9,v,v,TRUE,1
CVOE_C,59,1,2,33,D 63,,,TRUE,CV,q,743,cv,D,3,c,c,TRUE,1
CVOE_C,59,1,2,34,H 70,,,FALSE,CV,q,693,cv,H,0,c,c,TRUE,1
CVOE_C,59,1,2,35,D 48,,,FALSE,CV,q,800,cv,D,8,c,c,TRUE,1
CVOE_C,59,1,2,36,P 56,,,FALSE,CV,q,649,cv,P,6,c,c,TRUE,1
CVOE_C,59,1,2,37,O 77,,,FALSE,CV,p,588,cv,O,7,v,v,TRUE,1
CVOE_C,59,1,2,38,P 42,,,FALSE,CV,q,690,cv,P,2,c,c,TRUE,1
CVOE_C,59,1,2,39,H 22,,,FALSE,CV,q,509,cv,H,2,c,c,TRUE,1
CVOE_C,59,1,2,40,E 42,,,TRUE,CV,p,762,cv,E,2,v,v,TRUE,1
CVOE_C,59,1,2,41,J 28,,,FALSE,CV,q,595,cv,J,8,c,c,TRUE,1
CVOE_C,59,1,2,42,E 95,,,FALSE,CV,p,995,cv,E,5,v,v,TRUE,1
CVOE_C,59,1,2,43,S 63,,,TRUE,CV,q,572,cv,S,3,c,c,TRUE,1
CVOE_C,59,1,2,44,H 50,,,FALSE,CV,q,551,cv,H,0,c,c,TRUE,1
CVOE_C,59,1,2,45,S 33,,,TRUE,CV,q,573,cv,S,3,c,c,TRUE,1
CVOE_C,59,1,2,46,P 57,,,TRUE,CV,q,496,cv,P,7,c,c,TRUE,1
CVOE_C,59,1,2,47,E 23,,,FALSE,CV,p,1259,cv,E,3,v,v,TRUE,1
CVOE_C,59,1,2,48,S 61,,,TRUE,CV,q,790,cv,S,1,c,c,TRUE,1
CVOE_C,59,1,2,49,U 67,,,FALSE,CV,p,756,cv,U,7,v,v,TRUE,1
CVOE_C,59,1,2,50,H 32,,,FALSE,CV,q,573,cv,H,2,c,c,TRUE,1
CVOE_C,59,1,2,51,U 50,,,TRUE,CV,p,608,cv,U,0,v,v,TRUE,1
CVOE_C,59,1,2,52,O 49,,,FALSE,CV,p,747,cv,O,9,v,v,TRUE,1
CVOE_C,59,1,2,53,U 32,,,TRUE,CV,p,713,cv,U,2,v,v,TRUE,1
CVOE_C,59,1,2,54,J 78,,,FALSE,CV,q,606,cv,J,8,c,c,TRUE,1
CVOE_C,59,1,2,55,S 54,,,FALSE,CV,q,687,cv,S,4,c,c,TRUE,1
CVOE_C,59,1,2,56,J 27,,,TRUE,CV,q,591,cv,J,7,c,c,TRUE,1
CVOE_C,59,1,2,57,S 06,,,FALSE,CV,q,645,cv,S,6,c,c,TRUE,1
CVOE_C,59,1,2,58,D 67,,,TRUE,CV,q,501,cv,D,7,c,c,TRUE,1
CVOE_C,59,1,2,59,A 79,,,FALSE,CV,p,531,cv,A,9,v,v,TRUE,1
CVOE_C,59,1,2,60,S 52,,,FALSE,CV,q,486,cv,S,2,c,c,TRUE,1
CVOE_C,59,1,2,61,U 16,,,TRUE,CV,p,455,cv,U,6,v,v,TRUE,1
CVOE_C,59,1,2,62,O 82,,,TRUE,CV,p,474,cv,O,2,v,v,TRUE,1
CVOE_C,59,1,2,63,H 87,,,TRUE,CV,q,487,cv,H,7,c,c,TRUE,1
CVOE_C,59,1,2,64,I 32,,,TRUE,CV,p,506,cv,I,2,v,v,TRUE,1
CVOE_C,59,1,2,65,U 37,,,FALSE,CV,p,712,cv,U,7,v,v,TRUE,1
CVOE_C,59,1,2,66,I 42,,,TRUE,CV,p,502,cv,I,2,v,v,TRUE,1
CVOE_C,59,1,2,67,D 65,,,TRUE,CV,q,540,cv,D,5,c,c,TRUE,1
CVOE_C,59,1,2,68,U 77,,,FALSE,CV,p,607,cv,U,7,v,v,TRUE,1
CVOE_C,59,1,2,69,E 12,,,TRUE,CV,p,535,cv,E,2,v,v,TRUE,1
CVOE_C,59,1,2,70,I 60,,,TRUE,CV,p,722,cv,I,0,v,v,TRUE,1
CVOE_C,59,1,2,71,J 36,,,FALSE,CV,q,579,cv,J,6,c,c,TRUE,1
CVOE_C,59,1,2,72,H 75,,,TRUE,CV,q,622,cv,H,5,c,c,TRUE,1
CVOE_C,59,1,2,73,I 50,,,TRUE,CV,p,1052,cv,I,0,v,v,TRUE,1
CVOE_C,59,1,2,74,E 99,,,FALSE,CV,p,567,cv,E,9,v,v,TRUE,1
CVOE_C,59,1,2,75,A 86,,,TRUE,CV,p,503,cv,A,6,v,v,TRUE,1
CVOE_C,59,1,2,76,U 48,,,TRUE,CV,p,621,cv,U,8,v,v,TRUE,1
CVOE_C,59,1,2,77,E 01,,,FALSE,CV,p,619,cv,E,1,v,v,TRUE,1
CVOE_C,59,1,2,78,A 78,,,TRUE,CV,p,542,cv,A,8,v,v,TRUE,1
CVOE_C,59,1,2,79,P 60,,,FALSE,CV,q,580,cv,P,0,c,c,TRUE,1
CVOE_C,59,1,2,80,E 43,,,FALSE,CV,p,751,cv,E,3,v,v,TRUE,1
CVOE_C,59,1,2,81,D 69,,,TRUE,CV,q,772,cv,D,9,c,c,TRUE,1
CVOE_C,59,1,2,82,H 11,,,TRUE,CV,q,648,cv,H,1,c,c,TRUE,1
CVOE_C,59,1,2,83,P 43,,,TRUE,CV,q,651,cv,P,3,c,c,TRUE,1
CVOE_C,59,1,2,84,O 67,,,FALSE,CV,p,1102,cv,O,7,v,v,TRUE,1
CVOE_C,59,1,2,85,S 91,,,FALSE,CV,q,588,cv,S,1,c,c,TRUE,1
CVOE_C,59,1,2,86,J 68,,,TRUE,CV,q,522,cv,J,8,c,c,TRUE,1
CVOE_C,59,1,2,87,S 47,,,FALSE,CV,p,562,cv,S,7,c,v,FALSE,0
CVOE_C,59,1,2,88,I 81,,,TRUE,CV,p,898,cv,I,1,v,v,TRUE,1
CVOE_C,59,1,2,89,J 39,,,FALSE,CV,q,574,cv,J,9,c,c,TRUE,1
CVOE_C,59,1,2,90,A 11,,,TRUE,CV,p,809,cv,A,1,v,v,TRUE,1
CVOE_C,59,1,2,91,O 76,,,FALSE,CV,p,732,cv,O,6,v,v,TRUE,1
CVOE_C,59,1,2,92,A 62,,,FALSE,CV,p,743,cv,A,2,v,v,TRUE,1
CVOE_C,59,1,2,93,O 27,,,TRUE,CV,p,733,cv,O,7,v,v,TRUE,1
CVOE_C,59,1,2,94,E 66,,,FALSE,CV,p,544,cv,E,6,v,v,TRUE,1
CVOE_C,59,1,2,95,J 62,,,TRUE,CV,q,598,cv,J,2,c,c,TRUE,1
CVOE_C,59,1,2,96,H 72,,,TRUE,CV,q,598,cv,H,2,c,c,TRUE,1
CVOE_C,59,1,2,97,E 49,,,TRUE,CV,p,662,cv,E,9,v,v,TRUE,1
CVOE_C,59,1,2,98,D 52,,,TRUE,CV,q,652,cv,D,2,c,c,TRUE,1
CVOE_C,59,1,2,99,H 62,,,TRUE,CV,q,607,cv,H,2,c,c,TRUE,1
CVOE_C,59,1,2,100,I 11,,,TRUE,CV,p,674,cv,I,1,v,v,TRUE,1
CVOE_C,59,1,2,101,A 98,,,FALSE,CV,p,1299,cv,A,8,v,v,TRUE,1
CVOE_C,59,1,2,102,H 29,,,FALSE,CV,q,654,cv,H,9,c,c,TRUE,1
CVOE_C,59,1,2,103,E 83,,,TRUE,CV,p,681,cv,E,3,v,v,TRUE,1
CVOE_C,59,1,2,104,D 43,,,FALSE,CV,q,530,cv,D,3,c,c,TRUE,1
CVOE_C,59,1,2,105,P 45,,,TRUE,CV,q,605,cv,P,5,c,c,TRUE,1
CVOE_C,59,1,2,106,J 17,,,TRUE,CV,q,589,cv,J,7,c,c,TRUE,1
CVOE_C,63,1,2,11,A 71,,,FALSE,CV,p,1956,cv,A,1,v,v,TRUE,1
CVOE_C,63,1,2,12,I 66,,,TRUE,CV,p,589,cv,I,6,v,v,TRUE,1
CVOE_C,63,1,2,13,S 30,,,FALSE,CV,q,442,cv,S,0,c,c,TRUE,1
CVOE_C,63,1,2,14,D 20,,,FALSE,CV,q,475,cv,D,0,c,c,TRUE,1
CVOE_C,63,1,2,15,I 31,,,FALSE,CV,p,555,cv,I,1,v,v,TRUE,1
CVOE_C,63,1,2,16,P 16,,,FALSE,CV,q,1836,cv,P,6,c,c,TRUE,1
CVOE_C,63,1,2,17,A 49,,,FALSE,CV,p,516,cv,A,9,v,v,TRUE,1
CVOE_C,63,1,2,18,O 64,,,TRUE,CV,p,477,cv,O,4,v,v,TRUE,1
CVOE_C,63,1,2,19,D 02,,,FALSE,CV,q,517,cv,D,2,c,c,TRUE,1
CVOE_C,63,1,2,20,P 81,,,TRUE,CV,q,486,cv,P,1,c,c,TRUE,1
CVOE_C,63,1,2,21,J 58,,,FALSE,CV,q,510,cv,J,8,c,c,TRUE,1
CVOE_C,63,1,2,22,A 22,,,TRUE,CV,p,516,cv,A,2,v,v,TRUE,1
CVOE_C,63,1,2,23,J 72,,,FALSE,CV,q,428,cv,J,2,c,c,TRUE,1
CVOE_C,63,1,2,24,P 91,,,TRUE,CV,q,482,cv,P,1,c,c,TRUE,1
CVOE_C,63,1,2,25,E 19,,,FALSE,CV,p,474,cv,E,9,v,v,TRUE,1
CVOE_C,63,1,2,26,I 30,,,TRUE,CV,p,483,cv,I,0,v,v,TRUE,1
CVOE_C,63,1,2,27,D 91,,,TRUE,CV,q,427,cv,D,1,c,c,TRUE,1
CVOE_C,63,1,2,28,O 48,,,TRUE,CV,p,481,cv,O,8,v,v,TRUE,1
CVOE_C,63,1,2,29,A 89,,,FALSE,CV,p,841,cv,A,9,v,v,TRUE,1
CVOE_C,63,1,2,30,U 11,,,FALSE,CV,p,626,cv,U,1,v,v,TRUE,1
CVOE_C,63,1,2,31,I 76,,,TRUE,CV,p,487,cv,I,6,v,v,TRUE,1
CVOE_C,63,1,2,32,U 89,,,FALSE,CV,p,482,cv,U,9,v,v,TRUE,1
CVOE_C,63,1,2,33,D 63,,,TRUE,CV,q,523,cv,D,3,c,c,TRUE,1
CVOE_C,63,1,2,34,H 70,,,FALSE,CV,q,571,cv,H,0,c,c,TRUE,1
CVOE_C,63,1,2,35,D 48,,,FALSE,CV,q,542,cv,D,8,c,c,TRUE,1
CVOE_C,63,1,2,36,P 56,,,FALSE,CV,q,500,cv,P,6,c,c,TRUE,1
CVOE_C,63,1,2,37,O 77,,,FALSE,CV,p,471,cv,O,7,v,v,TRUE,1
CVOE_C,63,1,2,38,P 42,,,FALSE,CV,q,605,cv,P,2,c,c,TRUE,1
CVOE_C,63,1,2,39,H 22,,,FALSE,CV,q,573,cv,H,2,c,c,TRUE,1
CVOE_C,63,1,2,40,E 42,,,TRUE,CV,p,560,cv,E,2,v,v,TRUE,1
CVOE_C,63,1,2,41,J 28,,,FALSE,CV,q,873,cv,J,8,c,c,TRUE,1
CVOE_C,63,1,2,42,E 95,,,FALSE,CV,p,503,cv,E,5,v,v,TRUE,1
CVOE_C,63,1,2,43,S 63,,,TRUE,CV,q,580,cv,S,3,c,c,TRUE,1
CVOE_C,63,1,2,44,H 50,,,FALSE,CV,q,506,cv,H,0,c,c,TRUE,1
CVOE_C,63,1,2,45,S 33,,,TRUE,CV,q,424,cv,S,3,c,c,TRUE,1
CVOE_C,63,1,2,46,P 57,,,TRUE,CV,q,637,cv,P,7,c,c,TRUE,1
CVOE_C,63,1,2,47,E 23,,,FALSE,CV,p,422,cv,E,3,v,v,TRUE,1
CVOE_C,63,1,2,48,S 61,,,TRUE,CV,q,436,cv,S,1,c,c,TRUE,1
CVOE_C,63,1,2,49,U 67,,,FALSE,CV,p,500,cv,U,7,v,v,TRUE,1
CVOE_C,63,1,2,50,H 32,,,FALSE,CV,q,399,cv,H,2,c,c,TRUE,1
CVOE_C,63,1,2,51,U 50,,,TRUE,CV,p,463,cv,U,0,v,v,TRUE,1
CVOE_C,63,1,2,52,O 49,,,FALSE,CV,p,477,cv,O,9,v,v,TRUE,1
CVOE_C,63,1,2,53,U 32,,,TRUE,CV,p,461,cv,U,2,v,v,TRUE,1
CVOE_C,63,1,2,54,J 78,,,FALSE,CV,q,483,cv,J,8,c,c,TRUE,1
CVOE_C,63,1,2,55,S 54,,,FALSE,CV,q,468,cv,S,4,c,c,TRUE,1
CVOE_C,63,1,2,56,J 27,,,TRUE,CV,q,329,cv,J,7,c,c,TRUE,1
CVOE_C,63,1,2,57,S 06,,,FALSE,CV,q,372,cv,S,6,c,c,TRUE,1
CVOE_C,63,1,2,58,D 67,,,TRUE,CV,q,439,cv,D,7,c,c,TRUE,1
CVOE_C,63,1,2,59,A 79,,,FALSE,CV,p,328,cv,A,9,v,v,TRUE,1
CVOE_C,63,1,2,60,S 52,,,FALSE,CV,q,451,cv,S,2,c,c,TRUE,1
CVOE_C,63,1,2,61,U 16,,,TRUE,CV,p,526,cv,U,6,v,v,TRUE,1
CVOE_C,63,1,2,62,O 82,,,TRUE,CV,p,422,cv,O,2,v,v,TRUE,1
CVOE_C,63,1,2,63,H 87,,,TRUE,CV,q,468,cv,H,7,c,c,TRUE,1
CVOE_C,63,1,2,64,I 32,,,TRUE,CV,p,433,cv,I,2,v,v,TRUE,1
CVOE_C,63,1,2,65,U 37,,,FALSE,CV,p,423,cv,U,7,v,v,TRUE,1
CVOE_C,63,1,2,66,I 42,,,TRUE,CV,p,421,cv,I,2,v,v,TRUE,1
CVOE_C,63,1,2,67,D 65,,,TRUE,CV,q,451,cv,D,5,c,c,TRUE,1
CVOE_C,63,1,2,68,U 77,,,FALSE,CV,p,478,cv,U,7,v,v,TRUE,1
CVOE_C,63,1,2,69,E 12,,,TRUE,CV,p,438,cv,E,2,v,v,TRUE,1
CVOE_C,63,1,2,70,I 60,,,TRUE,CV,p,398,cv,I,0,v,v,TRUE,1
CVOE_C,63,1,2,71,J 36,,,FALSE,CV,q,351,cv,J,6,c,c,TRUE,1
CVOE_C,63,1,2,72,H 75,,,TRUE,CV,q,460,cv,H,5,c,c,TRUE,1
CVOE_C,63,1,2,73,I 50,,,TRUE,CV,p,466,cv,I,0,v,v,TRUE,1
CVOE_C,63,1,2,74,E 99,,,FALSE,CV,p,416,cv,E,9,v,v,TRUE,1
CVOE_C,63,1,2,75,A 86,,,TRUE,CV,p,499,cv,A,6,v,v,TRUE,1
CVOE_C,63,1,2,76,U 48,,,TRUE,CV,p,382,cv,U,8,v,v,TRUE,1
CVOE_C,63,1,2,77,E 01,,,FALSE,CV,p,347,cv,E,1,v,v,TRUE,1
CVOE_C,63,1,2,78,A 78,,,TRUE,CV,p,361,cv,A,8,v,v,TRUE,1
CVOE_C,63,1,2,79,P 60,,,FALSE,CV,q,449,cv,P,0,c,c,TRUE,1
CVOE_C,63,1,2,80,E 43,,,FALSE,CV,p,429,cv,E,3,v,v,TRUE,1
CVOE_C,63,1,2,81,D 69,,,TRUE,CV,q,346,cv,D,9,c,c,TRUE,1
CVOE_C,63,1,2,82,H 11,,,TRUE,CV,q,480,cv,H,1,c,c,TRUE,1
CVOE_C,63,1,2,83,P 43,,,TRUE,CV,q,400,cv,P,3,c,c,TRUE,1
CVOE_C,63,1,2,84,O 67,,,FALSE,CV,p,641,cv,O,7,v,v,TRUE,1
CVOE_C,63,1,2,85,S 91,,,FALSE,CV,q,1153,cv,S,1,c,c,TRUE,1
CVOE_C,63,1,2,86,J 68,,,TRUE,CV,q,415,cv,J,8,c,c,TRUE,1
CVOE_C,63,1,2,87,S 47,,,FALSE,CV,q,346,cv,S,7,c,c,TRUE,1
CVOE_C,63,1,2,88,I 81,,,TRUE,CV,p,448,cv,I,1,v,v,TRUE,1
CVOE_C,63,1,2,89,J 39,,,FALSE,CV,q,539,cv,J,9,c,c,TRUE,1
CVOE_C,63,1,2,90,A 11,,,TRUE,CV,p,390,cv,A,1,v,v,TRUE,1
CVOE_C,63,1,2,91,O 76,,,FALSE,CV,p,348,cv,O,6,v,v,TRUE,1
CVOE_C,63,1,2,92,A 62,,,FALSE,CV,p,377,cv,A,2,v,v,TRUE,1
CVOE_C,63,1,2,93,O 27,,,TRUE,CV,p,300,cv,O,7,v,v,TRUE,1
CVOE_C,63,1,2,94,E 66,,,FALSE,CV,p,362,cv,E,6,v,v,TRUE,1
CVOE_C,63,1,2,95,J 62,,,TRUE,CV,q,466,cv,J,2,c,c,TRUE,1
CVOE_C,63,1,2,96,H 72,,,TRUE,CV,p,488,cv,H,2,c,v,FALSE,0
CVOE_C,63,1,2,97,E 49,,,TRUE,CV,p,619,cv,E,9,v,v,TRUE,1
CVOE_C,63,1,2,98,D 52,,,TRUE,CV,q,534,cv,D,2,c,c,TRUE,1
CVOE_C,63,1,2,99,H 62,,,TRUE,CV,q,873,cv,H,2,c,c,TRUE,1
CVOE_C,63,1,2,100,I 11,,,TRUE,CV,p,1071,cv,I,1,v,v,TRUE,1
CVOE_C,63,1,2,101,A 98,,,FALSE,CV,p,341,cv,A,8,v,v,TRUE,1
CVOE_C,63,1,2,102,H 29,,,FALSE,CV,q,595,cv,H,9,c,c,TRUE,1
CVOE_C,63,1,2,103,E 83,,,TRUE,CV,p,859,cv,E,3,v,v,TRUE,1
CVOE_C,63,1,2,104,D 43,,,FALSE,CV,q,422,cv,D,3,c,c,TRUE,1
CVOE_C,63,1,2,105,P 45,,,TRUE,CV,q,412,cv,P,5,c,c,TRUE,1
CVOE_C,63,1,2,106,J 17,,,TRUE,CV,q,727,cv,J,7,c,c,TRUE,1
CVOE_D,48,1,1,11,A 71,,,FALSE,CV,q,868,cv,A,1,v,c,FALSE,0
CVOE_D,48,1,1,12,I 66,,,TRUE,CV,q,482,cv,I,6,v,c,FALSE,0
CVOE_D,48,1,1,13,S 30,,,FALSE,CV,p,506,cv,S,0,c,v,FALSE,0
CVOE_D,48,1,1,14,D 20,,,FALSE,CV,p,704,cv,D,0,c,v,FALSE,0
CVOE_D,48,1,1,15,I 31,,,FALSE,CV,q,502,cv,I,1,v,c,FALSE,0
CVOE_D,48,1,1,16,P 16,,,FALSE,CV,p,451,cv,P,6,c,v,FALSE,0
CVOE_D,48,1,1,17,A 49,,,FALSE,CV,q,430,cv,A,9,v,c,FALSE,0
CVOE_D,48,1,1,18,O 64,,,TRUE,CV,q,612,cv,O,4,v,c,FALSE,0
CVOE_D,48,1,1,19,D 02,,,FALSE,CV,p,471,cv,D,2,c,v,FALSE,0
CVOE_D,48,1,1,20,P 81,,,TRUE,CV,p,517,cv,P,1,c,v,FALSE,0
CVOE_D,48,1,1,21,J 58,,,FALSE,CV,p,501,cv,J,8,c,v,FALSE,0
CVOE_D,48,1,1,22,A 22,,,TRUE,CV,q,395,cv,A,2,v,c,FALSE,0
CVOE_D,48,1,1,23,J 72,,,FALSE,CV,p,459,cv,J,2,c,v,FALSE,0
CVOE_D,48,1,1,24,P 91,,,TRUE,CV,p,430,cv,P,1,c,v,FALSE,0
CVOE_D,48,1,1,25,E 19,,,FALSE,CV,q,476,cv,E,9,v,c,FALSE,0
CVOE_D,48,1,1,26,I 30,,,TRUE,CV,p,469,cv,I,0,v,v,TRUE,1
CVOE_D,48,1,1,27,D 91,,,TRUE,CV,q,522,cv,D,1,c,c,TRUE,1
CVOE_D,48,1,1,28,O 48,,,TRUE,CV,q,635,cv,O,8,v,c,FALSE,0
CVOE_D,48,1,1,29,A 89,,,FALSE,CV,q,539,cv,A,9,v,c,FALSE,0
CVOE_D,48,1,1,30,U 11,,,FALSE,CV,p,542,cv,U,1,v,v,TRUE,1
CVOE_D,48,1,1,31,I 76,,,TRUE,CV,q,660,cv,I,6,v,c,FALSE,0
CVOE_D,48,1,1,32,U 89,,,FALSE,CV,q,767,cv,U,9,v,c,FALSE,0
CVOE_D,48,1,1,33,D 63,,,TRUE,CV,p,511,cv,D,3,c,v,FALSE,0
CVOE_D,48,1,1,34,H 70,,,FALSE,CV,p,493,cv,H,0,c,v,FALSE,0
CVOE_D,48,1,1,35,D 48,,,FALSE,CV,p,448,cv,D,8,c,v,FALSE,0
CVOE_D,48,1,1,36,P 56,,,FALSE,CV,p,387,cv,P,6,c,v,FALSE,0
CVOE_D,48,1,1,37,O 77,,,FALSE,CV,q,489,cv,O,7,v,c,FALSE,0
CVOE_D,48,1,1,38,P 42,,,FALSE,CV,p,548,cv,P,2,c,v,FALSE,0
CVOE_D,48,1,1,39,H 22,,,FALSE,CV,p,442,cv,H,2,c,v,FALSE,0
CVOE_D,48,1,1,40,E 42,,,TRUE,CV,q,458,cv,E,2,v,c,FALSE,0
CVOE_D,48,1,1,41,J 28,,,FALSE,CV,p,453,cv,J,8,c,v,FALSE,0
CVOE_D,48,1,1,42,E 95,,,FALSE,CV,q,520,cv,E,5,v,c,FALSE,0
CVOE_D,48,1,1,43,S 63,,,TRUE,CV,p,465,cv,S,3,c,v,FALSE,0
CVOE_D,48,1,1,44,H 50,,,FALSE,CV,p,518,cv,H,0,c,v,FALSE,0
CVOE_D,48,1,1,45,S 33,,,TRUE,CV,p,511,cv,S,3,c,v,FALSE,0
CVOE_D,48,1,1,46,P 57,,,TRUE,CV,p,428,cv,P,7,c,v,FALSE,0
CVOE_D,48,1,1,47,E 23,,,FALSE,CV,q,610,cv,E,3,v,c,FALSE,0
CVOE_D,48,1,1,48,S 61,,,TRUE,CV,p,3157,cv,S,1,c,v,FALSE,0
CVOE_D,48,1,1,49,U 67,,,FALSE,CV,q,479,cv,U,7,v,c,FALSE,0
CVOE_D,48,1,1,50,H 32,,,FALSE,CV,p,495,cv,H,2,c,v,FALSE,0
CVOE_D,48,1,1,51,U 50,,,TRUE,CV,q,514,cv,U,0,v,c,FALSE,0
CVOE_D,48,1,1,52,O 49,,,FALSE,CV,q,514,cv,O,9,v,c,FALSE,0
CVOE_D,48,1,1,53,U 32,,,TRUE,CV,q,491,cv,U,2,v,c,FALSE,0
CVOE_D,48,1,1,54,J 78,,,FALSE,CV,p,502,cv,J,8,c,v,FALSE,0
CVOE_D,48,1,1,55,S 54,,,FALSE,CV,p,572,cv,S,4,c,v,FALSE,0
CVOE_D,48,1,1,56,J 27,,,TRUE,CV,p,423,cv,J,7,c,v,FALSE,0
CVOE_D,48,1,1,57,S 06,,,FALSE,CV,p,420,cv,S,6,c,v,FALSE,0
CVOE_D,48,1,1,58,D 67,,,TRUE,CV,p,471,cv,D,7,c,v,FALSE,0
CVOE_D,48,1,1,59,A 79,,,FALSE,CV,p,517,cv,A,9,v,v,TRUE,1
CVOE_D,48,1,1,60,S 52,,,FALSE,CV,p,878,cv,S,2,c,v,FALSE,0
CVOE_D,48,1,1,61,U 16,,,TRUE,CV,q,574,cv,U,6,v,c,FALSE,0
CVOE_D,48,1,1,62,O 82,,,TRUE,CV,q,449,cv,O,2,v,c,FALSE,0
CVOE_D,48,1,1,63,H 87,,,TRUE,CV,p,468,cv,H,7,c,v,FALSE,0
CVOE_D,48,1,1,64,I 32,,,TRUE,CV,q,482,cv,I,2,v,c,FALSE,0
CVOE_D,48,1,1,65,U 37,,,FALSE,CV,q,546,cv,U,7,v,c,FALSE,0
CVOE_D,48,1,1,66,I 42,,,TRUE,CV,q,488,cv,I,2,v,c,FALSE,0
CVOE_D,48,1,1,67,D 65,,,TRUE,CV,p,507,cv,D,5,c,v,FALSE,0
CVOE_D,48,1,1,68,U 77,,,FALSE,CV,q,449,cv,U,7,v,c,FALSE,0
CVOE_D,48,1,1,69,E 12,,,TRUE,CV,q,500,cv,E,2,v,c,FALSE,0
CVOE_D,48,1,1,70,I 60,,,TRUE,CV,q,455,cv,I,0,v,c,FALSE,0
CVOE_D,48,1,1,71,J 36,,,FALSE,CV,p,626,cv,J,6,c,v,FALSE,0
CVOE_D,48,1,1,72,H 75,,,TRUE,CV,p,520,cv,H,5,c,v,FALSE,0
CVOE_D,48,1,1,73,I 50,,,TRUE,CV,q,512,cv,I,0,v,c,FALSE,0
CVOE_D,48,1,1,74,E 99,,,FALSE,CV,q,526,cv,E,9,v,c,FALSE,0
CVOE_D,48,1,1,75,A 86,,,TRUE,CV,q,598,cv,A,6,v,c,FALSE,0
CVOE_D,48,1,1,76,U 48,,,TRUE,CV,p,511,cv,U,8,v,v,TRUE,1
CVOE_D,48,1,1,77,E 01,,,FALSE,CV,q,500,cv,E,1,v,c,FALSE,0
CVOE_D,48,1,1,78,A 78,,,TRUE,CV,q,567,cv,A,8,v,c,FALSE,0
