"X","ExperimentName","Subject","Group","Block","Trial","STIM","TASK","Switch","Congruent","CVOE","Response","RT","block_type","letter","number","key2","response2","match2","score2","zRT"
1,"CVOE updated",1001,1,1,11,"A 71","","",FALSE,"CV","p",4811,"cv","A",1,"v","v",TRUE,1,1.38257941633534
2,"CVOE updated",1001,1,1,12,"I 66","","",TRUE,"CV","p",1960,"cv","I",6,"v","v",TRUE,1,0.0420638769042637
3,"CVOE updated",1001,1,1,13,"S 30","","",FALSE,"CV","q",918,"cv","S",0,"c","c",TRUE,1,-0.447875510008113
4,"CVOE updated",1001,1,1,14,"D 20","","",FALSE,"CV","q",790,"cv","D",0,"c","c",TRUE,1,-0.508060002834202
5,"CVOE updated",1001,1,1,15,"I 31","","",FALSE,"CV","p",874,"cv","I",1,"v","v",TRUE,1,-0.468563929417081
6,"CVOE updated",1001,1,1,16,"P 16","","",FALSE,"CV","q",700,"cv","P",6,"c","c",TRUE,1,-0.550377224352545
7,"CVOE updated",1001,1,1,17,"A 49","","",FALSE,"CV","p",1100,"cv","A",9,"v","v",TRUE,1,-0.362300684271019
8,"CVOE updated",1001,1,1,18,"O 64","","",TRUE,"CV","p",1100,"cv","O",4,"v","v",TRUE,1,-0.362300684271019
9,"CVOE updated",1001,1,1,19,"D 02","","",FALSE,"CV","q",892,"cv","D",2,"c","c",TRUE,1,-0.460100485113412
10,"CVOE updated",1001,1,1,20,"P 81","","",TRUE,"CV","q",1116,"cv","P",1,"c","c",TRUE,1,-0.354777622667757
11,"CVOE updated",1001,1,1,21,"J 58","","",FALSE,"CV","q",828,"cv","J",8,"c","c",TRUE,1,-0.490192731526457
12,"CVOE updated",1001,1,1,22,"A 22","","",TRUE,"CV","p",679,"cv","A",2,"v","v",TRUE,1,-0.560251242706825
13,"CVOE updated",1001,1,1,23,"J 72","","",FALSE,"CV","q",999,"cv","J",2,"c","c",TRUE,1,-0.409790010641604
14,"CVOE updated",1001,1,1,24,"P 91","","",TRUE,"CV","q",1027,"cv","P",1,"c","c",TRUE,1,-0.396624652835897
15,"CVOE updated",1001,1,1,25,"E 19","","",FALSE,"CV","p",622,"cv","E",9,"v","v",TRUE,1,-0.587052149668443
16,"CVOE updated",1001,1,1,26,"I 30","","",TRUE,"CV","p",618,"cv","I",0,"v","v",TRUE,1,-0.588932915069258
17,"CVOE updated",1001,1,1,27,"D 91","","",TRUE,"CV","q",717,"cv","D",1,"c","c",TRUE,1,-0.54238397139908
18,"CVOE updated",1001,1,1,28,"O 48","","",TRUE,"CV","p",636,"cv","O",8,"v","v",TRUE,1,-0.580469470765589
19,"CVOE updated",1001,1,1,29,"A 89","","",FALSE,"CV","p",1127,"cv","A",9,"v","v",TRUE,1,-0.349605517815515
20,"CVOE updated",1001,1,1,30,"U 11","","",FALSE,"CV","p",886,"cv","U",1,"v","v",TRUE,1,-0.462921633214635
21,"CVOE updated",1001,1,1,31,"I 76","","",TRUE,"CV","p",726,"cv","I",6,"v","v",TRUE,1,-0.538152249247246
22,"CVOE updated",1001,1,1,32,"U 89","","",FALSE,"CV","p",669,"cv","U",9,"v","v",TRUE,1,-0.564953156208863
23,"CVOE updated",1001,1,1,33,"D 63","","",TRUE,"CV","q",758,"cv","D",3,"c","c",TRUE,1,-0.523106126040724
24,"CVOE updated",1001,1,1,34,"H 70","","",FALSE,"CV","q",1052,"cv","H",0,"c","c",TRUE,1,-0.384869869080802
25,"CVOE updated",1001,1,1,35,"D 48","","",FALSE,"CV","q",591,"cv","D",8,"c","c",TRUE,1,-0.601628081524761
26,"CVOE updated",1001,1,1,36,"P 56","","",FALSE,"CV","q",635,"cv","P",6,"c","c",TRUE,1,-0.580939662115793
27,"CVOE updated",1001,1,1,37,"O 77","","",FALSE,"CV","p",645,"cv","O",7,"v","v",TRUE,1,-0.576237748613755
28,"CVOE updated",1001,1,1,38,"P 42","","",FALSE,"CV","q",776,"cv","P",2,"c","c",TRUE,1,-0.514642681737055
29,"CVOE updated",1001,1,1,39,"H 22","","",FALSE,"CV","q",668,"cv","H",2,"c","c",TRUE,1,-0.565423347559067
30,"CVOE updated",1001,1,1,40,"E 42","","",TRUE,"CV","p",574,"cv","E",2,"v","v",TRUE,1,-0.609621334478226
31,"CVOE updated",1001,1,1,41,"J 28","","",FALSE,"CV","q",690,"cv","J",8,"c","c",TRUE,1,-0.555079137854583
32,"CVOE updated",1001,1,1,42,"E 95","","",FALSE,"CV","p",787,"cv","E",5,"v","v",TRUE,1,-0.509470576884813
33,"CVOE updated",1001,1,1,43,"S 63","","",TRUE,"CV","q",1031,"cv","S",3,"c","c",TRUE,1,-0.394743887435082
34,"CVOE updated",1001,1,1,44,"H 50","","",FALSE,"CV","q",602,"cv","H",0,"c","c",TRUE,1,-0.596455976672519
35,"CVOE updated",1001,1,1,45,"S 33","","",TRUE,"CV","q",646,"cv","S",3,"c","c",TRUE,1,-0.575767557263551
36,"CVOE updated",1001,1,1,46,"P 57","","",TRUE,"CV","q",632,"cv","P",7,"c","c",TRUE,1,-0.582350236166405
37,"CVOE updated",1001,1,1,47,"E 23","","",FALSE,"CV","p",699,"cv","E",3,"v","v",TRUE,1,-0.550847415702749
38,"CVOE updated",1001,1,1,48,"S 61","","",TRUE,"CV","q",763,"cv","S",1,"c","c",TRUE,1,-0.520755169289705
39,"CVOE updated",1001,1,1,49,"U 67","","",FALSE,"CV","p",560,"cv","U",7,"v","v",TRUE,1,-0.616204013381079
40,"CVOE updated",1001,1,1,50,"H 32","","",FALSE,"CV","q",685,"cv","H",2,"c","c",TRUE,1,-0.557430094605602
41,"CVOE updated",1001,1,1,51,"U 50","","",TRUE,"CV","p",502,"cv","U",0,"v","v",TRUE,1,-0.643475111692901
42,"CVOE updated",1001,1,1,52,"O 49","","",FALSE,"CV","p",630,"cv","O",9,"v","v",TRUE,1,-0.583290618866812
43,"CVOE updated",1001,1,1,53,"U 32","","",TRUE,"CV","p",609,"cv","U",2,"v","v",TRUE,1,-0.593164637221092
44,"CVOE updated",1001,1,1,54,"J 78","","",FALSE,"CV","q",716,"cv","J",8,"c","c",TRUE,1,-0.542854162749284
45,"CVOE updated",1001,1,1,55,"S 54","","",FALSE,"CV","q",635,"cv","S",4,"c","c",TRUE,1,-0.580939662115793
46,"CVOE updated",1001,1,1,56,"J 27","","",TRUE,"CV","q",566,"cv","J",7,"c","c",TRUE,1,-0.613382865279857
47,"CVOE updated",1001,1,1,57,"S 06","","",FALSE,"CV","q",635,"cv","S",6,"c","c",TRUE,1,-0.580939662115793
48,"CVOE updated",1001,1,1,58,"D 67","","",TRUE,"CV","q",766,"cv","D",7,"c","c",TRUE,1,-0.519344595239093
49,"CVOE updated",1001,1,1,59,"A 79","","",FALSE,"CV","p",771,"cv","A",9,"v","v",TRUE,1,-0.516993638488074
50,"CVOE updated",1001,1,1,60,"S 52","","",FALSE,"CV","q",768,"cv","S",2,"c","c",TRUE,1,-0.518404212538686
51,"CVOE updated",1001,1,1,61,"U 16","","",TRUE,"CV","p",702,"cv","U",6,"v","v",TRUE,1,-0.549436841652137
52,"CVOE updated",1001,1,1,62,"O 82","","",TRUE,"CV","p",590,"cv","O",2,"v","v",TRUE,1,-0.602098272874965
53,"CVOE updated",1001,1,1,63,"H 87","","",TRUE,"CV","q",722,"cv","H",7,"c","c",TRUE,1,-0.540033014648061
54,"CVOE updated",1001,1,1,64,"I 32","","",TRUE,"CV","p",1330,"cv","I",2,"v","v",TRUE,1,-0.254156673724141
55,"CVOE updated",1001,1,1,65,"U 37","","",FALSE,"CV","p",833,"cv","U",7,"v","v",TRUE,1,-0.487841774775437
56,"CVOE updated",1001,1,1,66,"I 42","","",TRUE,"CV","p",620,"cv","I",2,"v","v",TRUE,1,-0.58799253236885
57,"CVOE updated",1001,1,1,67,"D 65","","",TRUE,"CV","q",679,"cv","D",5,"c","c",TRUE,1,-0.560251242706825
58,"CVOE updated",1001,1,1,68,"U 77","","",FALSE,"CV","p",743,"cv","U",7,"v","v",TRUE,1,-0.530158996293781
59,"CVOE updated",1001,1,1,69,"E 12","","",TRUE,"CV","p",1326,"cv","E",2,"v","v",TRUE,1,-0.256037439124956
60,"CVOE updated",1001,1,1,70,"I 60","","",TRUE,"CV","p",565,"cv","I",0,"v","v",TRUE,1,-0.61385305663006
61,"CVOE updated",1001,1,1,71,"J 36","","",FALSE,"CV","q",698,"cv","J",6,"c","c",TRUE,1,-0.551317607052953
62,"CVOE updated",1001,1,1,72,"H 75","","",TRUE,"CV","q",778,"cv","H",5,"c","c",TRUE,1,-0.513702299036647
63,"CVOE updated",1001,1,1,73,"I 50","","",TRUE,"CV","p",742,"cv","I",0,"v","v",TRUE,1,-0.530629187643985
64,"CVOE updated",1001,1,1,74,"E 99","","",FALSE,"CV","p",725,"cv","E",9,"v","v",TRUE,1,-0.53862244059745
65,"CVOE updated",1001,1,1,75,"A 86","","",TRUE,"CV","p",1019,"cv","A",6,"v","v",TRUE,1,-0.400386183637528
66,"CVOE updated",1001,1,1,76,"U 48","","",TRUE,"CV","p",631,"cv","U",8,"v","v",TRUE,1,-0.582820427516608
67,"CVOE updated",1001,1,1,77,"E 01","","",FALSE,"CV","p",649,"cv","E",1,"v","v",TRUE,1,-0.57435698321294
68,"CVOE updated",1001,1,1,78,"A 78","","",TRUE,"CV","p",699,"cv","A",8,"v","v",TRUE,1,-0.550847415702749
69,"CVOE updated",1001,1,1,79,"P 60","","",FALSE,"CV","q",803,"cv","P",0,"c","c",TRUE,1,-0.501947515281552
70,"CVOE updated",1001,1,1,80,"E 43","","",FALSE,"CV","p",975,"cv","E",3,"v","v",TRUE,1,-0.421074603046496
71,"CVOE updated",1001,1,1,81,"D 69","","",TRUE,"CV","q",924,"cv","D",9,"c","c",TRUE,1,-0.44505436190689
72,"CVOE updated",1001,1,1,82,"H 11","","",TRUE,"CV","q",612,"cv","H",1,"c","c",TRUE,1,-0.591754063170481
73,"CVOE updated",1001,1,1,83,"P 43","","",TRUE,"CV","q",543,"cv","P",3,"c","c",TRUE,1,-0.624197266334544
74,"CVOE updated",1001,1,1,84,"O 67","","",FALSE,"CV","p",613,"cv","O",7,"v","v",TRUE,1,-0.591283871820277
75,"CVOE updated",1001,1,1,85,"S 91","","",FALSE,"CV","q",728,"cv","S",1,"c","c",TRUE,1,-0.537211866546838
76,"CVOE updated",1001,1,1,86,"J 68","","",TRUE,"CV","q",671,"cv","J",8,"c","c",TRUE,1,-0.564012773508456
77,"CVOE updated",1001,1,1,87,"S 47","","",FALSE,"CV","q",624,"cv","S",7,"c","c",TRUE,1,-0.586111766968035
78,"CVOE updated",1001,1,1,88,"I 81","","",TRUE,"CV","p",659,"cv","I",1,"v","v",TRUE,1,-0.569655069710902
79,"CVOE updated",1001,1,1,89,"J 39","","",FALSE,"CV","q",805,"cv","J",9,"c","c",TRUE,1,-0.501007132581144
80,"CVOE updated",1001,1,1,90,"A 11","","",TRUE,"CV","p",793,"cv","A",1,"v","v",TRUE,1,-0.50664942878359
81,"CVOE updated",1001,1,1,91,"O 76","","",FALSE,"CV","p",541,"cv","O",6,"v","v",TRUE,1,-0.625137649034952
82,"CVOE updated",1001,1,1,92,"A 62","","",FALSE,"CV","p",547,"cv","A",2,"v","v",TRUE,1,-0.622316500933729
83,"CVOE updated",1001,1,1,93,"O 27","","",TRUE,"CV","p",545,"cv","O",7,"v","v",TRUE,1,-0.623256883634137
84,"CVOE updated",1001,1,1,94,"E 66","","",FALSE,"CV","p",607,"cv","E",6,"v","v",TRUE,1,-0.5941050199215
85,"CVOE updated",1001,1,1,95,"J 62","","",TRUE,"CV","q",531,"cv","J",2,"c","c",TRUE,1,-0.62983956253699
86,"CVOE updated",1001,1,1,96,"H 72","","",TRUE,"CV","q",546,"cv","H",2,"c","c",TRUE,1,-0.622786692283933
87,"CVOE updated",1001,1,1,97,"E 49","","",TRUE,"CV","p",680,"cv","E",9,"v","v",TRUE,1,-0.559781051356621
88,"CVOE updated",1001,1,1,98,"D 52","","",TRUE,"CV","q",800,"cv","D",2,"c","c",TRUE,1,-0.503358089332163
89,"CVOE updated",1001,1,1,99,"H 62","","",TRUE,"CV","q",516,"cv","H",2,"c","c",TRUE,1,-0.636892432790047
90,"CVOE updated",1001,1,1,100,"I 11","","",TRUE,"CV","p",660,"cv","I",1,"v","v",TRUE,1,-0.569184878360698
91,"CVOE updated",1001,1,1,101,"A 98","","",FALSE,"CV","p",1221,"cv","A",8,"v","v",TRUE,1,-0.305407530896357
92,"CVOE updated",1001,1,1,102,"H 29","","",FALSE,"CV","q",776,"cv","H",9,"c","c",TRUE,1,-0.514642681737055
93,"CVOE updated",1001,1,1,103,"E 83","","",TRUE,"CV","p",773,"cv","E",3,"v","v",TRUE,1,-0.516053255787666
94,"CVOE updated",1001,1,1,104,"D 43","","",FALSE,"CV","q",627,"cv","D",3,"c","c",TRUE,1,-0.584701192917424
95,"CVOE updated",1001,1,1,105,"P 45","","",TRUE,"CV","q",1253,"cv","P",5,"c","c",TRUE,1,-0.290361407689835
96,"CVOE updated",1001,1,1,106,"J 17","","",TRUE,"CV","q",1015,"cv","J",7,"c","c",TRUE,1,-0.402266949038343
532,"CVOE_C",2003,1,2,14,"D 20","","",FALSE,"CV","q",6059,"cv","D",0,"c","c",TRUE,1,1.96937822138971
533,"CVOE_C",2003,1,2,15,"I 31","","",FALSE,"CV","p",7456,"cv","I",1,"v","v",TRUE,1,2.62623553762444
534,"CVOE_C",2003,1,2,16,"P 16","","",FALSE,"CV","q",3365,"cv","P",6,"c","c",TRUE,1,0.702682723940626
535,"CVOE_C",2003,1,2,17,"A 49","","",FALSE,"CV","p",4379,"cv","A",9,"v","v",TRUE,1,1.1794567530473
537,"CVOE_C",2003,1,2,19,"D 02","","",FALSE,"CV","q",4660,"cv","D",2,"c","c",TRUE,1,1.31158052245457
538,"CVOE_C",2003,1,2,20,"P 81","","",TRUE,"CV","q",7495,"cv","P",1,"c","c",TRUE,1,2.64457300028239
539,"CVOE_C",2003,1,2,21,"J 58","","",FALSE,"CV","q",1930,"cv","J",8,"c","c",TRUE,1,0.0279581363981492
540,"CVOE_C",2003,1,2,22,"A 22","","",TRUE,"CV","p",1737,"cv","A",2,"v","v",TRUE,1,-0.0627887941911874
541,"CVOE_C",2003,1,2,23,"J 72","","",FALSE,"CV","q",1793,"cv","J",2,"c","c",TRUE,1,-0.0364580785797736
542,"CVOE_C",2003,1,2,24,"P 91","","",TRUE,"CV","q",1853,"cv","P",1,"c","c",TRUE,1,-0.00824659756754463
543,"CVOE_C",2003,1,2,25,"E 19","","",FALSE,"CV","p",4512,"cv","E",9,"v","v",TRUE,1,1.2419922026244
545,"CVOE_C",2003,1,2,27,"D 91","","",TRUE,"CV","q",1259,"cv","D",1,"c","c",TRUE,1,-0.287540259588612
546,"CVOE_C",2003,1,2,28,"O 48","","",TRUE,"CV","p",3972,"cv","O",8,"v","v",TRUE,1,0.988088873514343
547,"CVOE_C",2003,1,2,29,"A 89","","",FALSE,"CV","p",1315,"cv","A",9,"v","v",TRUE,1,-0.261209543977198
548,"CVOE_C",2003,1,2,30,"U 11","","",FALSE,"CV","p",2275,"cv","U",1,"v","v",TRUE,1,0.190174152218466
549,"CVOE_C",2003,1,2,31,"I 76","","",TRUE,"CV","p",6389,"cv","I",6,"v","v",TRUE,1,2.12454136695697
550,"CVOE_C",2003,1,2,32,"U 89","","",FALSE,"CV","q",2796,"cv","U",9,"v","c",FALSE,0,0.435143845674654
551,"CVOE_C",2003,1,2,33,"D 63","","",TRUE,"CV","q",2449,"cv","D",3,"c","c",TRUE,1,0.27198744715393
552,"CVOE_C",2003,1,2,34,"H 70","","",FALSE,"CV","q",1572,"cv","H",0,"c","c",TRUE,1,-0.140370366974817
553,"CVOE_C",2003,1,2,35,"D 48","","",FALSE,"CV","q",1426,"cv","D",8,"c","c",TRUE,1,-0.209018304104574
554,"CVOE_C",2003,1,2,36,"P 56","","",FALSE,"CV","q",2693,"cv","P",6,"c","c",TRUE,1,0.386714136603661
555,"CVOE_C",2003,1,2,37,"O 77","","",FALSE,"CV","p",2982,"cv","O",7,"v","v",TRUE,1,0.522599436812564
556,"CVOE_C",2003,1,2,38,"P 42","","",FALSE,"CV","q",1972,"cv","P",2,"c","c",TRUE,1,0.0477061731067095
558,"CVOE_C",2003,1,2,40,"E 42","","",TRUE,"CV","p",2898,"cv","E",2,"v","v",TRUE,1,0.483103363395444
559,"CVOE_C",2003,1,2,41,"J 28","","",FALSE,"CV","q",3203,"cv","J",8,"c","c",TRUE,1,0.626511725207608
560,"CVOE_C",2003,1,2,42,"E 95","","",FALSE,"CV","p",4152,"cv","E",5,"v","v",TRUE,1,1.07272331655103
561,"CVOE_C",2003,1,2,43,"S 63","","",TRUE,"CV","q",1904,"cv","S",3,"c","c",TRUE,1,0.01573316129285
562,"CVOE_C",2003,1,2,44,"H 50","","",FALSE,"CV","q",1361,"cv","H",0,"c","c",TRUE,1,-0.239580741867822
563,"CVOE_C",2003,1,2,45,"S 33","","",TRUE,"CV","q",1086,"cv","S",3,"c","c",TRUE,1,-0.368883363173872
564,"CVOE_C",2003,1,2,46,"P 57","","",TRUE,"CV","q",1287,"cv","P",7,"c","c",TRUE,1,-0.274374901782905
565,"CVOE_C",2003,1,2,47,"E 23","","",FALSE,"CV","p",2384,"cv","E",3,"v","v",TRUE,1,0.241425009390682
566,"CVOE_C",2003,1,2,48,"S 61","","",TRUE,"CV","q",2086,"cv","S",1,"c","c",TRUE,1,0.101307987029945
567,"CVOE_C",2003,1,2,49,"U 67","","",FALSE,"CV","p",2423,"cv","U",7,"v","v",TRUE,1,0.259762472048631
568,"CVOE_C",2003,1,2,50,"H 32","","",FALSE,"CV","q",2699,"cv","H",2,"c","c",TRUE,1,0.389535284704884
569,"CVOE_C",2003,1,2,51,"U 50","","",TRUE,"CV","q",1813,"cv","U",0,"v","c",FALSE,0,-0.0270542515756973
570,"CVOE_C",2003,1,2,52,"O 49","","",FALSE,"CV","p",5305,"cv","O",9,"v","v",TRUE,1,1.61485394333603
572,"CVOE_C",2003,1,2,54,"J 78","","",FALSE,"CV","q",1864,"cv","J",8,"c","c",TRUE,1,-0.00307449271530265
573,"CVOE_C",2003,1,2,55,"S 54","","",FALSE,"CV","q",1978,"cv","S",4,"c","c",TRUE,1,0.0505273212079324
574,"CVOE_C",2003,1,2,56,"J 27","","",TRUE,"CV","q",1615,"cv","J",7,"c","c",TRUE,1,-0.120152138916053
575,"CVOE_C",2003,1,2,57,"S 06","","",FALSE,"CV","q",1483,"cv","S",6,"c","c",TRUE,1,-0.182217397142957
576,"CVOE_C",2003,1,2,58,"D 67","","",TRUE,"CV","q",1660,"cv","D",7,"c","c",TRUE,1,-0.0989935281568812
577,"CVOE_C",2003,1,2,59,"A 79","","",FALSE,"CV","p",1798,"cv","A",9,"v","v",TRUE,1,-0.0341071218287545
578,"CVOE_C",2003,1,2,60,"S 52","","",FALSE,"CV","q",1283,"cv","S",2,"c","c",TRUE,1,-0.27625566718372
579,"CVOE_C",2003,1,2,61,"U 16","","",TRUE,"CV","q",1883,"cv","U",6,"v","c",FALSE,0,0.00585914293856987
580,"CVOE_C",2003,1,2,62,"O 82","","",TRUE,"CV","p",2933,"cv","O",2,"v","v",TRUE,1,0.499560060652577
581,"CVOE_C",2003,1,2,63,"H 87","","",TRUE,"CV","q",1741,"cv","H",7,"c","c",TRUE,1,-0.0609080287903721
582,"CVOE_C",2003,1,2,64,"I 32","","",TRUE,"CV","p",7972,"cv","I",2,"v","v",TRUE,1,2.86885427432961
583,"CVOE_C",2003,1,2,65,"U 37","","",FALSE,"CV","q",2141,"cv","U",7,"v","c",FALSE,0,0.127168511291155
584,"CVOE_C",2003,1,2,66,"I 42","","",TRUE,"CV","p",2524,"cv","I",2,"v","v",TRUE,1,0.307251798419216
585,"CVOE_C",2003,1,2,67,"D 65","","",TRUE,"CV","q",3244,"cv","D",5,"c","c",TRUE,1,0.645789570565964
586,"CVOE_C",2003,1,2,68,"U 77","","",FALSE,"CV","p",2288,"cv","U",7,"v","v",TRUE,1,0.196286639771116
588,"CVOE_C",2003,1,2,70,"I 60","","",TRUE,"CV","p",7080,"cv","I",0,"v","v",TRUE,1,2.4494435899478
589,"CVOE_C",2003,1,2,71,"J 36","","",FALSE,"CV","q",2132,"cv","J",6,"c","c",TRUE,1,0.12293678913932
590,"CVOE_C",2003,1,2,72,"H 75","","",TRUE,"CV","q",1979,"cv","H",5,"c","c",TRUE,1,0.0509975125581363
591,"CVOE_C",2003,1,2,73,"I 50","","",TRUE,"CV","p",2232,"cv","I",0,"v","v",TRUE,1,0.169955924159702
592,"CVOE_C",2003,1,2,74,"E 99","","",FALSE,"CV","p",6068,"cv","E",9,"v","v",TRUE,1,1.97360994354154
593,"CVOE_C",2003,1,2,75,"A 86","","",TRUE,"CV","p",2272,"cv","A",6,"v","v",TRUE,1,0.188763578167855
594,"CVOE_C",2003,1,2,76,"U 48","","",TRUE,"CV","p",3234,"cv","U",8,"v","v",TRUE,1,0.641087657063926
595,"CVOE_C",2003,1,2,77,"E 01","","",FALSE,"CV","p",6230,"cv","E",1,"v","v",TRUE,1,2.04978094227456
596,"CVOE_C",2003,1,2,78,"A 78","","",TRUE,"CV","p",2644,"cv","A",8,"v","v",TRUE,1,0.363674760443674
597,"CVOE_C",2003,1,2,79,"P 60","","",FALSE,"CV","q",4191,"cv","P",0,"c","c",TRUE,1,1.09106077920898
598,"CVOE_C",2003,1,2,80,"E 43","","",FALSE,"CV","p",4877,"cv","E",3,"v","v",TRUE,1,1.4136120454488
599,"CVOE_C",2003,1,2,81,"D 69","","",TRUE,"CV","q",3680,"cv","D",9,"c","c",TRUE,1,0.850792999254828
600,"CVOE_C",2003,1,2,82,"H 11","","",TRUE,"CV","q",1386,"cv","H",1,"c","c",TRUE,1,-0.227825958112727
601,"CVOE_C",2003,1,2,83,"P 43","","",TRUE,"CV","q",1351,"cv","P",3,"c","c",TRUE,1,-0.244282655369861
602,"CVOE_C",2003,1,2,84,"O 67","","",FALSE,"CV","p",3565,"cv","O",7,"v","v",TRUE,1,0.796720993981389
603,"CVOE_C",2003,1,2,85,"S 91","","",FALSE,"CV","q",1756,"cv","S",1,"c","c",TRUE,1,-0.0538551585373148
604,"CVOE_C",2003,1,2,86,"J 68","","",TRUE,"CV","q",1259,"cv","J",8,"c","c",TRUE,1,-0.287540259588612
605,"CVOE_C",2003,1,2,87,"S 47","","",FALSE,"CV","q",1452,"cv","S",7,"c","c",TRUE,1,-0.196793328999275
606,"CVOE_C",2003,1,2,88,"I 81","","",TRUE,"CV","p",2511,"cv","I",1,"v","v",TRUE,1,0.301139310866567
607,"CVOE_C",2003,1,2,89,"J 39","","",FALSE,"CV","q",2263,"cv","J",9,"c","c",TRUE,1,0.18453185601602
608,"CVOE_C",2003,1,2,90,"A 11","","",TRUE,"CV","p",3945,"cv","A",1,"v","v",TRUE,1,0.97539370705884
609,"CVOE_C",2003,1,2,91,"O 76","","",FALSE,"CV","p",3041,"cv","O",6,"v","v",TRUE,1,0.550340726474589
610,"CVOE_C",2003,1,2,92,"A 62","","",FALSE,"CV","p",4052,"cv","A",2,"v","v",TRUE,1,1.02570418153065
611,"CVOE_C",2003,1,2,93,"O 27","","",TRUE,"CV","p",5488,"cv","O",7,"v","v",TRUE,1,1.70089896042333
612,"CVOE_C",2003,1,2,94,"E 66","","",FALSE,"CV","p",4084,"cv","E",6,"v","v",TRUE,1,1.04075030473717
613,"CVOE_C",2003,1,2,95,"J 62","","",TRUE,"CV","q",1814,"cv","J",2,"c","c",TRUE,1,-0.0265840602254935
614,"CVOE_C",2003,1,2,96,"H 72","","",TRUE,"CV","q",1730,"cv","H",2,"c","c",TRUE,1,-0.0660801336426141
615,"CVOE_C",2003,1,2,97,"E 49","","",TRUE,"CV","p",2281,"cv","E",9,"v","v",TRUE,1,0.192995300319689
616,"CVOE_C",2003,1,2,98,"D 52","","",TRUE,"CV","q",1955,"cv","D",2,"c","c",TRUE,1,0.0397129201532447
617,"CVOE_C",2003,1,2,99,"H 62","","",TRUE,"CV","q",1697,"cv","H",2,"c","c",TRUE,1,-0.08159644819934
618,"CVOE_C",2003,1,2,100,"I 11","","",TRUE,"CV","p",2418,"cv","I",1,"v","v",TRUE,1,0.257411515297612
619,"CVOE_C",2003,1,2,101,"A 98","","",FALSE,"CV","p",2798,"cv","A",8,"v","v",TRUE,1,0.436084228375062
620,"CVOE_C",2003,1,2,102,"H 29","","",FALSE,"CV","q",4971,"cv","H",9,"c","c",TRUE,1,1.45781003236796
621,"CVOE_C",2003,1,2,103,"E 83","","",TRUE,"CV","p",3643,"cv","E",3,"v","v",TRUE,1,0.833395919297287
622,"CVOE_C",2003,1,2,104,"D 43","","",FALSE,"CV","q",2207,"cv","D",3,"c","c",TRUE,1,0.158201140404606
623,"CVOE_C",2003,1,2,105,"P 45","","",TRUE,"CV","q",1323,"cv","P",5,"c","c",TRUE,1,-0.257448013175567
624,"CVOE_C",2003,1,2,106,"J 17","","",TRUE,"CV","q",1619,"cv","J",7,"c","c",TRUE,1,-0.118271373515238
865,"CVOE updated",2001,1,1,11,"A 71","","",FALSE,"CV","p",4796,"cv","A",1,"v","v",TRUE,1,1.37552654608229
866,"CVOE updated",2001,1,1,12,"I 66","","",TRUE,"CV","p",1007,"cv","I",6,"v","v",TRUE,1,-0.406028479839973
867,"CVOE updated",2001,1,1,13,"S 30","","",FALSE,"CV","q",1346,"cv","S",0,"c","c",TRUE,1,-0.24663361212088
868,"CVOE updated",2001,1,1,14,"D 20","","",FALSE,"CV","q",1432,"cv","D",0,"c","c",TRUE,1,-0.206197156003351
869,"CVOE updated",2001,1,1,15,"I 31","","",FALSE,"CV","p",1395,"cv","I",1,"v","v",TRUE,1,-0.223594235960893
870,"CVOE updated",2001,1,1,16,"P 16","","",FALSE,"CV","q",1118,"cv","P",6,"c","c",TRUE,1,-0.35383723996735
871,"CVOE updated",2001,1,1,17,"A 49","","",FALSE,"CV","p",1321,"cv","A",9,"v","v",TRUE,1,-0.258388395875975
872,"CVOE updated",2001,1,1,18,"O 64","","",TRUE,"CV","p",1105,"cv","O",4,"v","v",TRUE,1,-0.359949727519999
873,"CVOE updated",2001,1,1,19,"D 02","","",FALSE,"CV","q",932,"cv","D",2,"c","c",TRUE,1,-0.44129283110526
874,"CVOE updated",2001,1,1,20,"P 81","","",TRUE,"CV","q",1202,"cv","P",1,"c","c",TRUE,1,-0.314341166550229
875,"CVOE updated",2001,1,1,21,"J 58","","",FALSE,"CV","q",1125,"cv","J",8,"c","c",TRUE,1,-0.350545900515923
876,"CVOE updated",2001,1,1,22,"A 22","","",TRUE,"CV","p",1484,"cv","A",2,"v","v",TRUE,1,-0.181747205792753
877,"CVOE updated",2001,1,1,23,"J 72","","",FALSE,"CV","q",2416,"cv","J",2,"c","c",TRUE,1,0.256471132597204
878,"CVOE updated",2001,1,1,24,"P 91","","",TRUE,"CV","q",1316,"cv","P",1,"c","c",TRUE,1,-0.260739352626994
879,"CVOE updated",2001,1,1,25,"E 19","","",FALSE,"CV","p",1122,"cv","E",9,"v","v",TRUE,1,-0.351956474566535
880,"CVOE updated",2001,1,1,26,"I 30","","",TRUE,"CV","p",1207,"cv","I",0,"v","v",TRUE,1,-0.31199020979921
881,"CVOE updated",2001,1,1,27,"D 91","","",TRUE,"CV","q",974,"cv","D",1,"c","c",TRUE,1,-0.421544794396699
882,"CVOE updated",2001,1,1,28,"O 48","","",TRUE,"CV","p",1406,"cv","O",8,"v","v",TRUE,1,-0.218422131108651
883,"CVOE updated",2001,1,1,29,"A 89","","",FALSE,"CV","p",1363,"cv","A",9,"v","v",TRUE,1,-0.238640359167415
884,"CVOE updated",2001,1,1,30,"U 11","","",FALSE,"CV","p",1158,"cv","U",1,"v","v",TRUE,1,-0.335029585959197
885,"CVOE updated",2001,1,1,31,"I 76","","",TRUE,"CV","p",1014,"cv","I",6,"v","v",TRUE,1,-0.402737140388547
886,"CVOE updated",2001,1,1,32,"U 89","","",FALSE,"CV","p",768,"cv","U",9,"v","v",TRUE,1,-0.518404212538686
887,"CVOE updated",2001,1,1,33,"D 63","","",TRUE,"CV","q",948,"cv","D",3,"c","c",TRUE,1,-0.433769769501999
888,"CVOE updated",2001,1,1,34,"H 70","","",FALSE,"CV","q",967,"cv","H",0,"c","c",TRUE,1,-0.424836133848126
889,"CVOE updated",2001,1,1,35,"D 48","","",FALSE,"CV","q",1163,"cv","D",8,"c","c",TRUE,1,-0.332678629208178
890,"CVOE updated",2001,1,1,36,"P 56","","",FALSE,"CV","q",1590,"cv","P",6,"c","c",TRUE,1,-0.131906922671148
891,"CVOE updated",2001,1,1,37,"O 77","","",FALSE,"CV","p",972,"cv","O",7,"v","v",TRUE,1,-0.422485177097107
892,"CVOE updated",2001,1,1,38,"P 42","","",FALSE,"CV","q",1130,"cv","P",2,"c","c",TRUE,1,-0.348194943764904
893,"CVOE updated",2001,1,1,39,"H 22","","",FALSE,"CV","q",1120,"cv","H",2,"c","c",TRUE,1,-0.352896857266942
894,"CVOE updated",2001,1,1,40,"E 42","","",TRUE,"CV","p",1126,"cv","E",2,"v","v",TRUE,1,-0.350075709165719
895,"CVOE updated",2001,1,1,41,"J 28","","",FALSE,"CV","q",1312,"cv","J",8,"c","c",TRUE,1,-0.262620118027809
896,"CVOE updated",2001,1,1,42,"E 95","","",FALSE,"CV","p",1354,"cv","E",5,"v","v",TRUE,1,-0.242872081319249
897,"CVOE updated",2001,1,1,43,"S 63","","",TRUE,"CV","q",969,"cv","S",3,"c","c",TRUE,1,-0.423895751147718
898,"CVOE updated",2001,1,1,44,"H 50","","",FALSE,"CV","q",1009,"cv","H",0,"c","c",TRUE,1,-0.405088097139566
899,"CVOE updated",2001,1,1,45,"S 33","","",TRUE,"CV","q",1155,"cv","S",3,"c","c",TRUE,1,-0.336440160009809
900,"CVOE updated",2001,1,1,46,"P 57","","",TRUE,"CV","q",1247,"cv","P",7,"c","c",TRUE,1,-0.293182555791057
901,"CVOE updated",2001,1,1,47,"E 23","","",FALSE,"CV","p",1002,"cv","E",3,"v","v",TRUE,1,-0.408379436590993
902,"CVOE updated",2001,1,1,48,"S 61","","",TRUE,"CV","q",929,"cv","S",1,"c","c",TRUE,1,-0.442703405155871
903,"CVOE updated",2001,1,1,49,"U 67","","",FALSE,"CV","p",1199,"cv","U",7,"v","v",TRUE,1,-0.315751740600841
904,"CVOE updated",2001,1,1,50,"H 32","","",FALSE,"CV","q",848,"cv","H",2,"c","c",TRUE,1,-0.48078890452238
905,"CVOE updated",2001,1,1,51,"U 50","","",TRUE,"CV","p",1083,"cv","U",0,"v","v",TRUE,1,-0.370293937224483
906,"CVOE updated",2001,1,1,52,"O 49","","",FALSE,"CV","p",967,"cv","O",9,"v","v",TRUE,1,-0.424836133848126
907,"CVOE updated",2001,1,1,53,"U 32","","",TRUE,"CV","p",889,"cv","U",2,"v","v",TRUE,1,-0.461511059164024
908,"CVOE updated",2001,1,1,54,"J 78","","",FALSE,"CV","q",1639,"cv","J",8,"c","c",TRUE,1,-0.108867546511161
909,"CVOE updated",2001,1,1,55,"S 54","","",FALSE,"CV","p",1284,"cv","S",4,"c","v",FALSE,0,-0.275785475833516
910,"CVOE updated",2001,1,1,56,"J 27","","",TRUE,"CV","q",4611,"cv","J",7,"c","c",TRUE,1,1.28854114629458
911,"CVOE updated",2001,1,1,57,"S 06","","",FALSE,"CV","q",1201,"cv","S",6,"c","c",TRUE,1,-0.314811357900433
912,"CVOE updated",2001,1,1,58,"D 67","","",TRUE,"CV","q",969,"cv","D",7,"c","c",TRUE,1,-0.423895751147718
913,"CVOE updated",2001,1,1,59,"A 79","","",FALSE,"CV","p",1087,"cv","A",9,"v","v",TRUE,1,-0.368413171823668
914,"CVOE updated",2001,1,1,60,"S 52","","",FALSE,"CV","q",853,"cv","S",2,"c","c",TRUE,1,-0.478437947771361
915,"CVOE updated",2001,1,1,61,"U 16","","",TRUE,"CV","p",1009,"cv","U",6,"v","v",TRUE,1,-0.405088097139566
916,"CVOE updated",2001,1,1,62,"O 82","","",TRUE,"CV","p",898,"cv","O",2,"v","v",TRUE,1,-0.457279337012189
917,"CVOE updated",2001,1,1,63,"H 87","","",TRUE,"CV","q",809,"cv","H",7,"c","c",TRUE,1,-0.499126367180329
918,"CVOE updated",2001,1,1,64,"I 32","","",TRUE,"CV","p",961,"cv","I",2,"v","v",TRUE,1,-0.427657281949349
919,"CVOE updated",2001,1,1,65,"U 37","","",FALSE,"CV","p",1157,"cv","U",7,"v","v",TRUE,1,-0.335499777309401
920,"CVOE updated",2001,1,1,66,"I 42","","",TRUE,"CV","p",895,"cv","I",2,"v","v",TRUE,1,-0.458689911062801
921,"CVOE updated",2001,1,1,67,"D 65","","",TRUE,"CV","p",1002,"cv","D",5,"c","v",FALSE,0,-0.408379436590993
922,"CVOE updated",2001,1,1,68,"U 77","","",FALSE,"CV","q",264,"cv","U",7,"v","c",FALSE,0,-0.755380653041409
923,"CVOE updated",2001,1,1,69,"E 12","","",TRUE,"CV","q",1358,"cv","E",2,"v","c",FALSE,0,-0.240991315918434
924,"CVOE updated",2001,1,1,70,"I 60","","",TRUE,"CV","p",1601,"cv","I",0,"v","v",TRUE,1,-0.126734817818906
925,"CVOE updated",2001,1,1,71,"J 36","","",FALSE,"CV","p",4726,"cv","J",6,"c","v",FALSE,0,1.34261315156802
926,"CVOE updated",2001,1,1,72,"H 75","","",TRUE,"CV","q",1122,"cv","H",5,"c","c",TRUE,1,-0.351956474566535
927,"CVOE updated",2001,1,1,73,"I 50","","",TRUE,"CV","p",1051,"cv","I",0,"v","v",TRUE,1,-0.385340060431005
928,"CVOE updated",2001,1,1,74,"E 99","","",FALSE,"CV","p",1198,"cv","E",9,"v","v",TRUE,1,-0.316221931951044
929,"CVOE updated",2001,1,1,75,"A 86","","",TRUE,"CV","p",1160,"cv","A",6,"v","v",TRUE,1,-0.334089203258789
930,"CVOE updated",2001,1,1,76,"U 48","","",TRUE,"CV","p",921,"cv","U",8,"v","v",TRUE,1,-0.446464935957502
931,"CVOE updated",2001,1,1,77,"E 01","","",FALSE,"CV","p",1207,"cv","E",1,"v","v",TRUE,1,-0.31199020979921
932,"CVOE updated",2001,1,1,78,"A 78","","",TRUE,"CV","p",777,"cv","A",8,"v","v",TRUE,1,-0.514172490386851
933,"CVOE updated",2001,1,1,79,"P 60","","",FALSE,"CV","q",1041,"cv","P",0,"c","c",TRUE,1,-0.390041973933044
934,"CVOE updated",2001,1,1,80,"E 43","","",FALSE,"CV","p",974,"cv","E",3,"v","v",TRUE,1,-0.421544794396699
935,"CVOE updated",2001,1,1,81,"D 69","","",TRUE,"CV","q",1036,"cv","D",9,"c","c",TRUE,1,-0.392392930684063
936,"CVOE updated",2001,1,1,82,"H 11","","",TRUE,"CV","q",1010,"cv","H",1,"c","c",TRUE,1,-0.404617905789362
937,"CVOE updated",2001,1,1,83,"P 43","","",TRUE,"CV","q",960,"cv","P",3,"c","c",TRUE,1,-0.428127473299553
938,"CVOE updated",2001,1,1,84,"O 67","","",FALSE,"CV","p",843,"cv","O",7,"v","v",TRUE,1,-0.483139861273399
939,"CVOE updated",2001,1,1,85,"S 91","","",FALSE,"CV","q",806,"cv","S",1,"c","c",TRUE,1,-0.500536941230941
940,"CVOE updated",2001,1,1,86,"J 68","","",TRUE,"CV","q",1520,"cv","J",8,"c","c",TRUE,1,-0.164820317185416
941,"CVOE updated",2001,1,1,87,"S 47","","",FALSE,"CV","q",1008,"cv","S",7,"c","c",TRUE,1,-0.40555828848977
942,"CVOE updated",2001,1,1,88,"I 81","","",TRUE,"CV","p",998,"cv","I",1,"v","v",TRUE,1,-0.410260201991808
943,"CVOE updated",2001,1,1,89,"J 39","","",FALSE,"CV","q",1553,"cv","J",9,"c","c",TRUE,1,-0.14930400262869
944,"CVOE updated",2001,1,1,90,"A 11","","",TRUE,"CV","p",1142,"cv","A",1,"v","v",TRUE,1,-0.342552647562458
945,"CVOE updated",2001,1,1,91,"O 76","","",FALSE,"CV","p",1076,"cv","O",6,"v","v",TRUE,1,-0.37358527667591
946,"CVOE updated",2001,1,1,92,"A 62","","",FALSE,"CV","p",999,"cv","A",2,"v","v",TRUE,1,-0.409790010641604
947,"CVOE updated",2001,1,1,93,"O 27","","",TRUE,"CV","p",809,"cv","O",7,"v","v",TRUE,1,-0.499126367180329
948,"CVOE updated",2001,1,1,94,"E 66","","",FALSE,"CV","p",1196,"cv","E",6,"v","v",TRUE,1,-0.317162314651452
949,"CVOE updated",2001,1,1,95,"J 62","","",TRUE,"CV","q",1197,"cv","J",2,"c","c",TRUE,1,-0.316692123301248
950,"CVOE updated",2001,1,1,96,"H 72","","",TRUE,"CV","q",1238,"cv","H",2,"c","c",TRUE,1,-0.297414277942892
951,"CVOE updated",2001,1,1,97,"E 49","","",TRUE,"CV","p",932,"cv","E",9,"v","v",TRUE,1,-0.44129283110526
952,"CVOE updated",2001,1,1,98,"D 52","","",TRUE,"CV","q",887,"cv","D",2,"c","c",TRUE,1,-0.462451441864431
953,"CVOE updated",2001,1,1,99,"H 62","","",TRUE,"CV","q",1050,"cv","H",2,"c","c",TRUE,1,-0.385810251781209
954,"CVOE updated",2001,1,1,100,"I 11","","",TRUE,"CV","p",928,"cv","I",1,"v","v",TRUE,1,-0.443173596506075
955,"CVOE updated",2001,1,1,101,"A 98","","",FALSE,"CV","p",1079,"cv","A",8,"v","v",TRUE,1,-0.372174702625299
956,"CVOE updated",2001,1,1,102,"H 29","","",FALSE,"CV","q",1119,"cv","H",9,"c","c",TRUE,1,-0.353367048617146
957,"CVOE updated",2001,1,1,103,"E 83","","",TRUE,"CV","p",1244,"cv","E",3,"v","v",TRUE,1,-0.294593129841669
958,"CVOE updated",2001,1,1,104,"D 43","","",FALSE,"CV","q",843,"cv","D",3,"c","c",TRUE,1,-0.483139861273399
959,"CVOE updated",2001,1,1,105,"P 45","","",TRUE,"CV","p",1039,"cv","P",5,"c","v",FALSE,0,-0.390982356633451
960,"CVOE updated",2001,1,1,106,"J 17","","",TRUE,"CV","q",2383,"cv","J",7,"c","c",TRUE,1,0.240954818040478
1393,"CVOE_B",1002,1,2,11,"A 71","","",FALSE,"CV","p",4490,"cv","A",1,"v","v",TRUE,1,1.23164799291992
1394,"CVOE_B",1002,1,2,12,"I 66","","",TRUE,"CV","p",1197,"cv","I",6,"v","v",TRUE,1,-0.316692123301248
1395,"CVOE_B",1002,1,2,13,"S 30","","",FALSE,"CV","q",1276,"cv","S",0,"c","c",TRUE,1,-0.279547006635147
1396,"CVOE_B",1002,1,2,14,"D 20","","",FALSE,"CV","q",1076,"cv","D",0,"c","c",TRUE,1,-0.37358527667591
1397,"CVOE_B",1002,1,2,15,"I 31","","",FALSE,"CV","p",921,"cv","I",1,"v","v",TRUE,1,-0.446464935957502
1398,"CVOE_B",1002,1,2,16,"P 16","","",FALSE,"CV","q",931,"cv","P",6,"c","c",TRUE,1,-0.441763022455464
1399,"CVOE_B",1002,1,2,17,"A 49","","",FALSE,"CV","p",886,"cv","A",9,"v","v",TRUE,1,-0.462921633214635
1400,"CVOE_B",1002,1,2,18,"O 64","","",TRUE,"CV","p",734,"cv","O",4,"v","v",TRUE,1,-0.534390718445615
1401,"CVOE_B",1002,1,2,19,"D 02","","",FALSE,"CV","q",812,"cv","D",2,"c","c",TRUE,1,-0.497715793129718
1402,"CVOE_B",1002,1,2,20,"P 81","","",TRUE,"CV","q",1079,"cv","P",1,"c","c",TRUE,1,-0.372174702625299
1403,"CVOE_B",1002,1,2,21,"J 58","","",FALSE,"CV","q",1119,"cv","J",8,"c","c",TRUE,1,-0.353367048617146
1404,"CVOE_B",1002,1,2,22,"A 22","","",TRUE,"CV","p",928,"cv","A",2,"v","v",TRUE,1,-0.443173596506075
1405,"CVOE_B",1002,1,2,23,"J 72","","",FALSE,"CV","q",883,"cv","J",2,"c","c",TRUE,1,-0.464332207265247
1406,"CVOE_B",1002,1,2,24,"P 91","","",TRUE,"CV","q",966,"cv","P",1,"c","c",TRUE,1,-0.42530632519833
1407,"CVOE_B",1002,1,2,25,"E 19","","",FALSE,"CV","p",811,"cv","E",9,"v","v",TRUE,1,-0.498185984479921
1408,"CVOE_B",1002,1,2,26,"I 30","","",TRUE,"CV","p",883,"cv","I",0,"v","v",TRUE,1,-0.464332207265247
1409,"CVOE_B",1002,1,2,27,"D 91","","",TRUE,"CV","q",927,"cv","D",1,"c","c",TRUE,1,-0.443643787856279
1410,"CVOE_B",1002,1,2,28,"O 48","","",TRUE,"CV","p",726,"cv","O",8,"v","v",TRUE,1,-0.538152249247246
1411,"CVOE_B",1002,1,2,29,"A 89","","",FALSE,"CV","p",802,"cv","A",9,"v","v",TRUE,1,-0.502417706631756
1412,"CVOE_B",1002,1,2,30,"U 11","","",FALSE,"CV","q",773,"cv","U",1,"v","c",FALSE,0,-0.516053255787666
1413,"CVOE_B",1002,1,2,31,"I 76","","",TRUE,"CV","p",1857,"cv","I",6,"v","v",TRUE,1,-0.00636583216672936
1414,"CVOE_B",1002,1,2,32,"U 89","","",FALSE,"CV","p",1167,"cv","U",9,"v","v",TRUE,1,-0.330797863807363
1415,"CVOE_B",1002,1,2,33,"D 63","","",TRUE,"CV","q",965,"cv","D",3,"c","c",TRUE,1,-0.425776516548534
1416,"CVOE_B",1002,1,2,34,"H 70","","",FALSE,"CV","q",1982,"cv","H",0,"c","c",TRUE,1,0.0524080866087477
1417,"CVOE_B",1002,1,2,35,"D 48","","",FALSE,"CV","q",1354,"cv","D",8,"c","c",TRUE,1,-0.242872081319249
1418,"CVOE_B",1002,1,2,36,"P 56","","",FALSE,"CV","q",891,"cv","P",6,"c","c",TRUE,1,-0.460570676463616
1419,"CVOE_B",1002,1,2,37,"O 77","","",FALSE,"CV","p",723,"cv","O",7,"v","v",TRUE,1,-0.539562823297857
1420,"CVOE_B",1002,1,2,38,"P 42","","",FALSE,"CV","q",660,"cv","P",2,"c","c",TRUE,1,-0.569184878360698
1421,"CVOE_B",1002,1,2,39,"H 22","","",FALSE,"CV","q",843,"cv","H",2,"c","c",TRUE,1,-0.483139861273399
1422,"CVOE_B",1002,1,2,40,"E 42","","",TRUE,"CV","p",725,"cv","E",2,"v","v",TRUE,1,-0.53862244059745
1423,"CVOE_B",1002,1,2,41,"J 28","","",FALSE,"CV","q",997,"cv","J",8,"c","c",TRUE,1,-0.410730393342012
1424,"CVOE_B",1002,1,2,42,"E 95","","",FALSE,"CV","p",690,"cv","E",5,"v","v",TRUE,1,-0.555079137854583
1425,"CVOE_B",1002,1,2,43,"S 63","","",TRUE,"CV","q",817,"cv","S",3,"c","c",TRUE,1,-0.495364836378699
1426,"CVOE_B",1002,1,2,44,"H 50","","",FALSE,"CV","q",889,"cv","H",0,"c","c",TRUE,1,-0.461511059164024
1427,"CVOE_B",1002,1,2,45,"S 33","","",TRUE,"CV","q",1285,"cv","S",3,"c","c",TRUE,1,-0.275315284483312
1428,"CVOE_B",1002,1,2,46,"P 57","","",TRUE,"CV","q",1632,"cv","P",7,"c","c",TRUE,1,-0.112158885962588
1429,"CVOE_B",1002,1,2,47,"E 23","","",FALSE,"CV","p",728,"cv","E",3,"v","v",TRUE,1,-0.537211866546838
1430,"CVOE_B",1002,1,2,48,"S 61","","",TRUE,"CV","q",649,"cv","S",1,"c","c",TRUE,1,-0.57435698321294
1431,"CVOE_B",1002,1,2,49,"U 67","","",FALSE,"CV","p",614,"cv","U",7,"v","v",TRUE,1,-0.590813680470073
1432,"CVOE_B",1002,1,2,50,"H 32","","",FALSE,"CV","q",690,"cv","H",2,"c","c",TRUE,1,-0.555079137854583
1433,"CVOE_B",1002,1,2,51,"U 50","","",TRUE,"CV","p",645,"cv","U",0,"v","v",TRUE,1,-0.576237748613755
1434,"CVOE_B",1002,1,2,52,"O 49","","",FALSE,"CV","p",766,"cv","O",9,"v","v",TRUE,1,-0.519344595239093
1435,"CVOE_B",1002,1,2,53,"U 32","","",TRUE,"CV","p",631,"cv","U",2,"v","v",TRUE,1,-0.582820427516608
1436,"CVOE_B",1002,1,2,54,"J 78","","",FALSE,"CV","q",848,"cv","J",8,"c","c",TRUE,1,-0.48078890452238
1437,"CVOE_B",1002,1,2,55,"S 54","","",FALSE,"CV","q",886,"cv","S",4,"c","c",TRUE,1,-0.462921633214635
1438,"CVOE_B",1002,1,2,56,"J 27","","",TRUE,"CV","q",1400,"cv","J",7,"c","c",TRUE,1,-0.221243279209874
1439,"CVOE_B",1002,1,2,57,"S 06","","",FALSE,"CV","q",651,"cv","S",6,"c","c",TRUE,1,-0.573416600512532
1440,"CVOE_B",1002,1,2,58,"D 67","","",TRUE,"CV","q",736,"cv","D",7,"c","c",TRUE,1,-0.533450335745208
1441,"CVOE_B",1002,1,2,59,"A 79","","",FALSE,"CV","p",735,"cv","A",9,"v","v",TRUE,1,-0.533920527095411
1442,"CVOE_B",1002,1,2,60,"S 52","","",FALSE,"CV","q",812,"cv","S",2,"c","c",TRUE,1,-0.497715793129718
1443,"CVOE_B",1002,1,2,61,"U 16","","",TRUE,"CV","p",649,"cv","U",6,"v","v",TRUE,1,-0.57435698321294
1444,"CVOE_B",1002,1,2,62,"O 82","","",TRUE,"CV","p",614,"cv","O",2,"v","v",TRUE,1,-0.590813680470073
1445,"CVOE_B",1002,1,2,63,"H 87","","",TRUE,"CV","q",730,"cv","H",7,"c","c",TRUE,1,-0.536271483846431
1446,"CVOE_B",1002,1,2,64,"I 32","","",TRUE,"CV","p",807,"cv","I",2,"v","v",TRUE,1,-0.500066749880737
1447,"CVOE_B",1002,1,2,65,"U 37","","",FALSE,"CV","p",762,"cv","U",7,"v","v",TRUE,1,-0.521225360639909
1448,"CVOE_B",1002,1,2,66,"I 42","","",TRUE,"CV","p",766,"cv","I",2,"v","v",TRUE,1,-0.519344595239093
1449,"CVOE_B",1002,1,2,67,"D 65","","",TRUE,"CV","q",693,"cv","D",5,"c","c",TRUE,1,-0.553668563803972
1450,"CVOE_B",1002,1,2,68,"U 77","","",FALSE,"CV","p",646,"cv","U",7,"v","v",TRUE,1,-0.575767557263551
1451,"CVOE_B",1002,1,2,69,"E 12","","",TRUE,"CV","p",611,"cv","E",2,"v","v",TRUE,1,-0.592224254520685
1452,"CVOE_B",1002,1,2,70,"I 60","","",TRUE,"CV","p",727,"cv","I",0,"v","v",TRUE,1,-0.537682057897042
1453,"CVOE_B",1002,1,2,71,"J 36","","",FALSE,"CV","q",687,"cv","J",6,"c","c",TRUE,1,-0.556489711905195
1454,"CVOE_B",1002,1,2,72,"H 75","","",TRUE,"CV","q",814,"cv","H",5,"c","c",TRUE,1,-0.49677541042931
1455,"CVOE_B",1002,1,2,73,"I 50","","",TRUE,"CV","p",769,"cv","I",0,"v","v",TRUE,1,-0.517934021188482
1456,"CVOE_B",1002,1,2,74,"E 99","","",FALSE,"CV","p",734,"cv","E",9,"v","v",TRUE,1,-0.534390718445615
1457,"CVOE_B",1002,1,2,75,"A 86","","",TRUE,"CV","p",772,"cv","A",6,"v","v",TRUE,1,-0.51652344713787
1458,"CVOE_B",1002,1,2,76,"U 48","","",TRUE,"CV","p",737,"cv","U",8,"v","v",TRUE,1,-0.532980144395004
1459,"CVOE_B",1002,1,2,77,"E 01","","",FALSE,"CV","p",737,"cv","E",1,"v","v",TRUE,1,-0.532980144395004
1460,"CVOE_B",1002,1,2,78,"A 78","","",TRUE,"CV","p",870,"cv","A",8,"v","v",TRUE,1,-0.470444694817896
1461,"CVOE_B",1002,1,2,79,"P 60","","",FALSE,"CV","q",1243,"cv","P",0,"c","c",TRUE,1,-0.295063321191873
1462,"CVOE_B",1002,1,2,80,"E 43","","",FALSE,"CV","p",763,"cv","E",3,"v","v",TRUE,1,-0.520755169289705
1463,"CVOE_B",1002,1,2,81,"D 69","","",TRUE,"CV","q",1003,"cv","D",9,"c","c",TRUE,1,-0.407909245240789
1464,"CVOE_B",1002,1,2,82,"H 11","","",TRUE,"CV","q",1126,"cv","H",1,"c","c",TRUE,1,-0.350075709165719
1465,"CVOE_B",1002,1,2,83,"P 43","","",TRUE,"CV","q",1075,"cv","P",3,"c","c",TRUE,1,-0.374055468026114
1466,"CVOE_B",1002,1,2,84,"O 67","","",FALSE,"CV","p",645,"cv","O",7,"v","v",TRUE,1,-0.576237748613755
1467,"CVOE_B",1002,1,2,85,"S 91","","",FALSE,"CV","q",649,"cv","S",1,"c","c",TRUE,1,-0.57435698321294
1468,"CVOE_B",1002,1,2,86,"J 68","","",TRUE,"CV","q",693,"cv","J",8,"c","c",TRUE,1,-0.553668563803972
1469,"CVOE_B",1002,1,2,87,"S 47","","",FALSE,"CV","q",724,"cv","S",7,"c","c",TRUE,1,-0.539092631947654
1470,"CVOE_B",1002,1,2,88,"I 81","","",TRUE,"CV","p",762,"cv","I",1,"v","v",TRUE,1,-0.521225360639909
1471,"CVOE_B",1002,1,2,89,"J 39","","",FALSE,"CV","q",649,"cv","J",9,"c","c",TRUE,1,-0.57435698321294
1472,"CVOE_B",1002,1,2,90,"A 11","","",TRUE,"CV","p",656,"cv","A",1,"v","v",TRUE,1,-0.571065643761513
1473,"CVOE_B",1002,1,2,91,"O 76","","",FALSE,"CV","p",560,"cv","O",6,"v","v",TRUE,1,-0.616204013381079
1474,"CVOE_B",1002,1,2,92,"A 62","","",FALSE,"CV","p",608,"cv","A",2,"v","v",TRUE,1,-0.593634828571296
1475,"CVOE_B",1002,1,2,93,"O 27","","",TRUE,"CV","p",920,"cv","O",7,"v","v",TRUE,1,-0.446935127307705
1476,"CVOE_B",1002,1,2,94,"E 66","","",FALSE,"CV","p",657,"cv","E",6,"v","v",TRUE,1,-0.570595452411309
1477,"CVOE_B",1002,1,2,95,"J 62","","",TRUE,"CV","q",762,"cv","J",2,"c","c",TRUE,1,-0.521225360639909
1478,"CVOE_B",1002,1,2,96,"H 72","","",TRUE,"CV","q",610,"cv","H",2,"c","c",TRUE,1,-0.592694445870889
1479,"CVOE_B",1002,1,2,97,"E 49","","",TRUE,"CV","p",726,"cv","E",9,"v","v",TRUE,1,-0.538152249247246
1480,"CVOE_B",1002,1,2,98,"D 52","","",TRUE,"CV","q",607,"cv","D",2,"c","c",TRUE,1,-0.5941050199215
1481,"CVOE_B",1002,1,2,99,"H 62","","",TRUE,"CV","q",722,"cv","H",2,"c","c",TRUE,1,-0.540033014648061
1482,"CVOE_B",1002,1,2,100,"I 11","","",TRUE,"CV","p",738,"cv","I",1,"v","v",TRUE,1,-0.5325099530448
1483,"CVOE_B",1002,1,2,101,"A 98","","",FALSE,"CV","p",620,"cv","A",8,"v","v",TRUE,1,-0.58799253236885
1484,"CVOE_B",1002,1,2,102,"H 29","","",FALSE,"CV","q",697,"cv","H",9,"c","c",TRUE,1,-0.551787798403157
1485,"CVOE_B",1002,1,2,103,"E 83","","",TRUE,"CV","p",689,"cv","E",3,"v","v",TRUE,1,-0.555549329204787
1486,"CVOE_B",1002,1,2,104,"D 43","","",FALSE,"CV","q",817,"cv","D",3,"c","c",TRUE,1,-0.495364836378699
1487,"CVOE_B",1002,1,2,105,"P 45","","",TRUE,"CV","q",654,"cv","P",5,"c","c",TRUE,1,-0.572006026461921
1488,"CVOE_B",1002,1,2,106,"J 17","","",TRUE,"CV","q",699,"cv","J",7,"c","c",TRUE,1,-0.550847415702749
1825,"CVOE_B",2002,1,2,11,"A 71","","",FALSE,"CV","p",5270,"cv","A",1,"v","v",TRUE,1,1.5983972460789
1826,"CVOE_B",2002,1,2,12,"I 66","","",TRUE,"CV","p",1304,"cv","I",6,"v","v",TRUE,1,-0.26638164882944
1827,"CVOE_B",2002,1,2,13,"S 30","","",FALSE,"CV","q",891,"cv","S",0,"c","c",TRUE,1,-0.460570676463616
1828,"CVOE_B",2002,1,2,14,"D 20","","",FALSE,"CV","q",1271,"cv","D",0,"c","c",TRUE,1,-0.281897963386166
1829,"CVOE_B",2002,1,2,15,"I 31","","",FALSE,"CV","p",618,"cv","I",1,"v","v",TRUE,1,-0.588932915069258
1830,"CVOE_B",2002,1,2,16,"P 16","","",FALSE,"CV","q",655,"cv","P",6,"c","c",TRUE,1,-0.571535835111717
1831,"CVOE_B",2002,1,2,17,"A 49","","",FALSE,"CV","p",738,"cv","A",9,"v","v",TRUE,1,-0.5325099530448
1832,"CVOE_B",2002,1,2,18,"O 64","","",TRUE,"CV","p",698,"cv","O",4,"v","v",TRUE,1,-0.551317607052953
1833,"CVOE_B",2002,1,2,19,"D 02","","",FALSE,"CV","q",809,"cv","D",2,"c","c",TRUE,1,-0.499126367180329
1834,"CVOE_B",2002,1,2,20,"P 81","","",TRUE,"CV","p",608,"cv","P",1,"c","v",FALSE,0,-0.593634828571296
1835,"CVOE_B",2002,1,2,21,"J 58","","",FALSE,"CV","p",489,"cv","J",8,"c","v",FALSE,0,-0.64958759924555
1836,"CVOE_B",2002,1,2,22,"A 22","","",TRUE,"CV","q",543,"cv","A",2,"v","c",FALSE,0,-0.624197266334544
1837,"CVOE_B",2002,1,2,23,"J 72","","",FALSE,"CV","q",2409,"cv","J",2,"c","c",TRUE,1,0.253179793145777
1838,"CVOE_B",2002,1,2,24,"P 91","","",TRUE,"CV","q",1519,"cv","P",1,"c","c",TRUE,1,-0.165290508535619
1839,"CVOE_B",2002,1,2,25,"E 19","","",FALSE,"CV","p",615,"cv","E",9,"v","v",TRUE,1,-0.59034348911987
1840,"CVOE_B",2002,1,2,26,"I 30","","",TRUE,"CV","p",1827,"cv","I",0,"v","v",TRUE,1,-0.0204715726728439
1841,"CVOE_B",2002,1,2,27,"D 91","","",TRUE,"CV","q",801,"cv","D",1,"c","c",TRUE,1,-0.50288789798196
1842,"CVOE_B",2002,1,2,28,"O 48","","",TRUE,"CV","p",655,"cv","O",8,"v","v",TRUE,1,-0.571535835111717
1843,"CVOE_B",2002,1,2,29,"A 89","","",FALSE,"CV","p",816,"cv","A",9,"v","v",TRUE,1,-0.495835027728902
1844,"CVOE_B",2002,1,2,30,"U 11","","",FALSE,"CV","p",653,"cv","U",1,"v","v",TRUE,1,-0.572476217812125
1845,"CVOE_B",2002,1,2,31,"I 76","","",TRUE,"CV","p",597,"cv","I",6,"v","v",TRUE,1,-0.598806933423538
1846,"CVOE_B",2002,1,2,32,"U 89","","",FALSE,"CV","p",573,"cv","U",9,"v","v",TRUE,1,-0.61009152582843
1847,"CVOE_B",2002,1,2,33,"D 63","","",TRUE,"CV","q",974,"cv","D",3,"c","c",TRUE,1,-0.421544794396699
1848,"CVOE_B",2002,1,2,34,"H 70","","",FALSE,"CV","q",896,"cv","H",0,"c","c",TRUE,1,-0.458219719712597
1849,"CVOE_B",2002,1,2,35,"D 48","","",FALSE,"CV","q",571,"cv","D",8,"c","c",TRUE,1,-0.611031908528837
1850,"CVOE_B",2002,1,2,36,"P 56","","",FALSE,"CV","q",659,"cv","P",6,"c","c",TRUE,1,-0.569655069710902
1851,"CVOE_B",2002,1,2,37,"O 77","","",FALSE,"CV","p",610,"cv","O",7,"v","v",TRUE,1,-0.592694445870889
1852,"CVOE_B",2002,1,2,38,"P 42","","",FALSE,"CV","q",648,"cv","P",2,"c","c",TRUE,1,-0.574827174563144
1853,"CVOE_B",2002,1,2,39,"H 22","","",FALSE,"CV","q",535,"cv","H",2,"c","c",TRUE,1,-0.627958797136175
1854,"CVOE_B",2002,1,2,40,"E 42","","",TRUE,"CV","p",617,"cv","E",2,"v","v",TRUE,1,-0.589403106419462
1855,"CVOE_B",2002,1,2,41,"J 28","","",FALSE,"CV","q",537,"cv","J",8,"c","c",TRUE,1,-0.627018414435767
1856,"CVOE_B",2002,1,2,42,"E 95","","",FALSE,"CV","p",542,"cv","E",5,"v","v",TRUE,1,-0.624667457684748
1857,"CVOE_B",2002,1,2,43,"S 63","","",TRUE,"CV","q",820,"cv","S",3,"c","c",TRUE,1,-0.493954262328087
1858,"CVOE_B",2002,1,2,44,"H 50","","",FALSE,"CV","q",539,"cv","H",0,"c","c",TRUE,1,-0.62607803173536
1859,"CVOE_B",2002,1,2,45,"S 33","","",TRUE,"CV","q",487,"cv","S",3,"c","c",TRUE,1,-0.650527981945958
1860,"CVOE_B",2002,1,2,46,"P 57","","",TRUE,"CV","q",502,"cv","P",7,"c","c",TRUE,1,-0.643475111692901
1861,"CVOE_B",2002,1,2,47,"E 23","","",FALSE,"CV","p",540,"cv","E",3,"v","v",TRUE,1,-0.625607840385156
1862,"CVOE_B",2002,1,2,48,"S 61","","",TRUE,"CV","q",528,"cv","S",1,"c","c",TRUE,1,-0.631250136587602
1863,"CVOE_B",2002,1,2,49,"U 67","","",FALSE,"CV","p",649,"cv","U",7,"v","v",TRUE,1,-0.57435698321294
1864,"CVOE_B",2002,1,2,50,"H 32","","",FALSE,"CV","q",1045,"cv","H",2,"c","c",TRUE,1,-0.388161208532228
1865,"CVOE_B",2002,1,2,51,"U 50","","",TRUE,"CV","p",570,"cv","U",0,"v","v",TRUE,1,-0.611502099879041
1866,"CVOE_B",2002,1,2,52,"O 49","","",FALSE,"CV","p",596,"cv","O",9,"v","v",TRUE,1,-0.599277124773742
1867,"CVOE_B",2002,1,2,53,"U 32","","",TRUE,"CV","p",573,"cv","U",2,"v","v",TRUE,1,-0.61009152582843
1868,"CVOE_B",2002,1,2,54,"J 78","","",FALSE,"CV","q",700,"cv","J",8,"c","c",TRUE,1,-0.550377224352545
1869,"CVOE_B",2002,1,2,55,"S 54","","",FALSE,"CV","q",615,"cv","S",4,"c","c",TRUE,1,-0.59034348911987
1870,"CVOE_B",2002,1,2,56,"J 27","","",TRUE,"CV","q",614,"cv","J",7,"c","c",TRUE,1,-0.590813680470073
1871,"CVOE_B",2002,1,2,57,"S 06","","",FALSE,"CV","q",769,"cv","S",6,"c","c",TRUE,1,-0.517934021188482
1872,"CVOE_B",2002,1,2,58,"D 67","","",TRUE,"CV","q",1792,"cv","D",7,"c","c",TRUE,1,-0.0369282699299774
1873,"CVOE_B",2002,1,2,59,"A 79","","",FALSE,"CV","p",464,"cv","A",9,"v","v",TRUE,1,-0.661342383000646
1874,"CVOE_B",2002,1,2,60,"S 52","","",FALSE,"CV","q",847,"cv","S",2,"c","c",TRUE,1,-0.481259095872584
1875,"CVOE_B",2002,1,2,61,"U 16","","",TRUE,"CV","p",456,"cv","U",6,"v","v",TRUE,1,-0.665103913802276
1876,"CVOE_B",2002,1,2,62,"O 82","","",TRUE,"CV","p",661,"cv","O",2,"v","v",TRUE,1,-0.568714687010494
1877,"CVOE_B",2002,1,2,63,"H 87","","",TRUE,"CV","q",1041,"cv","H",7,"c","c",TRUE,1,-0.390041973933044
1878,"CVOE_B",2002,1,2,64,"I 32","","",TRUE,"CV","p",584,"cv","I",2,"v","v",TRUE,1,-0.604919420976188
1879,"CVOE_B",2002,1,2,65,"U 37","","",FALSE,"CV","p",499,"cv","U",7,"v","v",TRUE,1,-0.644885685743512
1880,"CVOE_B",2002,1,2,66,"I 42","","",TRUE,"CV","p",458,"cv","I",2,"v","v",TRUE,1,-0.664163531101869
1881,"CVOE_B",2002,1,2,67,"D 65","","",TRUE,"CV","q",685,"cv","D",5,"c","c",TRUE,1,-0.557430094605602
1882,"CVOE_B",2002,1,2,68,"U 77","","",FALSE,"CV","p",422,"cv","U",7,"v","v",TRUE,1,-0.681090419709206
1883,"CVOE_B",2002,1,2,69,"E 12","","",TRUE,"CV","p",621,"cv","E",2,"v","v",TRUE,1,-0.587522341018647
1884,"CVOE_B",2002,1,2,70,"I 60","","",TRUE,"CV","p",502,"cv","I",0,"v","v",TRUE,1,-0.643475111692901
1885,"CVOE_B",2002,1,2,71,"J 36","","",FALSE,"CV","q",618,"cv","J",6,"c","c",TRUE,1,-0.588932915069258
1886,"CVOE_B",2002,1,2,72,"H 75","","",TRUE,"CV","p",460,"cv","H",5,"c","v",FALSE,0,-0.663223148401461
1887,"CVOE_B",2002,1,2,73,"I 50","","",TRUE,"CV","q",1235,"cv","I",0,"v","c",FALSE,0,-0.298824851993503
1888,"CVOE_B",2002,1,2,74,"E 99","","",FALSE,"CV","p",733,"cv","E",9,"v","v",TRUE,1,-0.534860909795819
1889,"CVOE_B",2002,1,2,75,"A 86","","",TRUE,"CV","p",967,"cv","A",6,"v","v",TRUE,1,-0.424836133848126
1890,"CVOE_B",2002,1,2,76,"U 48","","",TRUE,"CV","p",615,"cv","U",8,"v","v",TRUE,1,-0.59034348911987
1891,"CVOE_B",2002,1,2,77,"E 01","","",FALSE,"CV","p",748,"cv","E",1,"v","v",TRUE,1,-0.527808039542762
1892,"CVOE_B",2002,1,2,78,"A 78","","",TRUE,"CV","p",1200,"cv","A",8,"v","v",TRUE,1,-0.315281549250637
1893,"CVOE_B",2002,1,2,79,"P 60","","",FALSE,"CV","q",731,"cv","P",0,"c","c",TRUE,1,-0.535801292496227
1894,"CVOE_B",2002,1,2,80,"E 43","","",FALSE,"CV","p",574,"cv","E",3,"v","v",TRUE,1,-0.609621334478226
1895,"CVOE_B",2002,1,2,81,"D 69","","",TRUE,"CV","q",645,"cv","D",9,"c","c",TRUE,1,-0.576237748613755
1896,"CVOE_B",2002,1,2,82,"H 11","","",TRUE,"CV","q",571,"cv","H",1,"c","c",TRUE,1,-0.611031908528837
1897,"CVOE_B",2002,1,2,83,"P 43","","",TRUE,"CV","q",581,"cv","P",3,"c","c",TRUE,1,-0.606329995026799
1898,"CVOE_B",2002,1,2,84,"O 67","","",FALSE,"CV","p",652,"cv","O",7,"v","v",TRUE,1,-0.572946409162328
1899,"CVOE_B",2002,1,2,85,"S 91","","",FALSE,"CV","q",735,"cv","S",1,"c","c",TRUE,1,-0.533920527095411
1900,"CVOE_B",2002,1,2,86,"J 68","","",TRUE,"CV","q",852,"cv","J",8,"c","c",TRUE,1,-0.478908139121565
1901,"CVOE_B",2002,1,2,87,"S 47","","",FALSE,"CV","q",538,"cv","S",7,"c","c",TRUE,1,-0.626548223085563
1902,"CVOE_B",2002,1,2,88,"I 81","","",TRUE,"CV","p",581,"cv","I",1,"v","v",TRUE,1,-0.606329995026799
1903,"CVOE_B",2002,1,2,89,"J 39","","",FALSE,"CV","q",614,"cv","J",9,"c","c",TRUE,1,-0.590813680470073
1904,"CVOE_B",2002,1,2,90,"A 11","","",TRUE,"CV","p",612,"cv","A",1,"v","v",TRUE,1,-0.591754063170481
1905,"CVOE_B",2002,1,2,91,"O 76","","",FALSE,"CV","p",1276,"cv","O",6,"v","v",TRUE,1,-0.279547006635147
1906,"CVOE_B",2002,1,2,92,"A 62","","",FALSE,"CV","p",841,"cv","A",2,"v","v",TRUE,1,-0.484080243973807
1907,"CVOE_B",2002,1,2,93,"O 27","","",TRUE,"CV","p",527,"cv","O",7,"v","v",TRUE,1,-0.631720327937805
1908,"CVOE_B",2002,1,2,94,"E 66","","",FALSE,"CV","p",573,"cv","E",6,"v","v",TRUE,1,-0.61009152582843
1909,"CVOE_B",2002,1,2,95,"J 62","","",TRUE,"CV","q",854,"cv","J",2,"c","c",TRUE,1,-0.477967756421157
1910,"CVOE_B",2002,1,2,96,"H 72","","",TRUE,"CV","q",1206,"cv","H",2,"c","c",TRUE,1,-0.312460401149414
1911,"CVOE_B",2002,1,2,97,"E 49","","",TRUE,"CV","p",1324,"cv","E",9,"v","v",TRUE,1,-0.256977821825364
1912,"CVOE_B",2002,1,2,98,"D 52","","",TRUE,"CV","q",895,"cv","D",2,"c","c",TRUE,1,-0.458689911062801
1913,"CVOE_B",2002,1,2,99,"H 62","","",TRUE,"CV","q",805,"cv","H",2,"c","c",TRUE,1,-0.501007132581144
1914,"CVOE_B",2002,1,2,100,"I 11","","",TRUE,"CV","p",620,"cv","I",1,"v","v",TRUE,1,-0.58799253236885
1915,"CVOE_B",2002,1,2,101,"A 98","","",FALSE,"CV","p",736,"cv","A",8,"v","v",TRUE,1,-0.533450335745208
1916,"CVOE_B",2002,1,2,102,"H 29","","",FALSE,"CV","q",735,"cv","H",9,"c","c",TRUE,1,-0.533920527095411
1917,"CVOE_B",2002,1,2,103,"E 83","","",TRUE,"CV","q",1009,"cv","E",3,"v","c",FALSE,0,-0.405088097139566
1918,"CVOE_B",2002,1,2,104,"D 43","","",FALSE,"CV","p",998,"cv","D",3,"c","v",FALSE,0,-0.410260201991808
1919,"CVOE_B",2002,1,2,105,"P 45","","",TRUE,"CV","q",2646,"cv","P",5,"c","c",TRUE,1,0.364615143144082
1920,"CVOE_B",2002,1,2,106,"J 17","","",TRUE,"CV","q",1315,"cv","J",7,"c","c",TRUE,1,-0.261209543977198
2257,"CVOE_C",1003,1,2,11,"A 71","","",FALSE,"CV","q",7567,"cv","A",1,"v","c",FALSE,0,2.67842677749706
2258,"CVOE_C",1003,1,2,12,"I 66","","",TRUE,"CV","p",3313,"cv","I",6,"v","v",TRUE,1,0.678232773730028
2259,"CVOE_C",1003,1,2,13,"S 30","","",FALSE,"CV","q",1991,"cv","S",0,"c","c",TRUE,1,0.0566398087605821
2260,"CVOE_C",1003,1,2,14,"D 20","","",FALSE,"CV","q",3828,"cv","D",0,"c","c",TRUE,1,0.920381319084993
2261,"CVOE_C",1003,1,2,15,"I 31","","",FALSE,"CV","p",1479,"cv","I",1,"v","v",TRUE,1,-0.184098162543772
2262,"CVOE_C",1003,1,2,16,"P 16","","",FALSE,"CV","q",1039,"cv","P",6,"c","c",TRUE,1,-0.390982356633451
2263,"CVOE_C",1003,1,2,17,"A 49","","",FALSE,"CV","p",1795,"cv","A",9,"v","v",TRUE,1,-0.035517695879366
2264,"CVOE_C",1003,1,2,18,"O 64","","",TRUE,"CV","p",724,"cv","O",4,"v","v",TRUE,1,-0.539092631947654
2265,"CVOE_C",1003,1,2,19,"D 02","","",FALSE,"CV","q",801,"cv","D",2,"c","c",TRUE,1,-0.50288789798196
2266,"CVOE_C",1003,1,2,20,"P 81","","",TRUE,"CV","q",1086,"cv","P",1,"c","c",TRUE,1,-0.368883363173872
2267,"CVOE_C",1003,1,2,21,"J 58","","",FALSE,"CV","q",813,"cv","J",8,"c","c",TRUE,1,-0.497245601779514
2268,"CVOE_C",1003,1,2,22,"A 22","","",TRUE,"CV","p",650,"cv","A",2,"v","v",TRUE,1,-0.573886791862736
2269,"CVOE_C",1003,1,2,23,"J 72","","",FALSE,"CV","q",1320,"cv","J",2,"c","c",TRUE,1,-0.258858587226179
2270,"CVOE_C",1003,1,2,24,"P 91","","",TRUE,"CV","q",1087,"cv","P",1,"c","c",TRUE,1,-0.368413171823668
2271,"CVOE_C",1003,1,2,25,"E 19","","",FALSE,"CV","p",657,"cv","E",9,"v","v",TRUE,1,-0.570595452411309
2272,"CVOE_C",1003,1,2,26,"I 30","","",TRUE,"CV","p",857,"cv","I",0,"v","v",TRUE,1,-0.476557182370546
2273,"CVOE_C",1003,1,2,27,"D 91","","",TRUE,"CV","q",857,"cv","D",1,"c","c",TRUE,1,-0.476557182370546
2274,"CVOE_C",1003,1,2,28,"O 48","","",TRUE,"CV","p",856,"cv","O",8,"v","v",TRUE,1,-0.47702737372075
2275,"CVOE_C",1003,1,2,29,"A 89","","",FALSE,"CV","p",2774,"cv","A",9,"v","v",TRUE,1,0.42479963597017
2276,"CVOE_C",1003,1,2,30,"U 11","","",FALSE,"CV","p",969,"cv","U",1,"v","v",TRUE,1,-0.423895751147718
2277,"CVOE_C",1003,1,2,31,"I 76","","",TRUE,"CV","p",1243,"cv","I",6,"v","v",TRUE,1,-0.295063321191873
2278,"CVOE_C",1003,1,2,32,"U 89","","",FALSE,"CV","p",1076,"cv","U",9,"v","v",TRUE,1,-0.37358527667591
2279,"CVOE_C",1003,1,2,33,"D 63","","",TRUE,"CV","q",959,"cv","D",3,"c","c",TRUE,1,-0.428597664649757
2280,"CVOE_C",1003,1,2,34,"H 70","","",FALSE,"CV","q",685,"cv","H",0,"c","c",TRUE,1,-0.557430094605602
2281,"CVOE_C",1003,1,2,35,"D 48","","",FALSE,"CV","q",618,"cv","D",8,"c","c",TRUE,1,-0.588932915069258
2282,"CVOE_C",1003,1,2,36,"P 56","","",FALSE,"CV","q",930,"cv","P",6,"c","c",TRUE,1,-0.442233213805667
2283,"CVOE_C",1003,1,2,37,"O 77","","",FALSE,"CV","p",1003,"cv","O",7,"v","v",TRUE,1,-0.407909245240789
2284,"CVOE_C",1003,1,2,38,"P 42","","",FALSE,"CV","q",1634,"cv","P",2,"c","c",TRUE,1,-0.11121850326218
2285,"CVOE_C",1003,1,2,39,"H 22","","",FALSE,"CV","q",813,"cv","H",2,"c","c",TRUE,1,-0.497245601779514
2286,"CVOE_C",1003,1,2,40,"E 42","","",TRUE,"CV","p",766,"cv","E",2,"v","v",TRUE,1,-0.519344595239093
2287,"CVOE_C",1003,1,2,41,"J 28","","",FALSE,"CV","q",849,"cv","J",8,"c","c",TRUE,1,-0.480318713172176
2288,"CVOE_C",1003,1,2,42,"E 95","","",FALSE,"CV","p",653,"cv","E",5,"v","v",TRUE,1,-0.572476217812125
2289,"CVOE_C",1003,1,2,43,"S 63","","",TRUE,"CV","q",932,"cv","S",3,"c","c",TRUE,1,-0.44129283110526
2290,"CVOE_C",1003,1,2,44,"H 50","","",FALSE,"CV","q",653,"cv","H",0,"c","c",TRUE,1,-0.572476217812125
2291,"CVOE_C",1003,1,2,45,"S 33","","",TRUE,"CV","q",501,"cv","S",3,"c","c",TRUE,1,-0.643945303043105
2292,"CVOE_C",1003,1,2,46,"P 57","","",TRUE,"CV","q",577,"cv","P",7,"c","c",TRUE,1,-0.608210760427615
2293,"CVOE_C",1003,1,2,47,"E 23","","",FALSE,"CV","p",688,"cv","E",3,"v","v",TRUE,1,-0.556019520554991
2294,"CVOE_C",1003,1,2,48,"S 61","","",TRUE,"CV","q",581,"cv","S",1,"c","c",TRUE,1,-0.606329995026799
2295,"CVOE_C",1003,1,2,49,"U 67","","",FALSE,"CV","p",848,"cv","U",7,"v","v",TRUE,1,-0.48078890452238
2296,"CVOE_C",1003,1,2,50,"H 32","","",FALSE,"CV","q",772,"cv","H",2,"c","c",TRUE,1,-0.51652344713787
2297,"CVOE_C",1003,1,2,51,"U 50","","",TRUE,"CV","p",699,"cv","U",0,"v","v",TRUE,1,-0.550847415702749
2298,"CVOE_C",1003,1,2,52,"O 49","","",FALSE,"CV","p",770,"cv","O",9,"v","v",TRUE,1,-0.517463829838278
2299,"CVOE_C",1003,1,2,53,"U 32","","",TRUE,"CV","p",853,"cv","U",2,"v","v",TRUE,1,-0.478437947771361
2300,"CVOE_C",1003,1,2,54,"J 78","","",FALSE,"CV","q",735,"cv","J",8,"c","c",TRUE,1,-0.533920527095411
2301,"CVOE_C",1003,1,2,55,"S 54","","",FALSE,"CV","q",1949,"cv","S",4,"c","c",TRUE,1,0.0368917720520218
2302,"CVOE_C",1003,1,2,56,"J 27","","",TRUE,"CV","q",688,"cv","J",7,"c","c",TRUE,1,-0.556019520554991
2303,"CVOE_C",1003,1,2,57,"S 06","","",FALSE,"CV","q",662,"cv","S",6,"c","c",TRUE,1,-0.56824449566029
2304,"CVOE_C",1003,1,2,58,"D 67","","",TRUE,"CV","q",963,"cv","D",7,"c","c",TRUE,1,-0.426716899248941
2305,"CVOE_C",1003,1,2,59,"A 79","","",FALSE,"CV","p",610,"cv","A",9,"v","v",TRUE,1,-0.592694445870889
2306,"CVOE_C",1003,1,2,60,"S 52","","",FALSE,"CV","q",648,"cv","S",2,"c","c",TRUE,1,-0.574827174563144
2307,"CVOE_C",1003,1,2,61,"U 16","","",TRUE,"CV","p",731,"cv","U",6,"v","v",TRUE,1,-0.535801292496227
2308,"CVOE_C",1003,1,2,62,"O 82","","",TRUE,"CV","p",730,"cv","O",2,"v","v",TRUE,1,-0.536271483846431
2309,"CVOE_C",1003,1,2,63,"H 87","","",TRUE,"CV","q",809,"cv","H",7,"c","c",TRUE,1,-0.499126367180329
2310,"CVOE_C",1003,1,2,64,"I 32","","",TRUE,"CV","q",1193,"cv","I",2,"v","c",FALSE,0,-0.318572888702064
2311,"CVOE_C",1003,1,2,65,"U 37","","",FALSE,"CV","p",920,"cv","U",7,"v","v",TRUE,1,-0.446935127307705
2312,"CVOE_C",1003,1,2,66,"I 42","","",TRUE,"CV","p",736,"cv","I",2,"v","v",TRUE,1,-0.533450335745208
2313,"CVOE_C",1003,1,2,67,"D 65","","",TRUE,"CV","q",1323,"cv","D",5,"c","c",TRUE,1,-0.257448013175567
2314,"CVOE_C",1003,1,2,68,"U 77","","",FALSE,"CV","p",1167,"cv","U",7,"v","v",TRUE,1,-0.330797863807363
2315,"CVOE_C",1003,1,2,69,"E 12","","",TRUE,"CV","p",811,"cv","E",2,"v","v",TRUE,1,-0.498185984479921
2316,"CVOE_C",1003,1,2,70,"I 60","","",TRUE,"CV","p",687,"cv","I",0,"v","v",TRUE,1,-0.556489711905195
2317,"CVOE_C",1003,1,2,71,"J 36","","",FALSE,"CV","q",698,"cv","J",6,"c","c",TRUE,1,-0.551317607052953
2318,"CVOE_C",1003,1,2,72,"H 75","","",TRUE,"CV","q",1121,"cv","H",5,"c","c",TRUE,1,-0.352426665916738
2319,"CVOE_C",1003,1,2,73,"I 50","","",TRUE,"CV","p",619,"cv","I",0,"v","v",TRUE,1,-0.588462723719054
2320,"CVOE_C",1003,1,2,74,"E 99","","",FALSE,"CV","p",635,"cv","E",9,"v","v",TRUE,1,-0.580939662115793
2321,"CVOE_C",1003,1,2,75,"A 86","","",TRUE,"CV","q",1205,"cv","A",6,"v","c",FALSE,0,-0.312930592499618
2322,"CVOE_C",1003,1,2,76,"U 48","","",TRUE,"CV","p",1832,"cv","U",8,"v","v",TRUE,1,-0.0181206159218248
2323,"CVOE_C",1003,1,2,77,"E 01","","",FALSE,"CV","p",902,"cv","E",1,"v","v",TRUE,1,-0.455398571611374
2324,"CVOE_C",1003,1,2,78,"A 78","","",TRUE,"CV","p",2026,"cv","A",8,"v","v",TRUE,1,0.0730965060177156
2325,"CVOE_C",1003,1,2,79,"P 60","","",FALSE,"CV","q",1247,"cv","P",0,"c","c",TRUE,1,-0.293182555791057
2326,"CVOE_C",1003,1,2,80,"E 43","","",FALSE,"CV","p",1511,"cv","E",3,"v","v",TRUE,1,-0.16905203933725
2327,"CVOE_C",1003,1,2,81,"D 69","","",TRUE,"CV","q",959,"cv","D",9,"c","c",TRUE,1,-0.428597664649757
2328,"CVOE_C",1003,1,2,82,"H 11","","",TRUE,"CV","q",686,"cv","H",1,"c","c",TRUE,1,-0.556959903255399
2329,"CVOE_C",1003,1,2,83,"P 43","","",TRUE,"CV","q",1126,"cv","P",3,"c","c",TRUE,1,-0.350075709165719
2330,"CVOE_C",1003,1,2,84,"O 67","","",FALSE,"CV","p",646,"cv","O",7,"v","v",TRUE,1,-0.575767557263551
2331,"CVOE_C",1003,1,2,85,"S 91","","",FALSE,"CV","q",729,"cv","S",1,"c","c",TRUE,1,-0.536741675196634
2332,"CVOE_C",1003,1,2,86,"J 68","","",TRUE,"CV","q",1394,"cv","J",8,"c","c",TRUE,1,-0.224064427311096
2333,"CVOE_C",1003,1,2,87,"S 47","","",FALSE,"CV","q",646,"cv","S",7,"c","c",TRUE,1,-0.575767557263551
2334,"CVOE_C",1003,1,2,88,"I 81","","",TRUE,"CV","q",533,"cv","I",1,"v","c",FALSE,0,-0.628899179836583
2335,"CVOE_C",1003,1,2,89,"J 39","","",FALSE,"CV","q",970,"cv","J",9,"c","c",TRUE,1,-0.423425559797515
2336,"CVOE_C",1003,1,2,90,"A 11","","",TRUE,"CV","p",891,"cv","A",1,"v","v",TRUE,1,-0.460570676463616
2337,"CVOE_C",1003,1,2,91,"O 76","","",FALSE,"CV","p",584,"cv","O",6,"v","v",TRUE,1,-0.604919420976188
2338,"CVOE_C",1003,1,2,92,"A 62","","",FALSE,"CV","p",1439,"cv","A",2,"v","v",TRUE,1,-0.202905816551925
2339,"CVOE_C",1003,1,2,93,"O 27","","",TRUE,"CV","p",579,"cv","O",7,"v","v",TRUE,1,-0.607270377727207
2340,"CVOE_C",1003,1,2,94,"E 66","","",FALSE,"CV","p",612,"cv","E",6,"v","v",TRUE,1,-0.591754063170481
2341,"CVOE_C",1003,1,2,95,"J 62","","",TRUE,"CV","q",611,"cv","J",2,"c","c",TRUE,1,-0.592224254520685
2342,"CVOE_C",1003,1,2,96,"H 72","","",TRUE,"CV","q",844,"cv","H",2,"c","c",TRUE,1,-0.482669669923196
2343,"CVOE_C",1003,1,2,97,"E 49","","",TRUE,"CV","p",649,"cv","E",9,"v","v",TRUE,1,-0.57435698321294
2344,"CVOE_C",1003,1,2,98,"D 52","","",TRUE,"CV","q",731,"cv","D",2,"c","c",TRUE,1,-0.535801292496227
2345,"CVOE_C",1003,1,2,99,"H 62","","",TRUE,"CV","q",1712,"cv","H",2,"c","c",TRUE,1,-0.0745435779462828
2346,"CVOE_C",1003,1,2,100,"I 11","","",TRUE,"CV","p",568,"cv","I",1,"v","v",TRUE,1,-0.612442482579449
2347,"CVOE_C",1003,1,2,101,"A 98","","",FALSE,"CV","q",617,"cv","A",8,"v","c",FALSE,0,-0.589403106419462
2348,"CVOE_C",1003,1,2,102,"H 29","","",FALSE,"CV","q",1986,"cv","H",9,"c","c",TRUE,1,0.054288852009563
2349,"CVOE_C",1003,1,2,103,"E 83","","",TRUE,"CV","p",1006,"cv","E",3,"v","v",TRUE,1,-0.406498671190177
2350,"CVOE_C",1003,1,2,104,"D 43","","",FALSE,"CV","q",620,"cv","D",3,"c","c",TRUE,1,-0.58799253236885
2351,"CVOE_C",1003,1,2,105,"P 45","","",TRUE,"CV","q",1207,"cv","P",5,"c","c",TRUE,1,-0.31199020979921
2352,"CVOE_C",1003,1,2,106,"J 17","","",TRUE,"CV","q",816,"cv","J",7,"c","c",TRUE,1,-0.495835027728902
2593,"CVOE updated",1009,1,1,11,"A 71","","",FALSE,"CV","p",5184,"cv","A",1,"v","v",TRUE,1,1.55796078996137
2594,"CVOE updated",1009,1,1,12,"I 66","","",TRUE,"CV","p",1673,"cv","I",6,"v","v",TRUE,1,-0.0928810406042316
2595,"CVOE updated",1009,1,1,13,"S 30","","",FALSE,"CV","q",1752,"cv","S",0,"c","c",TRUE,1,-0.0557359239381301
2596,"CVOE updated",1009,1,1,14,"D 20","","",FALSE,"CV","q",3618,"cv","D",0,"c","c",TRUE,1,0.821641135542192
2597,"CVOE updated",1009,1,1,15,"I 31","","",FALSE,"CV","p",2675,"cv","I",1,"v","v",TRUE,1,0.378250692299993
2598,"CVOE updated",1009,1,1,16,"P 16","","",FALSE,"CV","q",1694,"cv","P",6,"c","c",TRUE,1,-0.0830070222499515
2599,"CVOE updated",1009,1,1,17,"A 49","","",FALSE,"CV","p",2006,"cv","A",9,"v","v",TRUE,1,0.0636926790136393
2600,"CVOE updated",1009,1,1,18,"O 64","","",TRUE,"CV","p",1859,"cv","O",4,"v","v",TRUE,1,-0.00542544946632173
2601,"CVOE updated",1009,1,1,19,"D 02","","",FALSE,"CV","q",2697,"cv","D",2,"c","c",TRUE,1,0.388594902004477
2602,"CVOE updated",1009,1,1,20,"P 81","","",TRUE,"CV","q",2068,"cv","P",1,"c","c",TRUE,1,0.0928445427262759
2603,"CVOE updated",1009,1,1,21,"J 58","","",FALSE,"CV","q",2107,"cv","J",8,"c","c",TRUE,1,0.111182005384225
2604,"CVOE updated",1009,1,1,22,"A 22","","",TRUE,"CV","p",2681,"cv","A",2,"v","v",TRUE,1,0.381071840401216
2605,"CVOE updated",1009,1,1,23,"J 72","","",FALSE,"CV","q",1745,"cv","J",2,"c","c",TRUE,1,-0.0590272633895568
2606,"CVOE updated",1009,1,1,24,"P 91","","",TRUE,"CV","q",1807,"cv","P",1,"c","c",TRUE,1,-0.0298753996769202
2607,"CVOE updated",1009,1,1,25,"E 19","","",FALSE,"CV","p",2815,"cv","E",9,"v","v",TRUE,1,0.444077481328527
2608,"CVOE updated",1009,1,1,26,"I 30","","",TRUE,"CV","p",1552,"cv","I",0,"v","v",TRUE,1,-0.149774193978893
2609,"CVOE updated",1009,1,1,27,"D 91","","",TRUE,"CV","q",1721,"cv","D",1,"c","c",TRUE,1,-0.0703118557944484
2610,"CVOE updated",1009,1,1,28,"O 48","","",TRUE,"CV","p",3037,"cv","O",8,"v","v",TRUE,1,0.548459961073774
2611,"CVOE updated",1009,1,1,29,"A 89","","",FALSE,"CV","p",1471,"cv","A",9,"v","v",TRUE,1,-0.187859693345403
2612,"CVOE updated",1009,1,1,30,"U 11","","",FALSE,"CV","p",1771,"cv","U",1,"v","v",TRUE,1,-0.0468022882842576
2613,"CVOE updated",1009,1,1,31,"I 76","","",TRUE,"CV","p",1617,"cv","I",6,"v","v",TRUE,1,-0.119211756215645
2614,"CVOE updated",1009,1,1,32,"U 89","","",FALSE,"CV","p",1681,"cv","U",9,"v","v",TRUE,1,-0.0891195098026011
2615,"CVOE updated",1009,1,1,33,"D 63","","",TRUE,"CV","q",1772,"cv","D",3,"c","c",TRUE,1,-0.0463320969340538
2616,"CVOE updated",1009,1,1,34,"H 70","","",FALSE,"CV","q",1838,"cv","H",0,"c","c",TRUE,1,-0.0152994678206019
2617,"CVOE updated",1009,1,1,35,"D 48","","",FALSE,"CV","q",1785,"cv","D",8,"c","c",TRUE,1,-0.0402196093814042
2618,"CVOE updated",1009,1,1,36,"P 56","","",FALSE,"CV","q",1748,"cv","P",6,"c","c",TRUE,1,-0.0576166893389454
2619,"CVOE updated",1009,1,1,37,"O 77","","",FALSE,"CV","p",1928,"cv","O",7,"v","v",TRUE,1,0.0270177536977416
2620,"CVOE updated",1009,1,1,38,"P 42","","",FALSE,"CV","q",1691,"cv","P",2,"c","c",TRUE,1,-0.0844175963005629
2621,"CVOE updated",1009,1,1,39,"H 22","","",FALSE,"CV","q",1403,"cv","H",2,"c","c",TRUE,1,-0.219832705159262
2622,"CVOE updated",1009,1,1,40,"E 42","","",TRUE,"CV","p",1928,"cv","E",2,"v","v",TRUE,1,0.0270177536977416
2623,"CVOE updated",1009,1,1,41,"J 28","","",FALSE,"CV","q",1553,"cv","J",8,"c","c",TRUE,1,-0.14930400262869
2624,"CVOE updated",1009,1,1,42,"E 95","","",FALSE,"CV","p",1905,"cv","E",5,"v","v",TRUE,1,0.0162033526430538
2625,"CVOE updated",1009,1,1,43,"S 63","","",TRUE,"CV","q",2372,"cv","S",3,"c","c",TRUE,1,0.235782713188236
2626,"CVOE updated",1009,1,1,44,"H 50","","",FALSE,"CV","q",1785,"cv","H",0,"c","c",TRUE,1,-0.0402196093814042
2627,"CVOE updated",1009,1,1,45,"S 33","","",TRUE,"CV","q",1769,"cv","S",3,"c","c",TRUE,1,-0.0477426709846652
2628,"CVOE updated",1009,1,1,46,"P 57","","",TRUE,"CV","q",1669,"cv","P",7,"c","c",TRUE,1,-0.0947618060050469
2629,"CVOE updated",1009,1,1,47,"E 23","","",FALSE,"CV","p",2986,"cv","E",3,"v","v",TRUE,1,0.52448020221338
2630,"CVOE updated",1009,1,1,48,"S 61","","",TRUE,"CV","q",1508,"cv","S",1,"c","c",TRUE,1,-0.170462613387861
2631,"CVOE updated",1009,1,1,49,"U 67","","",FALSE,"CV","p",2028,"cv","U",7,"v","v",TRUE,1,0.0740368887181233
2632,"CVOE updated",1009,1,1,50,"H 32","","",FALSE,"CV","q",1544,"cv","H",2,"c","c",TRUE,1,-0.153535724780524
2633,"CVOE updated",1009,1,1,51,"U 50","","",TRUE,"CV","p",2143,"cv","U",0,"v","v",TRUE,1,0.128108893991562
2634,"CVOE updated",1009,1,1,52,"O 49","","",FALSE,"CV","p",1643,"cv","O",9,"v","v",TRUE,1,-0.106986781110346
2635,"CVOE updated",1009,1,1,53,"U 32","","",TRUE,"CV","p",1303,"cv","U",2,"v","v",TRUE,1,-0.266851840179644
2636,"CVOE updated",1009,1,1,54,"J 78","","",FALSE,"CV","q",1521,"cv","J",8,"c","c",TRUE,1,-0.164350125835212
2637,"CVOE updated",1009,1,1,55,"S 54","","",FALSE,"CV","q",1678,"cv","S",4,"c","c",TRUE,1,-0.0905300838532125
2638,"CVOE updated",1009,1,1,56,"J 27","","",TRUE,"CV","q",1401,"cv","J",7,"c","c",TRUE,1,-0.22077308785967
2639,"CVOE updated",1009,1,1,57,"S 06","","",FALSE,"CV","q",1630,"cv","S",6,"c","c",TRUE,1,-0.113099268662996
2640,"CVOE updated",1009,1,1,58,"D 67","","",TRUE,"CV","q",1794,"cv","D",7,"c","c",TRUE,1,-0.0359878872295698
2641,"CVOE updated",1009,1,1,59,"A 79","","",FALSE,"CV","p",2322,"cv","A",9,"v","v",TRUE,1,0.212273145678045
2642,"CVOE updated",1009,1,1,60,"S 52","","",FALSE,"CV","q",3120,"cv","S",2,"c","c",TRUE,1,0.587485843140691
2643,"CVOE updated",1009,1,1,61,"U 16","","",TRUE,"CV","p",2412,"cv","U",6,"v","v",TRUE,1,0.254590367196389
2644,"CVOE updated",1009,1,1,62,"O 82","","",TRUE,"CV","p",1818,"cv","O",2,"v","v",TRUE,1,-0.0247032948246782
2645,"CVOE updated",1009,1,1,63,"H 87","","",TRUE,"CV","q",1485,"cv","H",7,"c","c",TRUE,1,-0.181277014442549
2646,"CVOE updated",1009,1,1,64,"I 32","","",TRUE,"CV","p",1682,"cv","I",2,"v","v",TRUE,1,-0.0886493184523973
2647,"CVOE updated",1009,1,1,65,"U 37","","",FALSE,"CV","p",1235,"cv","U",7,"v","v",TRUE,1,-0.298824851993503
2648,"CVOE updated",1009,1,1,66,"I 42","","",TRUE,"CV","p",1245,"cv","I",2,"v","v",TRUE,1,-0.294122938491465
2649,"CVOE updated",1009,1,1,67,"D 65","","",TRUE,"CV","q",1536,"cv","D",5,"c","c",TRUE,1,-0.157297255582154
2650,"CVOE updated",1009,1,1,68,"U 77","","",FALSE,"CV","p",1839,"cv","U",7,"v","v",TRUE,1,-0.0148292764703981
2651,"CVOE updated",1009,1,1,69,"E 12","","",TRUE,"CV","p",981,"cv","E",2,"v","v",TRUE,1,-0.418253454945273
2652,"CVOE updated",1009,1,1,70,"I 60","","",TRUE,"CV","p",1152,"cv","I",0,"v","v",TRUE,1,-0.33785073406042
2653,"CVOE updated",1009,1,1,71,"J 36","","",FALSE,"CV","q",1496,"cv","J",6,"c","c",TRUE,1,-0.176104909590307
2654,"CVOE updated",1009,1,1,72,"H 75","","",TRUE,"CV","q",1657,"cv","H",5,"c","c",TRUE,1,-0.100404102207493
2655,"CVOE updated",1009,1,1,73,"I 50","","",TRUE,"CV","p",1517,"cv","I",0,"v","v",TRUE,1,-0.166230891236027
2656,"CVOE updated",1009,1,1,74,"E 99","","",FALSE,"CV","p",1154,"cv","E",9,"v","v",TRUE,1,-0.336910351360012
2657,"CVOE updated",1009,1,1,75,"A 86","","",TRUE,"CV","p",1045,"cv","A",6,"v","v",TRUE,1,-0.388161208532228
2658,"CVOE updated",1009,1,1,76,"U 48","","",TRUE,"CV","p",1069,"cv","U",8,"v","v",TRUE,1,-0.376876616127337
2659,"CVOE updated",1009,1,1,77,"E 01","","",FALSE,"CV","p",1204,"cv","E",1,"v","v",TRUE,1,-0.313400783849822
2660,"CVOE updated",1009,1,1,78,"A 78","","",TRUE,"CV","p",1239,"cv","A",8,"v","v",TRUE,1,-0.296944086592688
2661,"CVOE updated",1009,1,1,79,"P 60","","",FALSE,"CV","q",1616,"cv","P",0,"c","c",TRUE,1,-0.119681947565849
2662,"CVOE updated",1009,1,1,80,"E 43","","",FALSE,"CV","p",2533,"cv","E",3,"v","v",TRUE,1,0.311483520571051
2663,"CVOE updated",1009,1,1,81,"D 69","","",TRUE,"CV","q",1498,"cv","D",9,"c","c",TRUE,1,-0.1751645268899
2664,"CVOE updated",1009,1,1,82,"H 11","","",TRUE,"CV","q",1287,"cv","H",1,"c","c",TRUE,1,-0.274374901782905
2665,"CVOE updated",1009,1,1,83,"P 43","","",TRUE,"CV","q",1154,"cv","P",3,"c","c",TRUE,1,-0.336910351360012
2666,"CVOE updated",1009,1,1,84,"O 67","","",FALSE,"CV","p",1994,"cv","O",7,"v","v",TRUE,1,0.0580503828111935
2667,"CVOE updated",1009,1,1,85,"S 91","","",FALSE,"CV","q",1569,"cv","S",1,"c","c",TRUE,1,-0.141780941025429
2668,"CVOE updated",1009,1,1,86,"J 68","","",TRUE,"CV","q",1500,"cv","J",8,"c","c",TRUE,1,-0.174224144189492
2669,"CVOE updated",1009,1,1,87,"S 47","","",FALSE,"CV","q",1616,"cv","S",7,"c","c",TRUE,1,-0.119681947565849
2670,"CVOE updated",1009,1,1,88,"I 81","","",TRUE,"CV","p",1863,"cv","I",1,"v","v",TRUE,1,-0.00354468406550646
2671,"CVOE updated",1009,1,1,89,"J 39","","",FALSE,"CV","q",1793,"cv","J",9,"c","c",TRUE,1,-0.0364580785797736
2672,"CVOE updated",1009,1,1,90,"A 11","","",TRUE,"CV","p",1906,"cv","A",1,"v","v",TRUE,1,0.0166735439932577
2673,"CVOE updated",1009,1,1,91,"O 76","","",FALSE,"CV","p",1399,"cv","O",6,"v","v",TRUE,1,-0.221713470560077
2674,"CVOE updated",1009,1,1,92,"A 62","","",FALSE,"CV","p",1398,"cv","A",2,"v","v",TRUE,1,-0.222183661910281
2675,"CVOE updated",1009,1,1,93,"O 27","","",TRUE,"CV","p",1319,"cv","O",7,"v","v",TRUE,1,-0.259328778576383
2676,"CVOE updated",1009,1,1,94,"E 66","","",FALSE,"CV","p",1192,"cv","E",6,"v","v",TRUE,1,-0.319043080052267
2677,"CVOE updated",1009,1,1,95,"J 62","","",TRUE,"CV","q",1511,"cv","J",2,"c","c",TRUE,1,-0.16905203933725
2678,"CVOE updated",1009,1,1,96,"H 72","","",TRUE,"CV","q",1245,"cv","H",2,"c","c",TRUE,1,-0.294122938491465
2679,"CVOE updated",1009,1,1,97,"E 49","","",TRUE,"CV","p",1944,"cv","E",9,"v","v",TRUE,1,0.0345408153010027
2680,"CVOE updated",1009,1,1,98,"D 52","","",TRUE,"CV","q",1773,"cv","D",2,"c","c",TRUE,1,-0.0458619055838499
2681,"CVOE updated",1009,1,1,99,"H 62","","",TRUE,"CV","q",1286,"cv","H",2,"c","c",TRUE,1,-0.274845093133109
2682,"CVOE updated",1009,1,1,100,"I 11","","",TRUE,"CV","p",1689,"cv","I",1,"v","v",TRUE,1,-0.0853579790009705
2683,"CVOE updated",1009,1,1,101,"A 98","","",FALSE,"CV","p",1092,"cv","A",8,"v","v",TRUE,1,-0.366062215072649
2684,"CVOE updated",1009,1,1,102,"H 29","","",FALSE,"CV","q",1536,"cv","H",9,"c","c",TRUE,1,-0.157297255582154
2685,"CVOE updated",1009,1,1,103,"E 83","","",TRUE,"CV","p",1475,"cv","E",3,"v","v",TRUE,1,-0.185978927944587
2686,"CVOE updated",1009,1,1,104,"D 43","","",FALSE,"CV","q",1447,"cv","D",3,"c","c",TRUE,1,-0.199144285750294
2687,"CVOE updated",1009,1,1,105,"P 45","","",TRUE,"CV","q",1377,"cv","P",5,"c","c",TRUE,1,-0.232057680264561
2688,"CVOE updated",1009,1,1,106,"J 17","","",TRUE,"CV","q",1174,"cv","J",7,"c","c",TRUE,1,-0.327506524355936
3025,"CVOE updated",1013,1,1,11,"A 71","","",FALSE,"CV","q",1358,"cv","A",1,"v","c",FALSE,0,-0.240991315918434
3026,"CVOE updated",1013,1,1,12,"I 66","","",TRUE,"CV","q",1056,"cv","I",6,"v","c",FALSE,0,-0.382989103679986
3027,"CVOE updated",1013,1,1,13,"S 30","","",FALSE,"CV","p",1960,"cv","S",0,"c","v",FALSE,0,0.0420638769042637
3028,"CVOE updated",1013,1,1,14,"D 20","","",FALSE,"CV","p",1382,"cv","D",0,"c","v",FALSE,0,-0.229706723513542
3029,"CVOE updated",1013,1,1,15,"I 31","","",FALSE,"CV","q",1088,"cv","I",1,"v","c",FALSE,0,-0.367942980473464
3030,"CVOE updated",1013,1,1,16,"P 16","","",FALSE,"CV","p",777,"cv","P",6,"c","v",FALSE,0,-0.514172490386851
3031,"CVOE updated",1013,1,1,17,"A 49","","",FALSE,"CV","q",573,"cv","A",9,"v","c",FALSE,0,-0.61009152582843
3032,"CVOE updated",1013,1,1,18,"O 64","","",TRUE,"CV","q",1114,"cv","O",4,"v","c",FALSE,0,-0.355718005368165
3033,"CVOE updated",1013,1,1,19,"D 02","","",FALSE,"CV","p",785,"cv","D",2,"c","v",FALSE,0,-0.510410959585221
3034,"CVOE updated",1013,1,1,20,"P 81","","",TRUE,"CV","p",1114,"cv","P",1,"c","v",FALSE,0,-0.355718005368165
3035,"CVOE updated",1013,1,1,21,"J 58","","",FALSE,"CV","p",629,"cv","J",8,"c","v",FALSE,0,-0.583760810217016
3036,"CVOE updated",1013,1,1,22,"A 22","","",TRUE,"CV","q",493,"cv","A",2,"v","c",FALSE,0,-0.647706833844735
3037,"CVOE updated",1013,1,1,23,"J 72","","",FALSE,"CV","p",733,"cv","J",2,"c","v",FALSE,0,-0.534860909795819
3038,"CVOE updated",1013,1,1,24,"P 91","","",TRUE,"CV","p",789,"cv","P",1,"c","v",FALSE,0,-0.508530194184405
3039,"CVOE updated",1013,1,1,25,"E 19","","",FALSE,"CV","q",735,"cv","E",9,"v","c",FALSE,0,-0.533920527095411
3040,"CVOE updated",1013,1,1,26,"I 30","","",TRUE,"CV","q",783,"cv","I",0,"v","c",FALSE,0,-0.511351342285628
3041,"CVOE updated",1013,1,1,27,"D 91","","",TRUE,"CV","p",732,"cv","D",1,"c","v",FALSE,0,-0.535331101146023
3042,"CVOE updated",1013,1,1,28,"O 48","","",TRUE,"CV","q",882,"cv","O",8,"v","c",FALSE,0,-0.464802398615451
3043,"CVOE updated",1013,1,1,29,"A 89","","",FALSE,"CV","q",672,"cv","A",9,"v","c",FALSE,0,-0.563542582158252
3044,"CVOE updated",1013,1,1,30,"U 11","","",FALSE,"CV","q",1017,"cv","U",1,"v","c",FALSE,0,-0.401326566337935
3045,"CVOE updated",1013,1,1,31,"I 76","","",TRUE,"CV","q",1934,"cv","I",6,"v","c",FALSE,0,0.0298389017989645
3046,"CVOE updated",1013,1,1,32,"U 89","","",FALSE,"CV","p",778,"cv","U",9,"v","v",TRUE,1,-0.513702299036647
3047,"CVOE updated",1013,1,1,33,"D 63","","",TRUE,"CV","p",2430,"cv","D",3,"c","v",FALSE,0,0.263053811500058
3048,"CVOE updated",1013,1,1,34,"H 70","","",FALSE,"CV","p",2537,"cv","H",0,"c","v",FALSE,0,0.313364285971866
3049,"CVOE updated",1013,1,1,35,"D 48","","",FALSE,"CV","p",739,"cv","D",8,"c","v",FALSE,0,-0.532039761694596
3050,"CVOE updated",1013,1,1,36,"P 56","","",FALSE,"CV","p",977,"cv","P",6,"c","v",FALSE,0,-0.420134220346088
3051,"CVOE updated",1013,1,1,37,"O 77","","",FALSE,"CV","q",729,"cv","O",7,"v","c",FALSE,0,-0.536741675196634
3052,"CVOE updated",1013,1,1,38,"P 42","","",FALSE,"CV","p",877,"cv","P",2,"c","v",FALSE,0,-0.46715335536647
3053,"CVOE updated",1013,1,1,39,"H 22","","",FALSE,"CV","p",736,"cv","H",2,"c","v",FALSE,0,-0.533450335745208
3054,"CVOE updated",1013,1,1,40,"E 42","","",TRUE,"CV","q",2277,"cv","E",2,"v","c",FALSE,0,0.191114534918874
3055,"CVOE updated",1013,1,1,41,"J 28","","",FALSE,"CV","p",836,"cv","J",8,"c","v",FALSE,0,-0.486431200724826
3056,"CVOE updated",1013,1,1,42,"E 95","","",FALSE,"CV","q",683,"cv","E",5,"v","c",FALSE,0,-0.55837047730601
3057,"CVOE updated",1013,1,1,43,"S 63","","",TRUE,"CV","p",728,"cv","S",3,"c","v",FALSE,0,-0.537211866546838
3058,"CVOE updated",1013,1,1,44,"H 50","","",FALSE,"CV","p",1008,"cv","H",0,"c","v",FALSE,0,-0.40555828848977
3059,"CVOE updated",1013,1,1,45,"S 33","","",TRUE,"CV","p",690,"cv","S",3,"c","v",FALSE,0,-0.555079137854583
3060,"CVOE updated",1013,1,1,46,"P 57","","",TRUE,"CV","p",1003,"cv","P",7,"c","v",FALSE,0,-0.407909245240789
3061,"CVOE updated",1013,1,1,47,"E 23","","",FALSE,"CV","q",708,"cv","E",3,"v","c",FALSE,0,-0.546615693550915
3062,"CVOE updated",1013,1,1,48,"S 61","","",TRUE,"CV","p",889,"cv","S",1,"c","v",FALSE,0,-0.461511059164024
3063,"CVOE updated",1013,1,1,49,"U 67","","",FALSE,"CV","q",2346,"cv","U",7,"v","c",FALSE,0,0.223557738082937
3064,"CVOE updated",1013,1,1,50,"H 32","","",FALSE,"CV","p",650,"cv","H",2,"c","v",FALSE,0,-0.573886791862736
3065,"CVOE updated",1013,1,1,51,"U 50","","",TRUE,"CV","q",919,"cv","U",0,"v","c",FALSE,0,-0.447405318657909
3066,"CVOE updated",1013,1,1,52,"O 49","","",FALSE,"CV","q",1195,"cv","O",9,"v","c",FALSE,0,-0.317632506001656
3067,"CVOE updated",1013,1,1,53,"U 32","","",TRUE,"CV","q",1870,"cv","U",2,"v","c",FALSE,0,-0.000253344614079746
3068,"CVOE updated",1013,1,1,54,"J 78","","",FALSE,"CV","p",659,"cv","J",8,"c","v",FALSE,0,-0.569655069710902
3069,"CVOE updated",1013,1,1,55,"S 54","","",FALSE,"CV","p",770,"cv","S",4,"c","v",FALSE,0,-0.517463829838278
3070,"CVOE updated",1013,1,1,56,"J 27","","",TRUE,"CV","p",641,"cv","J",7,"c","v",FALSE,0,-0.57811851401457
3071,"CVOE updated",1013,1,1,57,"S 06","","",FALSE,"CV","p",945,"cv","S",6,"c","v",FALSE,0,-0.43518034355261
3072,"CVOE updated",1013,1,1,58,"D 67","","",TRUE,"CV","p",919,"cv","D",7,"c","v",FALSE,0,-0.447405318657909
3073,"CVOE updated",1013,1,1,59,"A 79","","",FALSE,"CV","q",584,"cv","A",9,"v","c",FALSE,0,-0.604919420976188
3074,"CVOE updated",1013,1,1,60,"S 52","","",FALSE,"CV","p",858,"cv","S",2,"c","v",FALSE,0,-0.476086991020342
3075,"CVOE updated",1013,1,1,61,"U 16","","",TRUE,"CV","q",838,"cv","U",6,"v","c",FALSE,0,-0.485490818024418
3076,"CVOE updated",1013,1,1,62,"O 82","","",TRUE,"CV","q",684,"cv","O",2,"v","c",FALSE,0,-0.557900285955806
3077,"CVOE updated",1013,1,1,63,"H 87","","",TRUE,"CV","p",631,"cv","H",7,"c","v",FALSE,0,-0.582820427516608
3078,"CVOE updated",1013,1,1,64,"I 32","","",TRUE,"CV","q",596,"cv","I",2,"v","c",FALSE,0,-0.599277124773742
3079,"CVOE updated",1013,1,1,65,"U 37","","",FALSE,"CV","q",1340,"cv","U",7,"v","c",FALSE,0,-0.249454760222103
3080,"CVOE updated",1013,1,1,66,"I 42","","",TRUE,"CV","q",623,"cv","I",2,"v","c",FALSE,0,-0.586581958318239
3081,"CVOE updated",1013,1,1,67,"D 65","","",TRUE,"CV","p",640,"cv","D",5,"c","v",FALSE,0,-0.578588705364774
3082,"CVOE updated",1013,1,1,68,"U 77","","",FALSE,"CV","q",711,"cv","U",7,"v","c",FALSE,0,-0.545205119500303
3083,"CVOE updated",1013,1,1,69,"E 12","","",TRUE,"CV","q",1073,"cv","E",2,"v","c",FALSE,0,-0.374995850726522
3084,"CVOE updated",1013,1,1,70,"I 60","","",TRUE,"CV","q",1909,"cv","I",0,"v","c",FALSE,0,0.0180841180438691
3085,"CVOE updated",1013,1,1,71,"J 36","","",FALSE,"CV","p",847,"cv","J",6,"c","v",FALSE,0,-0.481259095872584
3086,"CVOE updated",1013,1,1,72,"H 75","","",TRUE,"CV","p",771,"cv","H",5,"c","v",FALSE,0,-0.516993638488074
3087,"CVOE updated",1013,1,1,73,"I 50","","",TRUE,"CV","q",658,"cv","I",0,"v","c",FALSE,0,-0.570125261061105
3088,"CVOE updated",1013,1,1,74,"E 99","","",FALSE,"CV","q",724,"cv","E",9,"v","c",FALSE,0,-0.539092631947654
3089,"CVOE updated",1013,1,1,75,"A 86","","",TRUE,"CV","q",645,"cv","A",6,"v","c",FALSE,0,-0.576237748613755
3090,"CVOE updated",1013,1,1,76,"U 48","","",TRUE,"CV","q",844,"cv","U",8,"v","c",FALSE,0,-0.482669669923196
3091,"CVOE updated",1013,1,1,77,"E 01","","",FALSE,"CV","q",527,"cv","E",1,"v","c",FALSE,0,-0.631720327937805
3092,"CVOE updated",1013,1,1,78,"A 78","","",TRUE,"CV","q",573,"cv","A",8,"v","c",FALSE,0,-0.61009152582843
3093,"CVOE updated",1013,1,1,79,"P 60","","",FALSE,"CV","p",576,"cv","P",0,"c","v",FALSE,0,-0.608680951777818
3094,"CVOE updated",1013,1,1,80,"E 43","","",FALSE,"CV","q",681,"cv","E",3,"v","c",FALSE,0,-0.559310860006418
3095,"CVOE updated",1013,1,1,81,"D 69","","",TRUE,"CV","p",682,"cv","D",9,"c","v",FALSE,0,-0.558840668656214
3096,"CVOE updated",1013,1,1,82,"H 11","","",TRUE,"CV","p",666,"cv","H",1,"c","v",FALSE,0,-0.566363730259475
3097,"CVOE updated",1013,1,1,83,"P 43","","",TRUE,"CV","p",696,"cv","P",3,"c","v",FALSE,0,-0.55225798975336
3098,"CVOE updated",1013,1,1,84,"O 67","","",FALSE,"CV","p",556,"cv","O",7,"v","v",TRUE,1,-0.618084778781895
3099,"CVOE updated",1013,1,1,85,"S 91","","",FALSE,"CV","p",3263,"cv","S",1,"c","v",FALSE,0,0.654723206219837
3100,"CVOE updated",1013,1,1,86,"J 68","","",TRUE,"CV","p",739,"cv","J",8,"c","v",FALSE,0,-0.532039761694596
3101,"CVOE updated",1013,1,1,87,"S 47","","",FALSE,"CV","p",762,"cv","S",7,"c","v",FALSE,0,-0.521225360639909
3102,"CVOE updated",1013,1,1,88,"I 81","","",TRUE,"CV","q",651,"cv","I",1,"v","c",FALSE,0,-0.573416600512532
3103,"CVOE updated",1013,1,1,89,"J 39","","",FALSE,"CV","p",590,"cv","J",9,"c","v",FALSE,0,-0.602098272874965
3104,"CVOE updated",1013,1,1,90,"A 11","","",TRUE,"CV","q",505,"cv","A",1,"v","c",FALSE,0,-0.642064537642289
3105,"CVOE updated",1013,1,1,91,"O 76","","",FALSE,"CV","q",630,"cv","O",6,"v","c",FALSE,0,-0.583290618866812
3106,"CVOE updated",1013,1,1,92,"A 62","","",FALSE,"CV","q",654,"cv","A",2,"v","c",FALSE,0,-0.572006026461921
3107,"CVOE updated",1013,1,1,93,"O 27","","",TRUE,"CV","q",1091,"cv","O",7,"v","c",FALSE,0,-0.366532406422853
3108,"CVOE updated",1013,1,1,94,"E 66","","",FALSE,"CV","q",796,"cv","E",6,"v","c",FALSE,0,-0.505238854732979
3109,"CVOE updated",1013,1,1,95,"J 62","","",TRUE,"CV","p",657,"cv","J",2,"c","v",FALSE,0,-0.570595452411309
3110,"CVOE updated",1013,1,1,96,"H 72","","",TRUE,"CV","p",1154,"cv","H",2,"c","v",FALSE,0,-0.336910351360012
3111,"CVOE updated",1013,1,1,97,"E 49","","",TRUE,"CV","q",803,"cv","E",9,"v","c",FALSE,0,-0.501947515281552
3112,"CVOE updated",1013,1,1,98,"D 52","","",TRUE,"CV","p",1189,"cv","D",2,"c","v",FALSE,0,-0.320453654102879
3113,"CVOE updated",1013,1,1,99,"H 62","","",TRUE,"CV","p",1600,"cv","H",2,"c","v",FALSE,0,-0.12720500916911
3114,"CVOE updated",1013,1,1,100,"I 11","","",TRUE,"CV","q",674,"cv","I",1,"v","c",FALSE,0,-0.562602199457844
3115,"CVOE updated",1013,1,1,101,"A 98","","",FALSE,"CV","q",562,"cv","A",8,"v","c",FALSE,0,-0.615263630680672
3116,"CVOE updated",1013,1,1,102,"H 29","","",FALSE,"CV","p",642,"cv","H",9,"c","v",FALSE,0,-0.577648322664366
3117,"CVOE updated",1013,1,1,103,"E 83","","",TRUE,"CV","q",660,"cv","E",3,"v","c",FALSE,0,-0.569184878360698
3118,"CVOE updated",1013,1,1,104,"D 43","","",FALSE,"CV","p",681,"cv","D",3,"c","v",FALSE,0,-0.559310860006418
3119,"CVOE updated",1013,1,1,105,"P 45","","",TRUE,"CV","p",722,"cv","P",5,"c","v",FALSE,0,-0.540033014648061
3120,"CVOE updated",1013,1,1,106,"J 17","","",TRUE,"CV","p",671,"cv","J",7,"c","v",FALSE,0,-0.564012773508456
3457,"CVOE updated",2005,1,1,11,"A 71","","",FALSE,"CV","q",1858,"cv","A",1,"v","c",FALSE,0,-0.00589564081652554
3458,"CVOE updated",2005,1,1,12,"I 66","","",TRUE,"CV","q",1208,"cv","I",6,"v","c",FALSE,0,-0.311520018449006
3459,"CVOE updated",2005,1,1,13,"S 30","","",FALSE,"CV","p",738,"cv","S",0,"c","v",FALSE,0,-0.5325099530448
3460,"CVOE updated",2005,1,1,14,"D 20","","",FALSE,"CV","p",1089,"cv","D",0,"c","v",FALSE,0,-0.36747278912326
3461,"CVOE updated",2005,1,1,15,"I 31","","",FALSE,"CV","q",1049,"cv","I",1,"v","c",FALSE,0,-0.386280443131413
3462,"CVOE updated",2005,1,1,16,"P 16","","",FALSE,"CV","p",848,"cv","P",6,"c","v",FALSE,0,-0.48078890452238
3463,"CVOE updated",2005,1,1,17,"A 49","","",FALSE,"CV","q",690,"cv","A",9,"v","c",FALSE,0,-0.555079137854583
3464,"CVOE updated",2005,1,1,18,"O 64","","",TRUE,"CV","q",957,"cv","O",4,"v","c",FALSE,0,-0.429538047350164
3465,"CVOE updated",2005,1,1,19,"D 02","","",FALSE,"CV","p",895,"cv","D",2,"c","v",FALSE,0,-0.458689911062801
3466,"CVOE updated",2005,1,1,20,"P 81","","",TRUE,"CV","p",1314,"cv","P",1,"c","v",FALSE,0,-0.261679735327402
3467,"CVOE updated",2005,1,1,21,"J 58","","",FALSE,"CV","p",727,"cv","J",8,"c","v",FALSE,0,-0.537682057897042
3468,"CVOE updated",2005,1,1,22,"A 22","","",TRUE,"CV","q",647,"cv","A",2,"v","c",FALSE,0,-0.575297365913347
3469,"CVOE updated",2005,1,1,23,"J 72","","",FALSE,"CV","p",769,"cv","J",2,"c","v",FALSE,0,-0.517934021188482
3470,"CVOE updated",2005,1,1,24,"P 91","","",TRUE,"CV","p",930,"cv","P",1,"c","v",FALSE,0,-0.442233213805667
3471,"CVOE updated",2005,1,1,25,"E 19","","",FALSE,"CV","q",2136,"cv","E",9,"v","c",FALSE,0,0.124817554540135
3472,"CVOE updated",2005,1,1,26,"I 30","","",TRUE,"CV","q",1161,"cv","I",0,"v","c",FALSE,0,-0.333619011908586
3473,"CVOE updated",2005,1,1,27,"D 91","","",TRUE,"CV","p",843,"cv","D",1,"c","v",FALSE,0,-0.483139861273399
3474,"CVOE updated",2005,1,1,28,"O 48","","",TRUE,"CV","q",920,"cv","O",8,"v","c",FALSE,0,-0.446935127307705
3475,"CVOE updated",2005,1,1,29,"A 89","","",FALSE,"CV","q",892,"cv","A",9,"v","c",FALSE,0,-0.460100485113412
3476,"CVOE updated",2005,1,1,30,"U 11","","",FALSE,"CV","q",2837,"cv","U",1,"v","c",FALSE,0,0.454421691033011
3477,"CVOE updated",2005,1,1,31,"I 76","","",TRUE,"CV","q",1276,"cv","I",6,"v","c",FALSE,0,-0.279547006635147
3478,"CVOE updated",2005,1,1,32,"U 89","","",FALSE,"CV","q",1467,"cv","U",9,"v","c",FALSE,0,-0.189740458746218
3479,"CVOE updated",2005,1,1,33,"D 63","","",TRUE,"CV","p",692,"cv","D",3,"c","v",FALSE,0,-0.554138755154176
3480,"CVOE updated",2005,1,1,34,"H 70","","",FALSE,"CV","p",1036,"cv","H",0,"c","v",FALSE,0,-0.392392930684063
3481,"CVOE updated",2005,1,1,35,"D 48","","",FALSE,"CV","p",1087,"cv","D",8,"c","v",FALSE,0,-0.368413171823668
3482,"CVOE updated",2005,1,1,36,"P 56","","",FALSE,"CV","p",773,"cv","P",6,"c","v",FALSE,0,-0.516053255787666
3483,"CVOE updated",2005,1,1,37,"O 77","","",FALSE,"CV","q",874,"cv","O",7,"v","c",FALSE,0,-0.468563929417081
3484,"CVOE updated",2005,1,1,38,"P 42","","",FALSE,"CV","p",1247,"cv","P",2,"c","v",FALSE,0,-0.293182555791057
3485,"CVOE updated",2005,1,1,39,"H 22","","",FALSE,"CV","p",806,"cv","H",2,"c","v",FALSE,0,-0.500536941230941
3486,"CVOE updated",2005,1,1,40,"E 42","","",TRUE,"CV","q",1089,"cv","E",2,"v","c",FALSE,0,-0.36747278912326
3487,"CVOE updated",2005,1,1,41,"J 28","","",FALSE,"CV","p",934,"cv","J",8,"c","v",FALSE,0,-0.440352448404852
3488,"CVOE updated",2005,1,1,42,"E 95","","",FALSE,"CV","q",848,"cv","E",5,"v","c",FALSE,0,-0.48078890452238
3489,"CVOE updated",2005,1,1,43,"S 63","","",TRUE,"CV","p",769,"cv","S",3,"c","v",FALSE,0,-0.517934021188482
3490,"CVOE updated",2005,1,1,44,"H 50","","",FALSE,"CV","p",948,"cv","H",0,"c","v",FALSE,0,-0.433769769501999
3491,"CVOE updated",2005,1,1,45,"S 33","","",TRUE,"CV","p",807,"cv","S",3,"c","v",FALSE,0,-0.500066749880737
3492,"CVOE updated",2005,1,1,46,"P 57","","",TRUE,"CV","p",840,"cv","P",7,"c","v",FALSE,0,-0.484550435324011
3493,"CVOE updated",2005,1,1,47,"E 23","","",FALSE,"CV","q",722,"cv","E",3,"v","c",FALSE,0,-0.540033014648061
3494,"CVOE updated",2005,1,1,48,"S 61","","",TRUE,"CV","p",894,"cv","S",1,"c","v",FALSE,0,-0.459160102413005
3495,"CVOE updated",2005,1,1,49,"U 67","","",FALSE,"CV","q",999,"cv","U",7,"v","c",FALSE,0,-0.409790010641604
3496,"CVOE updated",2005,1,1,50,"H 32","","",FALSE,"CV","p",1475,"cv","H",2,"c","v",FALSE,0,-0.185978927944587
3497,"CVOE updated",2005,1,1,51,"U 50","","",TRUE,"CV","q",1011,"cv","U",0,"v","c",FALSE,0,-0.404147714439158
3498,"CVOE updated",2005,1,1,52,"O 49","","",FALSE,"CV","p",1430,"cv","O",9,"v","v",TRUE,1,-0.207137538703759
3499,"CVOE updated",2005,1,1,53,"U 32","","",TRUE,"CV","q",1863,"cv","U",2,"v","c",FALSE,0,-0.00354468406550646
3500,"CVOE updated",2005,1,1,54,"J 78","","",FALSE,"CV","p",1781,"cv","J",8,"c","v",FALSE,0,-0.0421003747822194
3501,"CVOE updated",2005,1,1,55,"S 54","","",FALSE,"CV","p",1157,"cv","S",4,"c","v",FALSE,0,-0.335499777309401
3502,"CVOE updated",2005,1,1,56,"J 27","","",TRUE,"CV","p",1364,"cv","J",7,"c","v",FALSE,0,-0.238170167817211
3503,"CVOE updated",2005,1,1,57,"S 06","","",FALSE,"CV","p",727,"cv","S",6,"c","v",FALSE,0,-0.537682057897042
3504,"CVOE updated",2005,1,1,58,"D 67","","",TRUE,"CV","p",843,"cv","D",7,"c","v",FALSE,0,-0.483139861273399
3505,"CVOE updated",2005,1,1,59,"A 79","","",FALSE,"CV","q",961,"cv","A",9,"v","c",FALSE,0,-0.427657281949349
3506,"CVOE updated",2005,1,1,60,"S 52","","",FALSE,"CV","p",843,"cv","S",2,"c","v",FALSE,0,-0.483139861273399
3507,"CVOE updated",2005,1,1,61,"U 16","","",TRUE,"CV","q",920,"cv","U",6,"v","c",FALSE,0,-0.446935127307705
3508,"CVOE updated",2005,1,1,62,"O 82","","",TRUE,"CV","q",891,"cv","O",2,"v","c",FALSE,0,-0.460570676463616
3509,"CVOE updated",2005,1,1,63,"H 87","","",TRUE,"CV","p",684,"cv","H",7,"c","v",FALSE,0,-0.557900285955806
3510,"CVOE updated",2005,1,1,64,"I 32","","",TRUE,"CV","q",851,"cv","I",2,"v","c",FALSE,0,-0.479378330471769
3511,"CVOE updated",2005,1,1,65,"U 37","","",FALSE,"CV","q",1437,"cv","U",7,"v","c",FALSE,0,-0.203846199252332
3512,"CVOE updated",2005,1,1,66,"I 42","","",TRUE,"CV","q",1284,"cv","I",2,"v","c",FALSE,0,-0.275785475833516
3513,"CVOE updated",2005,1,1,67,"D 65","","",TRUE,"CV","p",653,"cv","D",5,"c","v",FALSE,0,-0.572476217812125
3514,"CVOE updated",2005,1,1,68,"U 77","","",FALSE,"CV","q",853,"cv","U",7,"v","c",FALSE,0,-0.478437947771361
3515,"CVOE updated",2005,1,1,69,"E 12","","",TRUE,"CV","q",852,"cv","E",2,"v","c",FALSE,0,-0.478908139121565
3516,"CVOE updated",2005,1,1,70,"I 60","","",TRUE,"CV","q",812,"cv","I",0,"v","c",FALSE,0,-0.497715793129718
3517,"CVOE updated",2005,1,1,71,"J 36","","",FALSE,"CV","p",1276,"cv","J",6,"c","v",FALSE,0,-0.279547006635147
3518,"CVOE updated",2005,1,1,72,"H 75","","",TRUE,"CV","p",1583,"cv","H",5,"c","v",FALSE,0,-0.135198262122575
3519,"CVOE updated",2005,1,1,73,"I 50","","",TRUE,"CV","q",1630,"cv","I",0,"v","c",FALSE,0,-0.113099268662996
3520,"CVOE updated",2005,1,1,74,"E 99","","",FALSE,"CV","q",765,"cv","E",9,"v","c",FALSE,0,-0.519814786589297
3521,"CVOE updated",2005,1,1,75,"A 86","","",TRUE,"CV","q",809,"cv","A",6,"v","c",FALSE,0,-0.499126367180329
3522,"CVOE updated",2005,1,1,76,"U 48","","",TRUE,"CV","q",1077,"cv","U",8,"v","c",FALSE,0,-0.373115085325706
3523,"CVOE updated",2005,1,1,77,"E 01","","",FALSE,"CV","q",842,"cv","E",1,"v","c",FALSE,0,-0.483610052623603
3524,"CVOE updated",2005,1,1,78,"A 78","","",TRUE,"CV","q",841,"cv","A",8,"v","c",FALSE,0,-0.484080243973807
3525,"CVOE updated",2005,1,1,79,"P 60","","",FALSE,"CV","p",644,"cv","P",0,"c","v",FALSE,0,-0.576707939963959
3526,"CVOE updated",2005,1,1,80,"E 43","","",FALSE,"CV","q",1040,"cv","E",3,"v","c",FALSE,0,-0.390512165283248
3527,"CVOE updated",2005,1,1,81,"D 69","","",TRUE,"CV","p",1286,"cv","D",9,"c","v",FALSE,0,-0.274845093133109
3528,"CVOE updated",2005,1,1,82,"H 11","","",TRUE,"CV","p",672,"cv","H",1,"c","v",FALSE,0,-0.563542582158252
3529,"CVOE updated",2005,1,1,83,"P 43","","",TRUE,"CV","p",660,"cv","P",3,"c","v",FALSE,0,-0.569184878360698
3530,"CVOE updated",2005,1,1,84,"O 67","","",FALSE,"CV","q",921,"cv","O",7,"v","c",FALSE,0,-0.446464935957502
3531,"CVOE updated",2005,1,1,85,"S 91","","",FALSE,"CV","p",814,"cv","S",1,"c","v",FALSE,0,-0.49677541042931
3532,"CVOE updated",2005,1,1,86,"J 68","","",TRUE,"CV","p",1434,"cv","J",8,"c","v",FALSE,0,-0.205256773302944
3533,"CVOE updated",2005,1,1,87,"S 47","","",FALSE,"CV","p",1827,"cv","S",7,"c","v",FALSE,0,-0.0204715726728439
3534,"CVOE updated",2005,1,1,88,"I 81","","",TRUE,"CV","q",997,"cv","I",1,"v","c",FALSE,0,-0.410730393342012
3535,"CVOE updated",2005,1,1,89,"J 39","","",FALSE,"CV","p",650,"cv","J",9,"c","v",FALSE,0,-0.573886791862736
3536,"CVOE updated",2005,1,1,90,"A 11","","",TRUE,"CV","q",654,"cv","A",1,"v","c",FALSE,0,-0.572006026461921
3537,"CVOE updated",2005,1,1,91,"O 76","","",FALSE,"CV","q",815,"cv","O",6,"v","c",FALSE,0,-0.496305219079106
3538,"CVOE updated",2005,1,1,92,"A 62","","",FALSE,"CV","q",730,"cv","A",2,"v","c",FALSE,0,-0.536271483846431
3539,"CVOE updated",2005,1,1,93,"O 27","","",TRUE,"CV","q",1003,"cv","O",7,"v","c",FALSE,0,-0.407909245240789
3540,"CVOE updated",2005,1,1,94,"E 66","","",FALSE,"CV","q",1009,"cv","E",6,"v","c",FALSE,0,-0.405088097139566
3541,"CVOE updated",2005,1,1,95,"J 62","","",TRUE,"CV","p",880,"cv","J",2,"c","v",FALSE,0,-0.465742781315858
3542,"CVOE updated",2005,1,1,96,"H 72","","",TRUE,"CV","p",1394,"cv","H",2,"c","v",FALSE,0,-0.224064427311096
3543,"CVOE updated",2005,1,1,97,"E 49","","",TRUE,"CV","q",841,"cv","E",9,"v","c",FALSE,0,-0.484080243973807
3544,"CVOE updated",2005,1,1,98,"D 52","","",TRUE,"CV","p",802,"cv","D",2,"c","v",FALSE,0,-0.502417706631756
3545,"CVOE updated",2005,1,1,99,"H 62","","",TRUE,"CV","p",1477,"cv","H",2,"c","v",FALSE,0,-0.18503854524418
3546,"CVOE updated",2005,1,1,100,"I 11","","",TRUE,"CV","q",842,"cv","I",1,"v","c",FALSE,0,-0.483610052623603
3547,"CVOE updated",2005,1,1,101,"A 98","","",FALSE,"CV","q",763,"cv","A",8,"v","c",FALSE,0,-0.520755169289705
3548,"CVOE updated",2005,1,1,102,"H 29","","",FALSE,"CV","p",728,"cv","H",9,"c","v",FALSE,0,-0.537211866546838
3549,"CVOE updated",2005,1,1,103,"E 83","","",TRUE,"CV","q",884,"cv","E",3,"v","c",FALSE,0,-0.463862015915043
3550,"CVOE updated",2005,1,1,104,"D 43","","",FALSE,"CV","p",732,"cv","D",3,"c","v",FALSE,0,-0.535331101146023
3551,"CVOE updated",2005,1,1,105,"P 45","","",TRUE,"CV","p",1318,"cv","P",5,"c","v",FALSE,0,-0.259798969926586
3552,"CVOE updated",2005,1,1,106,"J 17","","",TRUE,"CV","p",967,"cv","J",7,"c","v",FALSE,0,-0.424836133848126
3889,"CVOE updated",2009,1,1,11,"A 71","","",FALSE,"CV","p",7907,"cv","A",1,"v","v",TRUE,1,2.83829183656636
3890,"CVOE updated",2009,1,1,12,"I 66","","",TRUE,"CV","p",2383,"cv","I",6,"v","v",TRUE,1,0.240954818040478
3891,"CVOE updated",2009,1,1,13,"S 30","","",FALSE,"CV","q",1711,"cv","S",0,"c","c",TRUE,1,-0.0750137692964866
3892,"CVOE updated",2009,1,1,14,"D 20","","",FALSE,"CV","q",1867,"cv","D",0,"c","c",TRUE,1,-0.0016639186646912
3893,"CVOE updated",2009,1,1,15,"I 31","","",FALSE,"CV","p",1086,"cv","I",1,"v","v",TRUE,1,-0.368883363173872
3894,"CVOE updated",2009,1,1,16,"P 16","","",FALSE,"CV","q",1951,"cv","P",6,"c","c",TRUE,1,0.0378321547524294
3895,"CVOE updated",2009,1,1,17,"A 49","","",FALSE,"CV","p",1206,"cv","A",9,"v","v",TRUE,1,-0.312460401149414
3896,"CVOE updated",2009,1,1,18,"O 64","","",TRUE,"CV","p",2015,"cv","O",4,"v","v",TRUE,1,0.0679244011654737
3897,"CVOE updated",2009,1,1,19,"D 02","","",FALSE,"CV","q",1610,"cv","D",2,"c","c",TRUE,1,-0.122503095667072
3898,"CVOE updated",2009,1,1,20,"P 81","","",TRUE,"CV","q",1724,"cv","P",1,"c","c",TRUE,1,-0.068901281743837
3899,"CVOE updated",2009,1,1,21,"J 58","","",FALSE,"CV","q",1314,"cv","J",8,"c","c",TRUE,1,-0.261679735327402
3900,"CVOE updated",2009,1,1,22,"A 22","","",TRUE,"CV","p",1016,"cv","A",2,"v","v",TRUE,1,-0.401796757688139
3901,"CVOE updated",2009,1,1,23,"J 72","","",FALSE,"CV","q",1259,"cv","J",2,"c","c",TRUE,1,-0.287540259588612
3902,"CVOE updated",2009,1,1,24,"P 91","","",TRUE,"CV","p",1121,"cv","P",1,"c","v",FALSE,0,-0.352426665916738
3903,"CVOE updated",2009,1,1,25,"E 19","","",FALSE,"CV","p",1676,"cv","E",9,"v","v",TRUE,1,-0.0914704665536202
3904,"CVOE updated",2009,1,1,26,"I 30","","",TRUE,"CV","p",3608,"cv","I",0,"v","v",TRUE,1,0.816939222040153
3905,"CVOE updated",2009,1,1,27,"D 91","","",TRUE,"CV","q",1157,"cv","D",1,"c","c",TRUE,1,-0.335499777309401
3906,"CVOE updated",2009,1,1,28,"O 48","","",TRUE,"CV","p",1850,"cv","O",8,"v","v",TRUE,1,-0.00965717161815608
3907,"CVOE updated",2009,1,1,29,"A 89","","",FALSE,"CV","p",1347,"cv","A",9,"v","v",TRUE,1,-0.246163420770676
3908,"CVOE updated",2009,1,1,30,"U 11","","",FALSE,"CV","p",1107,"cv","U",1,"v","v",TRUE,1,-0.359009344819592
3909,"CVOE updated",2009,1,1,31,"I 76","","",TRUE,"CV","p",1305,"cv","I",6,"v","v",TRUE,1,-0.265911457479236
3910,"CVOE updated",2009,1,1,32,"U 89","","",FALSE,"CV","p",1382,"cv","U",9,"v","v",TRUE,1,-0.229706723513542
3911,"CVOE updated",2009,1,1,33,"D 63","","",TRUE,"CV","q",1079,"cv","D",3,"c","c",TRUE,1,-0.372174702625299
3912,"CVOE updated",2009,1,1,34,"H 70","","",FALSE,"CV","p",1071,"cv","H",0,"c","v",FALSE,0,-0.375936233426929
3913,"CVOE updated",2009,1,1,35,"D 48","","",FALSE,"CV","p",877,"cv","D",8,"c","v",FALSE,0,-0.46715335536647
3914,"CVOE updated",2009,1,1,36,"P 56","","",FALSE,"CV","p",1122,"cv","P",6,"c","v",FALSE,0,-0.351956474566535
3916,"CVOE updated",2009,1,1,38,"P 42","","",FALSE,"CV","q",1956,"cv","P",2,"c","c",TRUE,1,0.0401831115034485
3917,"CVOE updated",2009,1,1,39,"H 22","","",FALSE,"CV","q",1916,"cv","H",2,"c","c",TRUE,1,0.0213754574952958
3918,"CVOE updated",2009,1,1,40,"E 42","","",TRUE,"CV","p",950,"cv","E",2,"v","v",TRUE,1,-0.432829386801591
3919,"CVOE updated",2009,1,1,41,"J 28","","",FALSE,"CV","q",1536,"cv","J",8,"c","c",TRUE,1,-0.157297255582154
3920,"CVOE updated",2009,1,1,42,"E 95","","",FALSE,"CV","p",858,"cv","E",5,"v","v",TRUE,1,-0.476086991020342
3921,"CVOE updated",2009,1,1,43,"S 63","","",TRUE,"CV","q",1189,"cv","S",3,"c","c",TRUE,1,-0.320453654102879
3922,"CVOE updated",2009,1,1,44,"H 50","","",FALSE,"CV","q",2180,"cv","H",0,"c","c",TRUE,1,0.145505973949103
3923,"CVOE updated",2009,1,1,45,"S 33","","",TRUE,"CV","q",1356,"cv","S",3,"c","c",TRUE,1,-0.241931698618841
3924,"CVOE updated",2009,1,1,46,"P 57","","",TRUE,"CV","q",3644,"cv","P",7,"c","c",TRUE,1,0.833866110647491
3925,"CVOE updated",2009,1,1,47,"E 23","","",FALSE,"CV","p",1902,"cv","E",3,"v","v",TRUE,1,0.0147927785924424
3926,"CVOE updated",2009,1,1,48,"S 61","","",TRUE,"CV","q",3401,"cv","S",1,"c","c",TRUE,1,0.719609612547963
3927,"CVOE updated",2009,1,1,49,"U 67","","",FALSE,"CV","p",2026,"cv","U",7,"v","v",TRUE,1,0.0730965060177156
3928,"CVOE updated",2009,1,1,50,"H 32","","",FALSE,"CV","q",1099,"cv","H",2,"c","c",TRUE,1,-0.362770875621222
3929,"CVOE updated",2009,1,1,51,"U 50","","",TRUE,"CV","p",1135,"cv","U",0,"v","v",TRUE,1,-0.345843987013885
3930,"CVOE updated",2009,1,1,52,"O 49","","",FALSE,"CV","p",1655,"cv","O",9,"v","v",TRUE,1,-0.1013444849079
3931,"CVOE updated",2009,1,1,53,"U 32","","",TRUE,"CV","p",1725,"cv","U",2,"v","v",TRUE,1,-0.0684310903936332
3932,"CVOE updated",2009,1,1,54,"J 78","","",FALSE,"CV","q",994,"cv","J",8,"c","c",TRUE,1,-0.412140967392623
3933,"CVOE updated",2009,1,1,55,"S 54","","",FALSE,"CV","q",1545,"cv","S",4,"c","c",TRUE,1,-0.15306553343032
3934,"CVOE updated",2009,1,1,56,"J 27","","",TRUE,"CV","q",1733,"cv","J",7,"c","c",TRUE,1,-0.0646695595920026
3935,"CVOE updated",2009,1,1,57,"S 06","","",FALSE,"CV","q",1800,"cv","S",6,"c","c",TRUE,1,-0.0331667391283469
3936,"CVOE updated",2009,1,1,58,"D 67","","",TRUE,"CV","q",1327,"cv","D",7,"c","c",TRUE,1,-0.255567247774752
3937,"CVOE updated",2009,1,1,59,"A 79","","",FALSE,"CV","p",886,"cv","A",9,"v","v",TRUE,1,-0.462921633214635
3938,"CVOE updated",2009,1,1,60,"S 52","","",FALSE,"CV","q",1979,"cv","S",2,"c","c",TRUE,1,0.0509975125581363
3939,"CVOE updated",2009,1,1,61,"U 16","","",TRUE,"CV","p",1199,"cv","U",6,"v","v",TRUE,1,-0.315751740600841
3940,"CVOE updated",2009,1,1,62,"O 82","","",TRUE,"CV","p",1391,"cv","O",2,"v","v",TRUE,1,-0.225475001361708
3941,"CVOE updated",2009,1,1,63,"H 87","","",TRUE,"CV","q",1116,"cv","H",7,"c","c",TRUE,1,-0.354777622667757
3942,"CVOE updated",2009,1,1,64,"I 32","","",TRUE,"CV","p",1239,"cv","I",2,"v","v",TRUE,1,-0.296944086592688
3943,"CVOE updated",2009,1,1,65,"U 37","","",FALSE,"CV","p",1311,"cv","U",7,"v","v",TRUE,1,-0.263090309378013
3944,"CVOE updated",2009,1,1,66,"I 42","","",TRUE,"CV","p",1369,"cv","I",2,"v","v",TRUE,1,-0.235819211066192
3945,"CVOE updated",2009,1,1,67,"D 65","","",TRUE,"CV","q",1020,"cv","D",5,"c","c",TRUE,1,-0.399915992287324
3946,"CVOE updated",2009,1,1,68,"U 77","","",FALSE,"CV","p",1122,"cv","U",7,"v","v",TRUE,1,-0.351956474566535
3947,"CVOE updated",2009,1,1,69,"E 12","","",TRUE,"CV","p",1271,"cv","E",2,"v","v",TRUE,1,-0.281897963386166
3948,"CVOE updated",2009,1,1,70,"I 60","","",TRUE,"CV","p",959,"cv","I",0,"v","v",TRUE,1,-0.428597664649757
3949,"CVOE updated",2009,1,1,71,"J 36","","",FALSE,"CV","q",908,"cv","J",6,"c","c",TRUE,1,-0.452577423510151
3950,"CVOE updated",2009,1,1,72,"H 75","","",TRUE,"CV","p",1199,"cv","H",5,"c","v",FALSE,0,-0.315751740600841
3951,"CVOE updated",2009,1,1,73,"I 50","","",TRUE,"CV","p",1844,"cv","I",0,"v","v",TRUE,1,-0.012478319719379
3952,"CVOE updated",2009,1,1,74,"E 99","","",FALSE,"CV","p",4705,"cv","E",9,"v","v",TRUE,1,1.33273913321374
3953,"CVOE updated",2009,1,1,75,"A 86","","",TRUE,"CV","p",1130,"cv","A",6,"v","v",TRUE,1,-0.348194943764904
3954,"CVOE updated",2009,1,1,76,"U 48","","",TRUE,"CV","p",1251,"cv","U",8,"v","v",TRUE,1,-0.291301790390242
3955,"CVOE updated",2009,1,1,77,"E 01","","",FALSE,"CV","p",1079,"cv","E",1,"v","v",TRUE,1,-0.372174702625299
3956,"CVOE updated",2009,1,1,78,"A 78","","",TRUE,"CV","p",1146,"cv","A",8,"v","v",TRUE,1,-0.340671882161643
3957,"CVOE updated",2009,1,1,79,"P 60","","",FALSE,"CV","q",1904,"cv","P",0,"c","c",TRUE,1,0.01573316129285
3958,"CVOE updated",2009,1,1,80,"E 43","","",FALSE,"CV","p",1279,"cv","E",3,"v","v",TRUE,1,-0.278136432584535
3959,"CVOE updated",2009,1,1,81,"D 69","","",TRUE,"CV","q",2209,"cv","D",9,"c","c",TRUE,1,0.159141523105014
3960,"CVOE updated",2009,1,1,82,"H 11","","",TRUE,"CV","q",2559,"cv","H",1,"c","c",TRUE,1,0.32370849567635
3961,"CVOE updated",2009,1,1,83,"P 43","","",TRUE,"CV","q",1231,"cv","P",3,"c","c",TRUE,1,-0.300705617394319
3962,"CVOE updated",2009,1,1,84,"O 67","","",FALSE,"CV","p",1379,"cv","O",7,"v","v",TRUE,1,-0.231117297564154
3963,"CVOE updated",2009,1,1,85,"S 91","","",FALSE,"CV","q",1360,"cv","S",1,"c","c",TRUE,1,-0.240050933218026
3964,"CVOE updated",2009,1,1,86,"J 68","","",TRUE,"CV","q",1170,"cv","J",8,"c","c",TRUE,1,-0.329387289756751
3965,"CVOE updated",2009,1,1,87,"S 47","","",FALSE,"CV","q",559,"cv","S",7,"c","c",TRUE,1,-0.616674204731283
3966,"CVOE updated",2009,1,1,88,"I 81","","",TRUE,"CV","p",828,"cv","I",1,"v","v",TRUE,1,-0.490192731526457
3967,"CVOE updated",2009,1,1,89,"J 39","","",FALSE,"CV","q",1027,"cv","J",9,"c","c",TRUE,1,-0.396624652835897
3968,"CVOE updated",2009,1,1,90,"A 11","","",TRUE,"CV","p",962,"cv","A",1,"v","v",TRUE,1,-0.427187090599145
3969,"CVOE updated",2009,1,1,91,"O 76","","",FALSE,"CV","p",946,"cv","O",6,"v","v",TRUE,1,-0.434710152202406
3970,"CVOE updated",2009,1,1,92,"A 62","","",FALSE,"CV","p",705,"cv","A",2,"v","v",TRUE,1,-0.548026267601526
3971,"CVOE updated",2009,1,1,93,"O 27","","",TRUE,"CV","p",877,"cv","O",7,"v","v",TRUE,1,-0.46715335536647
