ExperimentName,Subject,Group,Block,Trial,STIM,TASK,Switch,Congruent,CVOE,Response,RT,block_type,letter,number,key2,response2,match2,score2,zRT
CVOE updated,1001,1,1,11,A 71,,,FALSE,CV,p,4811,cv,A,1,v,v,TRUE,1,1.237209062
CVOE updated,1001,1,1,12,I 66,,,TRUE,CV,p,1960,cv,I,6,v,v,TRUE,1,-0.000289609
CVOE updated,1001,1,1,13,S 30,,,FALSE,CV,q,918,cv,S,0,c,c,TRUE,1,-0.452577795
CVOE updated,1001,1,1,14,D 20,,,FALSE,CV,q,790,cv,D,0,c,c,TRUE,1,-0.508137188
CVOE updated,1001,1,1,15,I 31,,,FALSE,CV,p,874,cv,I,1,v,v,TRUE,1,-0.471676336
CVOE updated,1001,1,1,16,P 16,,,FALSE,CV,q,700,cv,P,6,c,c,TRUE,1,-0.547202386
CVOE updated,1001,1,1,17,A 49,,,FALSE,CV,p,1100,cv,A,9,v,v,TRUE,1,-0.373579282
CVOE updated,1001,1,1,18,O 64,,,TRUE,CV,p,1100,cv,O,4,v,v,TRUE,1,-0.373579282
CVOE updated,1001,1,1,19,D 02,,,FALSE,CV,q,892,cv,D,2,c,c,TRUE,1,-0.463863296
CVOE updated,1001,1,1,20,P 81,,,TRUE,CV,q,1116,cv,P,1,c,c,TRUE,1,-0.366634358
CVOE updated,1001,1,1,21,J 58,,,FALSE,CV,q,828,cv,J,8,c,c,TRUE,1,-0.491642993
CVOE updated,1001,1,1,22,A 22,,,TRUE,CV,p,679,cv,A,2,v,v,TRUE,1,-0.556317599
CVOE updated,1001,1,1,23,J 72,,,FALSE,CV,q,999,cv,J,2,c,c,TRUE,1,-0.417419116
CVOE updated,1001,1,1,24,P 91,,,TRUE,CV,q,1027,cv,P,1,c,c,TRUE,1,-0.405265499
CVOE updated,1001,1,1,25,E 19,,,FALSE,CV,p,622,cv,E,9,v,v,TRUE,1,-0.581058891
CVOE updated,1001,1,1,26,I 30,,,TRUE,CV,p,618,cv,I,0,v,v,TRUE,1,-0.582795122
CVOE updated,1001,1,1,27,D 91,,,TRUE,CV,q,717,cv,D,1,c,c,TRUE,1,-0.539823404
CVOE updated,1001,1,1,28,O 48,,,TRUE,CV,p,636,cv,O,8,v,v,TRUE,1,-0.574982083
CVOE updated,1001,1,1,29,A 89,,,FALSE,CV,p,1127,cv,A,9,v,v,TRUE,1,-0.361859723
CVOE updated,1001,1,1,30,U 11,,,FALSE,CV,p,886,cv,U,1,v,v,TRUE,1,-0.466467643
CVOE updated,1001,1,1,31,I 76,,,TRUE,CV,p,726,cv,I,6,v,v,TRUE,1,-0.535916884
CVOE updated,1001,1,1,32,U 89,,,FALSE,CV,p,669,cv,U,9,v,v,TRUE,1,-0.560658177
CVOE updated,1001,1,1,33,D 63,,,TRUE,CV,q,758,cv,D,3,c,c,TRUE,1,-0.522027036
CVOE updated,1001,1,1,34,H 70,,,FALSE,CV,q,1052,cv,H,0,c,c,TRUE,1,-0.394414055
CVOE updated,1001,1,1,35,D 48,,,FALSE,CV,q,591,cv,D,8,c,c,TRUE,1,-0.594514682
CVOE updated,1001,1,1,36,P 56,,,FALSE,CV,q,635,cv,P,6,c,c,TRUE,1,-0.57541614
CVOE updated,1001,1,1,37,O 77,,,FALSE,CV,p,645,cv,O,7,v,v,TRUE,1,-0.571075563
CVOE updated,1001,1,1,38,P 42,,,FALSE,CV,q,776,cv,P,2,c,c,TRUE,1,-0.514213996
CVOE updated,1001,1,1,39,H 22,,,FALSE,CV,q,668,cv,H,2,c,c,TRUE,1,-0.561092234
CVOE updated,1001,1,1,40,E 42,,,TRUE,CV,p,574,cv,E,2,v,v,TRUE,1,-0.601893664
CVOE updated,1001,1,1,41,J 28,,,FALSE,CV,q,690,cv,J,8,c,c,TRUE,1,-0.551542964
CVOE updated,1001,1,1,42,E 95,,,FALSE,CV,p,787,cv,E,5,v,v,TRUE,1,-0.509439361
CVOE updated,1001,1,1,43,S 63,,,TRUE,CV,q,1031,cv,S,3,c,c,TRUE,1,-0.403529268
CVOE updated,1001,1,1,44,H 50,,,FALSE,CV,q,602,cv,H,0,c,c,TRUE,1,-0.589740047
CVOE updated,1001,1,1,45,S 33,,,TRUE,CV,q,646,cv,S,3,c,c,TRUE,1,-0.570641505
CVOE updated,1001,1,1,46,P 57,,,TRUE,CV,q,632,cv,P,7,c,c,TRUE,1,-0.576718314
CVOE updated,1001,1,1,47,E 23,,,FALSE,CV,p,699,cv,E,3,v,v,TRUE,1,-0.547636444
CVOE updated,1001,1,1,48,S 61,,,TRUE,CV,q,763,cv,S,1,c,c,TRUE,1,-0.519856747
CVOE updated,1001,1,1,49,U 67,,,FALSE,CV,p,560,cv,U,7,v,v,TRUE,1,-0.607970472
CVOE updated,1001,1,1,50,H 32,,,FALSE,CV,q,685,cv,H,2,c,c,TRUE,1,-0.553713253
CVOE updated,1001,1,1,51,U 50,,,TRUE,CV,p,502,cv,U,0,v,v,TRUE,1,-0.633145822
CVOE updated,1001,1,1,52,O 49,,,FALSE,CV,p,630,cv,O,9,v,v,TRUE,1,-0.577586429
CVOE updated,1001,1,1,53,U 32,,,TRUE,CV,p,609,cv,U,2,v,v,TRUE,1,-0.586701642
CVOE updated,1001,1,1,54,J 78,,,FALSE,CV,q,716,cv,J,8,c,c,TRUE,1,-0.540257462
CVOE updated,1001,1,1,55,S 54,,,FALSE,CV,q,635,cv,S,4,c,c,TRUE,1,-0.57541614
CVOE updated,1001,1,1,56,J 27,,,TRUE,CV,q,566,cv,J,7,c,c,TRUE,1,-0.605366126
CVOE updated,1001,1,1,57,S 06,,,FALSE,CV,q,635,cv,S,6,c,c,TRUE,1,-0.57541614
CVOE updated,1001,1,1,58,D 67,,,TRUE,CV,q,766,cv,D,7,c,c,TRUE,1,-0.518554574
CVOE updated,1001,1,1,59,A 79,,,FALSE,CV,p,771,cv,A,9,v,v,TRUE,1,-0.516384285
CVOE updated,1001,1,1,60,S 52,,,FALSE,CV,q,768,cv,S,2,c,c,TRUE,1,-0.517686459
CVOE updated,1001,1,1,61,U 16,,,TRUE,CV,p,702,cv,U,6,v,v,TRUE,1,-0.546334271
CVOE updated,1001,1,1,62,O 82,,,TRUE,CV,p,590,cv,O,2,v,v,TRUE,1,-0.59494874
CVOE updated,1001,1,1,63,H 87,,,TRUE,CV,q,722,cv,H,7,c,c,TRUE,1,-0.537653115
CVOE updated,1001,1,1,64,I 32,,,TRUE,CV,p,1330,cv,I,2,v,v,TRUE,1,-0.273745998
CVOE updated,1001,1,1,65,U 37,,,FALSE,CV,p,833,cv,U,7,v,v,TRUE,1,-0.489472704
CVOE updated,1001,1,1,66,I 42,,,TRUE,CV,p,620,cv,I,2,v,v,TRUE,1,-0.581927007
CVOE updated,1001,1,1,67,D 65,,,TRUE,CV,q,679,cv,D,5,c,c,TRUE,1,-0.556317599
CVOE updated,1001,1,1,68,U 77,,,FALSE,CV,p,743,cv,U,7,v,v,TRUE,1,-0.528537902
CVOE updated,1001,1,1,69,E 12,,,TRUE,CV,p,1326,cv,E,2,v,v,TRUE,1,-0.275482229
CVOE updated,1001,1,1,70,I 60,,,TRUE,CV,p,565,cv,I,0,v,v,TRUE,1,-0.605800184
CVOE updated,1001,1,1,71,J 36,,,FALSE,CV,q,698,cv,J,6,c,c,TRUE,1,-0.548070502
CVOE updated,1001,1,1,72,H 75,,,TRUE,CV,q,778,cv,H,5,c,c,TRUE,1,-0.513345881
CVOE updated,1001,1,1,73,I 50,,,TRUE,CV,p,742,cv,I,0,v,v,TRUE,1,-0.52897196
CVOE updated,1001,1,1,74,E 99,,,FALSE,CV,p,725,cv,E,9,v,v,TRUE,1,-0.536350942
CVOE updated,1001,1,1,75,A 86,,,TRUE,CV,p,1019,cv,A,6,v,v,TRUE,1,-0.408737961
CVOE updated,1001,1,1,76,U 48,,,TRUE,CV,p,631,cv,U,8,v,v,TRUE,1,-0.577152372
CVOE updated,1001,1,1,77,E 01,,,FALSE,CV,p,649,cv,E,1,v,v,TRUE,1,-0.569339332
CVOE updated,1001,1,1,78,A 78,,,TRUE,CV,p,699,cv,A,8,v,v,TRUE,1,-0.547636444
CVOE updated,1001,1,1,79,P 60,,,FALSE,CV,q,803,cv,P,0,c,c,TRUE,1,-0.502494437
CVOE updated,1001,1,1,80,E 43,,,FALSE,CV,p,975,cv,E,3,v,v,TRUE,1,-0.427836502
CVOE updated,1001,1,1,81,D 69,,,TRUE,CV,q,924,cv,D,9,c,c,TRUE,1,-0.449973448
CVOE updated,1001,1,1,82,H 11,,,TRUE,CV,q,612,cv,H,1,c,c,TRUE,1,-0.585399469
CVOE updated,1001,1,1,83,P 43,,,TRUE,CV,q,543,cv,P,3,c,c,TRUE,1,-0.615349454
CVOE updated,1001,1,1,84,O 67,,,FALSE,CV,p,613,cv,O,7,v,v,TRUE,1,-0.584965411
CVOE updated,1001,1,1,85,S 91,,,FALSE,CV,q,728,cv,S,1,c,c,TRUE,1,-0.535048769
CVOE updated,1001,1,1,86,J 68,,,TRUE,CV,q,671,cv,J,8,c,c,TRUE,1,-0.559790061
CVOE updated,1001,1,1,87,S 47,,,FALSE,CV,q,624,cv,S,7,c,c,TRUE,1,-0.580190776
CVOE updated,1001,1,1,88,I 81,,,TRUE,CV,p,659,cv,I,1,v,v,TRUE,1,-0.564998754
CVOE updated,1001,1,1,89,J 39,,,FALSE,CV,q,805,cv,J,9,c,c,TRUE,1,-0.501626321
CVOE updated,1001,1,1,90,A 11,,,TRUE,CV,p,793,cv,A,1,v,v,TRUE,1,-0.506835015
CVOE updated,1001,1,1,91,O 76,,,FALSE,CV,p,541,cv,O,6,v,v,TRUE,1,-0.61621757
CVOE updated,1001,1,1,92,A 62,,,FALSE,CV,p,547,cv,A,2,v,v,TRUE,1,-0.613613223
CVOE updated,1001,1,1,93,O 27,,,TRUE,CV,p,545,cv,O,7,v,v,TRUE,1,-0.614481339
CVOE updated,1001,1,1,94,E 66,,,FALSE,CV,p,607,cv,E,6,v,v,TRUE,1,-0.587569758
CVOE updated,1001,1,1,95,J 62,,,TRUE,CV,q,531,cv,J,2,c,c,TRUE,1,-0.620558147
CVOE updated,1001,1,1,96,H 72,,,TRUE,CV,q,546,cv,H,2,c,c,TRUE,1,-0.614047281
CVOE updated,1001,1,1,97,E 49,,,TRUE,CV,p,680,cv,E,9,v,v,TRUE,1,-0.555883541
CVOE updated,1001,1,1,98,D 52,,,TRUE,CV,q,800,cv,D,2,c,c,TRUE,1,-0.50379661
CVOE updated,1001,1,1,99,H 62,,,TRUE,CV,q,516,cv,H,2,c,c,TRUE,1,-0.627069014
CVOE updated,1001,1,1,100,I 11,,,TRUE,CV,p,660,cv,I,1,v,v,TRUE,1,-0.564564697
CVOE updated,1001,1,1,101,A 98,,,FALSE,CV,p,1221,cv,A,8,v,v,TRUE,1,-0.321058294
CVOE updated,1001,1,1,102,H 29,,,FALSE,CV,q,776,cv,H,9,c,c,TRUE,1,-0.514213996
CVOE updated,1001,1,1,103,E 83,,,TRUE,CV,p,773,cv,E,3,v,v,TRUE,1,-0.51551617
CVOE updated,1001,1,1,104,D 43,,,FALSE,CV,q,627,cv,D,3,c,c,TRUE,1,-0.578888603
CVOE updated,1001,1,1,105,P 45,,,TRUE,CV,q,1253,cv,P,5,c,c,TRUE,1,-0.307168445
CVOE updated,1001,1,1,106,J 17,,,TRUE,CV,q,1015,cv,J,7,c,c,TRUE,1,-0.410474192
CVOE_B,1002,1,1,11,A 24,,,TRUE,OE,p,8461,oe,A,4,e,e,TRUE,1,2.821519884
CVOE_B,1002,1,1,12,O 83,,,FALSE,OE,q,1323,oe,O,3,o,o,TRUE,1,-0.276784402
CVOE_B,1002,1,1,14,P 10,,,FALSE,OE,p,1442,oe,P,0,e,e,TRUE,1,-0.225131529
CVOE_B,1002,1,1,15,D 30,,,FALSE,OE,p,1035,oe,D,0,e,e,TRUE,1,-0.401793037
CVOE_B,1002,1,1,16,U 62,,,TRUE,OE,p,929,oe,U,2,e,e,TRUE,1,-0.447803159
CVOE_B,1002,1,1,17,P 95,,,TRUE,OE,q,1235,oe,P,5,o,o,TRUE,1,-0.314981485
CVOE_B,1002,1,1,18,U 06,,,TRUE,OE,p,850,oe,U,6,e,e,TRUE,1,-0.482093722
CVOE_B,1002,1,1,19,E 75,,,FALSE,OE,q,849,oe,E,5,o,o,TRUE,1,-0.48252778
CVOE_B,1002,1,1,20,I 67,,,FALSE,OE,q,1005,oe,I,7,o,o,TRUE,1,-0.41481477
CVOE_B,1002,1,1,21,S 13,,,TRUE,OE,q,893,oe,S,3,o,o,TRUE,1,-0.463429239
CVOE_B,1002,1,1,22,P 78,,,FALSE,OE,p,998,oe,P,8,e,e,TRUE,1,-0.417853174
CVOE_B,1002,1,1,23,I 15,,,FALSE,OE,q,886,oe,I,5,o,o,TRUE,1,-0.466467643
CVOE_B,1002,1,1,24,D 27,,,TRUE,OE,q,1361,oe,D,7,o,o,TRUE,1,-0.260290207
CVOE_B,1002,1,1,25,O 94,,,TRUE,OE,p,881,oe,O,4,e,e,TRUE,1,-0.468637932
CVOE_B,1002,1,1,26,A 65,,,FALSE,OE,q,1004,oe,A,5,o,o,TRUE,1,-0.415248827
CVOE_B,1002,1,1,27,I 42,,,TRUE,OE,p,1047,oe,I,2,e,e,TRUE,1,-0.396584344
CVOE_B,1002,1,1,28,E 25,,,FALSE,OE,q,807,oe,E,5,o,o,TRUE,1,-0.500758206
CVOE_B,1002,1,1,29,H 49,,,TRUE,OE,q,1091,oe,H,9,o,o,TRUE,1,-0.377485802
CVOE_B,1002,1,1,30,S 18,,,FALSE,OE,p,1052,oe,S,8,e,e,TRUE,1,-0.394414055
CVOE_B,1002,1,1,31,H 51,,,TRUE,OE,q,694,oe,H,1,o,o,TRUE,1,-0.549806733
CVOE_B,1002,1,1,32,U 14,,,TRUE,OE,p,1079,oe,U,4,e,e,TRUE,1,-0.382694495
CVOE_B,1002,1,1,33,E 02,,,TRUE,OE,p,844,oe,E,2,e,e,TRUE,1,-0.484698069
CVOE_B,1002,1,1,34,J 26,,,FALSE,OE,p,843,oe,J,6,e,e,TRUE,1,-0.485132127
CVOE_B,1002,1,1,35,D 24,,,FALSE,OE,p,842,oe,D,4,e,e,TRUE,1,-0.485566184
CVOE_B,1002,1,1,36,O 50,,,TRUE,OE,p,997,oe,O,0,e,e,TRUE,1,-0.418287232
CVOE_B,1002,1,1,37,U 16,,,TRUE,OE,p,842,oe,U,6,e,e,TRUE,1,-0.485566184
CVOE_B,1002,1,1,38,O 15,,,FALSE,OE,q,1232,oe,O,5,o,o,TRUE,1,-0.316283658
CVOE_B,1002,1,1,39,D 32,,,FALSE,OE,p,847,oe,D,2,e,e,TRUE,1,-0.483395896
CVOE_B,1002,1,1,40,S 67,,,TRUE,OE,q,1042,oe,S,7,o,o,TRUE,1,-0.398754632
CVOE_B,1002,1,1,41,J 74,,,FALSE,OE,p,1232,oe,J,4,e,e,TRUE,1,-0.316283658
CVOE_B,1002,1,1,42,D 92,,,FALSE,OE,p,1669,oe,D,2,e,e,TRUE,1,-0.126600417
CVOE_B,1002,1,1,43,A 65,,,FALSE,OE,q,809,oe,A,5,o,o,TRUE,1,-0.49989009
CVOE_B,1002,1,1,44,I 87,,,FALSE,OE,q,1233,oe,I,7,o,o,TRUE,1,-0.3158496
CVOE_B,1002,1,1,45,H 61,,,TRUE,OE,q,769,oe,H,1,o,o,TRUE,1,-0.517252401
CVOE_B,1002,1,1,46,E 59,,,FALSE,OE,q,931,oe,E,9,o,o,TRUE,1,-0.446935044
CVOE_B,1002,1,1,47,I 33,,,FALSE,OE,q,924,oe,I,3,o,o,TRUE,1,-0.449973448
CVOE_B,1002,1,1,48,O 90,,,TRUE,OE,p,739,oe,O,0,e,e,TRUE,1,-0.530274134
CVOE_B,1002,1,1,49,U 51,,,FALSE,OE,q,699,oe,U,1,o,o,TRUE,1,-0.547636444
CVOE_B,1002,1,1,50,A 10,,,TRUE,OE,p,1164,oe,A,0,e,e,TRUE,1,-0.345799586
CVOE_B,1002,1,1,51,E 50,,,TRUE,OE,p,610,oe,E,0,e,e,TRUE,1,-0.586267584
CVOE_B,1002,1,1,52,D 92,,,FALSE,OE,p,608,oe,D,2,e,e,TRUE,1,-0.5871357
CVOE_B,1002,1,1,53,E 60,,,TRUE,OE,p,803,oe,E,0,e,e,TRUE,1,-0.502494437
CVOE_B,1002,1,1,54,A 95,,,FALSE,OE,q,1165,oe,A,5,o,o,TRUE,1,-0.345365528
CVOE_B,1002,1,1,55,E 64,,,TRUE,OE,p,808,oe,E,4,e,e,TRUE,1,-0.500324148
CVOE_B,1002,1,1,56,P 20,,,FALSE,OE,p,1075,oe,P,0,e,e,TRUE,1,-0.384430726
CVOE_B,1002,1,1,57,S 06,,,FALSE,OE,p,1036,oe,S,6,e,e,TRUE,1,-0.401358979
CVOE_B,1002,1,1,58,P 64,,,FALSE,OE,p,673,oe,P,4,e,e,TRUE,1,-0.558921946
CVOE_B,1002,1,1,59,U 70,,,TRUE,OE,p,778,oe,U,0,e,e,TRUE,1,-0.513345881
CVOE_B,1002,1,1,60,S 16,,,FALSE,OE,p,883,oe,S,6,e,e,TRUE,1,-0.467769816
CVOE_B,1002,1,1,61,E 35,,,FALSE,OE,q,732,oe,E,5,o,o,TRUE,1,-0.533312538
CVOE_B,1002,1,1,62,I 93,,,FALSE,OE,q,691,oe,I,3,o,o,TRUE,1,-0.551108906
CVOE_B,1002,1,1,63,D 63,,,TRUE,OE,q,763,oe,D,3,o,o,TRUE,1,-0.519856747
CVOE_B,1002,1,1,64,U 89,,,FALSE,OE,q,808,oe,U,9,o,o,TRUE,1,-0.500324148
CVOE_B,1002,1,1,65,E 91,,,FALSE,OE,q,762,oe,E,1,o,o,TRUE,1,-0.520290805
CVOE_B,1002,1,1,66,A 12,,,TRUE,OE,p,650,oe,A,2,e,e,TRUE,1,-0.568905274
CVOE_B,1002,1,1,67,P 56,,,FALSE,OE,p,1084,oe,P,6,e,e,TRUE,1,-0.380524207
CVOE_B,1002,1,1,68,S 65,,,TRUE,OE,q,771,oe,S,5,o,o,TRUE,1,-0.516384285
CVOE_B,1002,1,1,69,P 07,,,TRUE,OE,q,1637,oe,P,7,o,o,TRUE,1,-0.140490266
CVOE_B,1002,1,1,70,I 77,,,FALSE,OE,q,1045,oe,I,7,o,o,TRUE,1,-0.397452459
CVOE_B,1002,1,1,71,J 19,,,TRUE,OE,q,1392,oe,J,9,o,o,TRUE,1,-0.246834417
CVOE_B,1002,1,1,72,O 59,,,FALSE,OE,q,856,oe,O,9,o,o,TRUE,1,-0.479489376
CVOE_B,1002,1,1,73,J 15,,,TRUE,OE,q,894,oe,J,5,o,o,TRUE,1,-0.462995181
CVOE_B,1002,1,1,74,I 89,,,FALSE,OE,q,804,oe,I,9,o,o,TRUE,1,-0.502060379
CVOE_B,1002,1,1,75,O 97,,,FALSE,OE,q,657,oe,O,7,o,o,TRUE,1,-0.56586687
CVOE_B,1002,1,1,76,A 92,,,TRUE,OE,p,724,oe,A,2,e,e,TRUE,1,-0.536785
CVOE_B,1002,1,1,77,J 90,,,FALSE,OE,p,699,oe,J,0,e,e,TRUE,1,-0.547636444
CVOE_B,1002,1,1,78,H 65,,,TRUE,OE,q,967,oe,H,5,o,o,TRUE,1,-0.431308964
CVOE_B,1002,1,1,79,H 17,,,TRUE,OE,q,849,oe,H,7,o,o,TRUE,1,-0.48252778
CVOE_B,1002,1,1,80,S 26,,,FALSE,OE,p,692,oe,S,6,e,e,TRUE,1,-0.550674848
CVOE_B,1002,1,1,81,D 56,,,FALSE,OE,p,858,oe,D,6,e,e,TRUE,1,-0.47862126
CVOE_B,1002,1,1,82,I 91,,,FALSE,OE,q,685,oe,I,1,o,o,TRUE,1,-0.553713253
CVOE_B,1002,1,1,83,J 11,,,TRUE,OE,q,733,oe,J,1,o,o,TRUE,1,-0.53287848
CVOE_B,1002,1,1,84,O 28,,,TRUE,OE,p,810,oe,O,8,e,e,TRUE,1,-0.499456033
CVOE_B,1002,1,1,85,H 29,,,TRUE,OE,q,843,oe,H,9,o,o,TRUE,1,-0.485132127
CVOE_B,1002,1,1,86,J 25,,,TRUE,OE,q,1077,oe,J,5,o,o,TRUE,1,-0.383562611
CVOE_B,1002,1,1,87,A 73,,,FALSE,OE,q,803,oe,A,3,o,o,TRUE,1,-0.502494437
CVOE_B,1002,1,1,88,J 63,,,TRUE,OE,q,775,oe,J,3,o,o,TRUE,1,-0.514648054
CVOE_B,1002,1,1,89,U 84,,,TRUE,OE,p,802,oe,U,4,e,e,TRUE,1,-0.502928495
CVOE_B,1002,1,1,90,A 58,,,TRUE,OE,p,711,oe,A,8,e,e,TRUE,1,-0.542427751
CVOE_B,1002,1,1,91,S 43,,,TRUE,OE,q,768,oe,S,3,o,o,TRUE,1,-0.517686459
CVOE_B,1002,1,1,92,H 54,,,FALSE,OE,p,1203,oe,H,4,e,e,TRUE,1,-0.328871333
CVOE_B,1002,1,1,94,J 75,,,TRUE,OE,q,727,oe,J,5,o,o,TRUE,1,-0.535482827
CVOE_B,1002,1,1,95,D 19,,,TRUE,OE,q,765,oe,D,9,o,o,TRUE,1,-0.518988632
CVOE_B,1002,1,1,96,J 38,,,FALSE,OE,p,770,oe,J,8,e,e,TRUE,1,-0.516818343
CVOE_B,1002,1,1,97,I 56,,,TRUE,OE,p,1439,oe,I,6,e,e,TRUE,1,-0.226433702
CVOE_B,1002,1,1,98,P 87,,,TRUE,OE,q,774,oe,P,7,o,o,TRUE,1,-0.515082112
CVOE_B,1002,1,1,99,O 80,,,TRUE,OE,p,1859,oe,O,0,e,e,TRUE,1,-0.044129443
CVOE_B,1002,1,1,100,U 60,,,TRUE,OE,p,816,oe,U,0,e,e,TRUE,1,-0.496851686
CVOE_B,1002,1,1,101,P 48,,,FALSE,OE,p,769,oe,P,8,e,e,TRUE,1,-0.517252401
CVOE_B,1002,1,1,102,H 64,,,FALSE,OE,p,813,oe,H,4,e,e,TRUE,1,-0.498153859
CVOE_B,1002,1,1,103,A 13,,,FALSE,OE,q,651,oe,A,3,o,o,TRUE,1,-0.568471216
CVOE_B,1002,1,1,104,H 68,,,FALSE,OE,p,696,oe,H,8,e,e,TRUE,1,-0.548938617
CVOE_B,1002,1,1,105,E 16,,,TRUE,OE,p,1276,oe,E,6,e,e,TRUE,1,-0.297185117
CVOE_B,1002,1,1,106,S 71,,,TRUE,OE,q,762,oe,S,1,o,o,TRUE,1,-0.520290805
CVOE_C,1003,1,1,11,A 24,,,TRUE,OE,p,2056,oe,A,4,e,e,TRUE,1,0.041379936
CVOE_C,1003,1,1,12,O 83,,,FALSE,OE,q,970,oe,O,3,o,o,TRUE,1,-0.430006791
CVOE_C,1003,1,1,13,H 55,,,TRUE,OE,q,931,oe,H,5,o,o,TRUE,1,-0.446935044
CVOE_C,1003,1,1,14,P 10,,,FALSE,OE,p,689,oe,P,0,e,e,TRUE,1,-0.551977021
CVOE_C,1003,1,1,15,D 30,,,FALSE,OE,p,1679,oe,D,0,e,e,TRUE,1,-0.12225984
CVOE_C,1003,1,1,16,U 62,,,TRUE,OE,p,1155,oe,U,2,e,e,TRUE,1,-0.349706106
CVOE_C,1003,1,1,17,P 95,,,TRUE,OE,q,1010,oe,P,5,o,o,TRUE,1,-0.412644481
CVOE_C,1003,1,1,18,U 06,,,TRUE,OE,p,765,oe,U,6,e,e,TRUE,1,-0.518988632
CVOE_C,1003,1,1,19,E 75,,,FALSE,OE,q,889,oe,E,5,o,o,TRUE,1,-0.46516547
CVOE_C,1003,1,1,20,I 67,,,FALSE,OE,q,1325,oe,I,7,o,o,TRUE,1,-0.275916287
CVOE_C,1003,1,1,21,S 13,,,TRUE,OE,q,881,oe,S,3,o,o,TRUE,1,-0.468637932
CVOE_C,1003,1,1,22,P 78,,,FALSE,OE,p,652,oe,P,8,e,e,TRUE,1,-0.568037159
CVOE_C,1003,1,1,23,I 15,,,FALSE,OE,q,774,oe,I,5,o,o,TRUE,1,-0.515082112
CVOE_C,1003,1,1,24,D 27,,,TRUE,OE,q,879,oe,D,7,o,o,TRUE,1,-0.469506047
CVOE_C,1003,1,1,25,O 94,,,TRUE,OE,p,963,oe,O,4,e,e,TRUE,1,-0.433045195
CVOE_C,1003,1,1,26,A 65,,,FALSE,OE,q,767,oe,A,5,o,o,TRUE,1,-0.518120516
CVOE_C,1003,1,1,27,I 42,,,TRUE,OE,p,1712,oe,I,2,e,e,TRUE,1,-0.107935934
CVOE_C,1003,1,1,28,E 25,,,FALSE,OE,q,921,oe,E,5,o,o,TRUE,1,-0.451275621
CVOE_C,1003,1,1,29,H 49,,,TRUE,OE,q,892,oe,H,9,o,o,TRUE,1,-0.463863296
CVOE_C,1003,1,1,30,S 18,,,FALSE,OE,p,585,oe,S,8,e,e,TRUE,1,-0.597119028
CVOE_C,1003,1,1,31,H 51,,,TRUE,OE,q,970,oe,H,1,o,o,TRUE,1,-0.430006791
CVOE_C,1003,1,1,32,U 14,,,TRUE,OE,p,852,oe,U,4,e,e,TRUE,1,-0.481225607
CVOE_C,1003,1,1,34,J 26,,,FALSE,OE,p,3822,oe,J,6,e,e,TRUE,1,0.807925938
CVOE_C,1003,1,1,35,D 24,,,FALSE,OE,p,1746,oe,D,4,e,e,TRUE,1,-0.09317797
CVOE_C,1003,1,1,36,O 50,,,TRUE,OE,p,569,oe,O,0,e,e,TRUE,1,-0.604063953
CVOE_C,1003,1,1,37,U 16,,,TRUE,OE,p,696,oe,U,6,e,e,TRUE,1,-0.548938617
CVOE_C,1003,1,1,38,O 15,,,FALSE,OE,q,651,oe,O,5,o,o,TRUE,1,-0.568471216
CVOE_C,1003,1,1,39,D 32,,,FALSE,OE,p,890,oe,D,2,e,e,TRUE,1,-0.464731412
CVOE_C,1003,1,1,40,S 67,,,TRUE,OE,q,856,oe,S,7,o,o,TRUE,1,-0.479489376
CVOE_C,1003,1,1,41,J 74,,,FALSE,OE,p,934,oe,J,4,e,e,TRUE,1,-0.44563287
CVOE_C,1003,1,1,42,D 92,,,FALSE,OE,p,889,oe,D,2,e,e,TRUE,1,-0.46516547
CVOE_C,1003,1,1,43,A 65,,,FALSE,OE,q,738,oe,A,5,o,o,TRUE,1,-0.530708191
CVOE_C,1003,1,1,44,I 87,,,FALSE,OE,q,698,oe,I,7,o,o,TRUE,1,-0.548070502
CVOE_C,1003,1,1,45,H 61,,,TRUE,OE,q,691,oe,H,1,o,o,TRUE,1,-0.551108906
CVOE_C,1003,1,1,46,E 59,,,FALSE,OE,q,802,oe,E,9,o,o,TRUE,1,-0.502928495
CVOE_C,1003,1,1,47,I 33,,,FALSE,OE,q,894,oe,I,3,o,o,TRUE,1,-0.462995181
CVOE_C,1003,1,1,48,O 90,,,TRUE,OE,p,765,oe,O,0,e,e,TRUE,1,-0.518988632
CVOE_C,1003,1,1,49,U 51,,,FALSE,OE,q,691,oe,U,1,o,o,TRUE,1,-0.551108906
CVOE_C,1003,1,1,50,A 10,,,TRUE,OE,p,1548,oe,A,0,e,e,TRUE,1,-0.179121406
CVOE_C,1003,1,1,51,E 50,,,TRUE,OE,p,649,oe,E,0,e,e,TRUE,1,-0.569339332
CVOE_C,1003,1,1,52,D 92,,,FALSE,OE,p,2024,oe,D,2,e,e,TRUE,1,0.027490087
CVOE_C,1003,1,1,53,E 60,,,TRUE,OE,p,814,oe,E,0,e,e,TRUE,1,-0.497719802
CVOE_C,1003,1,1,54,A 95,,,FALSE,OE,q,748,oe,A,5,o,o,TRUE,1,-0.526367614
CVOE_C,1003,1,1,55,E 64,,,TRUE,OE,p,730,oe,E,4,e,e,TRUE,1,-0.534180653
CVOE_C,1003,1,1,56,P 20,,,FALSE,OE,p,669,oe,P,0,e,e,TRUE,1,-0.560658177
CVOE_C,1003,1,1,57,S 06,,,FALSE,OE,p,735,oe,S,6,e,e,TRUE,1,-0.532010365
CVOE_C,1003,1,1,58,P 64,,,FALSE,OE,p,616,oe,P,4,e,e,TRUE,1,-0.583663238
CVOE_C,1003,1,1,59,U 70,,,TRUE,OE,p,575,oe,U,0,e,e,TRUE,1,-0.601459606
CVOE_C,1003,1,1,60,S 16,,,FALSE,OE,p,608,oe,S,6,e,e,TRUE,1,-0.5871357
CVOE_C,1003,1,1,61,E 35,,,FALSE,OE,q,646,oe,E,5,o,o,TRUE,1,-0.570641505
CVOE_C,1003,1,1,62,I 93,,,FALSE,OE,q,650,oe,I,3,o,o,TRUE,1,-0.568905274
CVOE_C,1003,1,1,63,D 63,,,TRUE,OE,q,579,oe,D,3,o,o,TRUE,1,-0.599723375
CVOE_C,1003,1,1,64,U 89,,,FALSE,OE,q,767,oe,U,9,o,o,TRUE,1,-0.518120516
CVOE_C,1003,1,1,65,E 91,,,FALSE,OE,q,733,oe,E,1,o,o,TRUE,1,-0.53287848
CVOE_C,1003,1,1,66,A 12,,,TRUE,OE,p,810,oe,A,2,e,e,TRUE,1,-0.499456033
CVOE_C,1003,1,1,67,P 56,,,FALSE,OE,p,805,oe,P,6,e,e,TRUE,1,-0.501626321
CVOE_C,1003,1,1,68,S 65,,,TRUE,OE,q,1693,oe,S,5,o,o,TRUE,1,-0.116183031
CVOE_C,1003,1,1,69,P 07,,,TRUE,OE,q,841,oe,P,7,o,o,TRUE,1,-0.486000242
CVOE_C,1003,1,1,70,I 77,,,FALSE,OE,q,605,oe,I,7,o,o,TRUE,1,-0.588437873
CVOE_C,1003,1,1,71,J 19,,,TRUE,OE,q,543,oe,J,9,o,o,TRUE,1,-0.615349454
CVOE_C,1003,1,1,72,O 59,,,FALSE,OE,q,726,oe,O,9,o,o,TRUE,1,-0.535916884
CVOE_C,1003,1,1,73,J 15,,,TRUE,OE,q,568,oe,J,5,o,o,TRUE,1,-0.60449801
CVOE_C,1003,1,1,74,I 89,,,FALSE,OE,q,617,oe,I,9,o,o,TRUE,1,-0.58322918
CVOE_C,1003,1,1,75,O 97,,,FALSE,OE,q,616,oe,O,7,o,o,TRUE,1,-0.583663238
CVOE_C,1003,1,1,76,A 92,,,TRUE,OE,p,771,oe,A,2,e,e,TRUE,1,-0.516384285
CVOE_C,1003,1,1,77,J 90,,,FALSE,OE,p,542,oe,J,0,e,e,TRUE,1,-0.615783512
CVOE_C,1003,1,1,78,H 65,,,TRUE,OE,q,764,oe,H,5,o,o,TRUE,1,-0.51942269
CVOE_C,1003,1,1,79,H 17,,,TRUE,OE,q,690,oe,H,7,o,o,TRUE,1,-0.551542964
CVOE_C,1003,1,1,80,S 26,,,FALSE,OE,p,606,oe,S,6,e,e,TRUE,1,-0.588003816
CVOE_C,1003,1,1,81,D 56,,,FALSE,OE,p,817,oe,D,6,e,e,TRUE,1,-0.496417628
CVOE_C,1003,1,1,82,I 91,,,FALSE,OE,q,693,oe,I,1,o,o,TRUE,1,-0.55024079
CVOE_C,1003,1,1,83,J 11,,,TRUE,OE,q,687,oe,J,1,o,o,TRUE,1,-0.552845137
CVOE_C,1003,1,1,84,O 28,,,TRUE,OE,p,579,oe,O,8,e,e,TRUE,1,-0.599723375
CVOE_C,1003,1,1,85,H 29,,,TRUE,OE,q,690,oe,H,9,o,o,TRUE,1,-0.551542964
CVOE_C,1003,1,1,86,J 25,,,TRUE,OE,q,543,oe,J,5,o,o,TRUE,1,-0.615349454
CVOE_C,1003,1,1,87,A 73,,,FALSE,OE,q,609,oe,A,3,o,o,TRUE,1,-0.586701642
CVOE_C,1003,1,1,88,J 63,,,TRUE,OE,q,452,oe,J,3,o,o,TRUE,1,-0.65484871
CVOE_C,1003,1,1,89,U 84,,,TRUE,OE,p,500,oe,U,4,e,e,TRUE,1,-0.634013938
CVOE_C,1003,1,1,90,A 58,,,TRUE,OE,p,537,oe,A,8,e,e,TRUE,1,-0.617953801
CVOE_C,1003,1,1,91,S 43,,,TRUE,OE,q,542,oe,S,3,o,o,TRUE,1,-0.615783512
CVOE_C,1003,1,1,92,H 54,,,FALSE,OE,p,529,oe,H,4,e,e,TRUE,1,-0.621426263
CVOE_C,1003,1,1,94,J 75,,,TRUE,OE,q,2179,oe,J,5,o,o,TRUE,1,0.09476904
CVOE_C,1003,1,1,95,D 19,,,TRUE,OE,q,492,oe,D,9,o,o,TRUE,1,-0.6374864
CVOE_C,1003,1,1,96,J 38,,,FALSE,OE,p,569,oe,J,8,e,e,TRUE,1,-0.604063953
CVOE_C,1003,1,1,97,I 56,,,TRUE,OE,p,1205,oe,I,6,e,e,TRUE,1,-0.328003218
CVOE_C,1003,1,1,98,P 87,,,TRUE,OE,q,660,oe,P,7,o,o,TRUE,1,-0.564564697
CVOE_C,1003,1,1,99,O 80,,,TRUE,OE,p,687,oe,O,0,e,e,TRUE,1,-0.552845137
CVOE_C,1003,1,1,100,U 60,,,TRUE,OE,p,674,oe,U,0,e,e,TRUE,1,-0.558487888
CVOE_C,1003,1,1,101,P 48,,,FALSE,OE,p,881,oe,P,8,e,e,TRUE,1,-0.468637932
CVOE_C,1003,1,1,102,H 64,,,FALSE,OE,p,456,oe,H,4,e,e,TRUE,1,-0.653112479
CVOE_C,1003,1,1,103,A 13,,,FALSE,OE,q,543,oe,A,3,o,o,TRUE,1,-0.615349454
CVOE_C,1003,1,1,104,H 68,,,FALSE,OE,p,609,oe,H,8,e,e,TRUE,1,-0.586701642
CVOE_C,1003,1,1,105,E 16,,,TRUE,OE,p,764,oe,E,6,e,e,TRUE,1,-0.51942269
CVOE_C,1003,1,1,106,S 71,,,TRUE,OE,q,576,oe,S,1,o,o,TRUE,1,-0.601025548
CVOE_C,1007,1,1,11,A 24,,,TRUE,OE,p,2259,oe,A,4,e,e,TRUE,1,0.129493661
CVOE_C,1007,1,1,12,O 83,,,FALSE,OE,q,1316,oe,O,3,o,o,TRUE,1,-0.279822806
CVOE_C,1007,1,1,13,H 55,,,TRUE,OE,q,1224,oe,H,5,o,o,TRUE,1,-0.31975612
CVOE_C,1007,1,1,14,P 10,,,FALSE,OE,p,1514,oe,P,0,e,e,TRUE,1,-0.19387937
CVOE_C,1007,1,1,15,D 30,,,FALSE,OE,p,4267,oe,D,0,e,e,TRUE,1,1.001081641
CVOE_C,1007,1,1,16,U 62,,,TRUE,OE,p,2560,oe,U,2,e,e,TRUE,1,0.260145046
CVOE_C,1007,1,1,17,P 95,,,TRUE,OE,q,1652,oe,P,5,o,o,TRUE,1,-0.133979399
CVOE_C,1007,1,1,18,U 06,,,TRUE,OE,p,1178,oe,U,6,e,e,TRUE,1,-0.339722777
CVOE_C,1007,1,1,19,E 75,,,FALSE,OE,q,1148,oe,E,5,o,o,TRUE,1,-0.35274451
CVOE_C,1007,1,1,20,I 67,,,FALSE,OE,q,2159,oe,I,7,o,o,TRUE,1,0.086087885
CVOE_C,1007,1,1,21,S 13,,,TRUE,OE,q,1359,oe,S,3,o,o,TRUE,1,-0.261158323
CVOE_C,1007,1,1,23,I 15,,,FALSE,OE,q,1263,oe,I,5,o,o,TRUE,1,-0.302827868
CVOE_C,1007,1,1,24,D 27,,,TRUE,OE,q,1195,oe,D,7,o,o,TRUE,1,-0.332343795
CVOE_C,1007,1,1,25,O 94,,,TRUE,OE,p,6879,oe,O,4,e,e,TRUE,1,2.134840509
CVOE_C,1007,1,1,26,A 65,,,FALSE,OE,q,1398,oe,A,5,o,o,TRUE,1,-0.24423007
CVOE_C,1007,1,1,27,I 42,,,TRUE,OE,p,1929,oe,I,2,e,e,TRUE,1,-0.0137454
CVOE_C,1007,1,1,28,E 25,,,FALSE,OE,q,3260,oe,E,5,o,o,TRUE,1,0.563985478
CVOE_C,1007,1,1,29,H 49,,,TRUE,OE,q,3095,oe,H,9,o,o,TRUE,1,0.492365947
CVOE_C,1007,1,1,30,S 18,,,FALSE,OE,p,1295,oe,S,8,e,e,TRUE,1,-0.288938019
CVOE_C,1007,1,1,31,H 51,,,TRUE,OE,q,3003,oe,H,1,o,o,TRUE,1,0.452432634
CVOE_C,1007,1,1,32,U 14,,,TRUE,OE,p,2035,oe,U,4,e,e,TRUE,1,0.032264723
CVOE_C,1007,1,1,33,E 02,,,TRUE,OE,p,1661,oe,E,2,e,e,TRUE,1,-0.130072879
CVOE_C,1007,1,1,34,J 26,,,FALSE,OE,p,2371,oe,J,6,e,e,TRUE,1,0.17810813
CVOE_C,1007,1,1,35,D 24,,,FALSE,OE,p,2847,oe,D,4,e,e,TRUE,1,0.384719623
CVOE_C,1007,1,1,36,O 50,,,TRUE,OE,p,1298,oe,O,0,e,e,TRUE,1,-0.287635846
CVOE_C,1007,1,1,37,U 16,,,TRUE,OE,p,1074,oe,U,6,e,e,TRUE,1,-0.384864784
CVOE_C,1007,1,1,38,O 15,,,FALSE,OE,q,2220,oe,O,5,o,o,TRUE,1,0.112565408
CVOE_C,1007,1,1,39,D 32,,,FALSE,OE,p,2291,oe,D,2,e,e,TRUE,1,0.143383509
CVOE_C,1007,1,1,40,S 67,,,TRUE,OE,q,2220,oe,S,7,o,o,TRUE,1,0.112565408
CVOE_C,1007,1,1,43,A 65,,,FALSE,OE,q,2366,oe,A,5,o,o,TRUE,1,0.175937841
CVOE_C,1007,1,1,44,I 87,,,FALSE,OE,q,1136,oe,I,7,o,o,TRUE,1,-0.357953203
CVOE_C,1007,1,1,45,H 61,,,TRUE,OE,q,1286,oe,H,1,o,o,TRUE,1,-0.292844539
CVOE_C,1007,1,1,46,E 59,,,FALSE,OE,q,1049,oe,E,9,o,o,TRUE,1,-0.395716228
CVOE_C,1007,1,1,47,I 33,,,FALSE,OE,q,2824,oe,I,3,o,o,TRUE,1,0.374736295
CVOE_C,1007,1,1,48,O 90,,,TRUE,OE,p,6275,oe,O,0,e,e,TRUE,1,1.872669622
CVOE_C,1007,1,1,49,U 51,,,FALSE,OE,q,1757,oe,U,1,o,o,TRUE,1,-0.088403335
CVOE_C,1007,1,1,50,A 10,,,TRUE,OE,p,1282,oe,A,0,e,e,TRUE,1,-0.29458077
CVOE_C,1007,1,1,51,E 50,,,TRUE,OE,p,1351,oe,E,0,e,e,TRUE,1,-0.264630785
CVOE_C,1007,1,1,53,E 60,,,TRUE,OE,p,1289,oe,E,0,e,e,TRUE,1,-0.291542366
CVOE_C,1007,1,1,54,A 95,,,FALSE,OE,q,2371,oe,A,5,o,o,TRUE,1,0.17810813
CVOE_C,1007,1,1,55,E 64,,,TRUE,OE,p,2018,oe,E,4,e,e,TRUE,1,0.024885741
CVOE_C,1007,1,1,56,P 20,,,FALSE,OE,p,1174,oe,P,0,e,e,TRUE,1,-0.341459008
CVOE_C,1007,1,1,57,S 06,,,FALSE,OE,p,2592,oe,S,6,e,e,TRUE,1,0.274034895
CVOE_C,1007,1,1,58,P 64,,,FALSE,OE,p,2328,oe,P,4,e,e,TRUE,1,0.159443646
CVOE_C,1007,1,1,59,U 70,,,TRUE,OE,p,2915,oe,U,0,e,e,TRUE,1,0.414235551
CVOE_C,1007,1,1,60,S 16,,,FALSE,OE,p,2454,oe,S,6,e,e,TRUE,1,0.214134924
CVOE_C,1007,1,1,61,E 35,,,FALSE,OE,q,1747,oe,E,5,o,o,TRUE,1,-0.092743912
CVOE_C,1007,1,1,62,I 93,,,FALSE,OE,q,2209,oe,I,3,o,o,TRUE,1,0.107790773
CVOE_C,1007,1,1,63,D 63,,,TRUE,OE,q,3152,oe,D,3,o,o,TRUE,1,0.51710724
CVOE_C,1007,1,1,64,U 89,,,FALSE,OE,q,1173,oe,U,9,o,o,TRUE,1,-0.341893066
CVOE_C,1007,1,1,65,E 91,,,FALSE,OE,q,2038,oe,E,1,o,o,TRUE,1,0.033566896
CVOE_C,1007,1,1,66,A 12,,,TRUE,OE,p,1337,oe,A,2,e,e,TRUE,1,-0.270707593
CVOE_C,1007,1,1,68,S 65,,,TRUE,OE,q,1480,oe,S,5,o,o,TRUE,1,-0.208637334
CVOE_C,1007,1,1,69,P 07,,,TRUE,OE,q,1514,oe,P,7,o,o,TRUE,1,-0.19387937
CVOE_C,1007,1,1,70,I 77,,,FALSE,OE,q,1626,oe,I,7,o,o,TRUE,1,-0.145264901
CVOE_C,1007,1,1,71,J 19,,,TRUE,OE,q,1423,oe,J,9,o,o,TRUE,1,-0.233378626
CVOE_C,1007,1,1,72,O 59,,,FALSE,OE,q,1370,oe,O,9,o,o,TRUE,1,-0.256383687
CVOE_C,1007,1,1,73,J 15,,,TRUE,OE,q,1857,oe,J,5,o,o,TRUE,1,-0.044997559
CVOE_C,1007,1,1,74,I 89,,,FALSE,OE,q,1446,oe,I,9,o,o,TRUE,1,-0.223395298
CVOE_C,1007,1,1,75,O 97,,,FALSE,OE,q,1115,oe,O,7,o,o,TRUE,1,-0.367068416
CVOE_C,1007,1,1,77,J 90,,,FALSE,OE,p,1415,oe,J,0,e,e,TRUE,1,-0.236851088
CVOE_C,1007,1,1,78,H 65,,,TRUE,OE,q,1377,oe,H,5,o,o,TRUE,1,-0.253345283
CVOE_C,1007,1,1,79,H 17,,,TRUE,OE,q,1804,oe,H,7,o,o,TRUE,1,-0.06800262
CVOE_C,1007,1,1,80,S 26,,,FALSE,OE,p,2141,oe,S,6,e,e,TRUE,1,0.078274845
CVOE_C,1007,1,1,82,I 91,,,FALSE,OE,q,1891,oe,I,1,o,o,TRUE,1,-0.030239595
CVOE_C,1007,1,1,83,J 11,,,TRUE,OE,q,1789,oe,J,1,o,o,TRUE,1,-0.074513486
CVOE_C,1007,1,1,84,O 28,,,TRUE,OE,p,2449,oe,O,8,e,e,TRUE,1,0.211964635
CVOE_C,1007,1,1,85,H 29,,,TRUE,OE,q,1571,oe,H,9,o,o,TRUE,1,-0.169138078
CVOE_C,1007,1,1,86,J 25,,,TRUE,OE,q,3521,oe,J,5,o,o,TRUE,1,0.677274553
CVOE_C,1007,1,1,87,A 73,,,FALSE,OE,q,1357,oe,A,3,o,o,TRUE,1,-0.262026438
CVOE_C,1007,1,1,88,J 63,,,TRUE,OE,q,1467,oe,J,3,o,o,TRUE,1,-0.214280085
CVOE_C,1007,1,1,89,U 84,,,TRUE,OE,p,1590,oe,U,4,e,e,TRUE,1,-0.16089098
CVOE_C,1007,1,1,91,S 43,,,TRUE,OE,q,1613,oe,S,3,o,o,TRUE,1,-0.150907652
CVOE_C,1007,1,1,94,J 75,,,TRUE,OE,q,1262,oe,J,5,o,o,TRUE,1,-0.303261925
CVOE_C,1007,1,1,95,D 19,,,TRUE,OE,q,1384,oe,D,9,o,o,TRUE,1,-0.250306879
CVOE_C,1007,1,1,98,P 87,,,TRUE,OE,q,1395,oe,P,7,o,o,TRUE,1,-0.245532243
CVOE_C,1007,1,1,99,O 80,,,TRUE,OE,p,1165,oe,O,0,e,e,TRUE,1,-0.345365528
CVOE_C,1007,1,1,100,U 60,,,TRUE,OE,p,962,oe,U,0,e,e,TRUE,1,-0.433479253
CVOE_C,1007,1,1,101,P 48,,,FALSE,OE,p,1328,oe,P,8,e,e,TRUE,1,-0.274614113
CVOE_C,1007,1,1,102,H 64,,,FALSE,OE,p,1546,oe,H,4,e,e,TRUE,1,-0.179989522
CVOE_C,1007,1,1,103,A 13,,,FALSE,OE,q,1216,oe,A,3,o,o,TRUE,1,-0.323228582
CVOE_C,1007,1,1,104,H 68,,,FALSE,OE,p,1920,oe,H,8,e,e,TRUE,1,-0.01765192
CVOE_C,1007,1,1,105,E 16,,,TRUE,OE,p,1061,oe,E,6,e,e,TRUE,1,-0.390507535
CVOE_C,1007,1,1,106,S 71,,,TRUE,OE,q,1421,oe,S,1,o,o,TRUE,1,-0.234246742
CVOE_D,1008,1,1,11,A 71,,,FALSE,CV,p,1555,cv,A,1,v,v,TRUE,1,-0.176083002
CVOE_D,1008,1,1,12,I 66,,,TRUE,CV,p,969,cv,I,6,v,v,TRUE,1,-0.430440849
CVOE_D,1008,1,1,13,S 30,,,FALSE,CV,q,672,cv,S,0,c,c,TRUE,1,-0.559356003
CVOE_D,1008,1,1,14,D 20,,,FALSE,CV,q,806,cv,D,0,c,c,TRUE,1,-0.501192264
CVOE_D,1008,1,1,15,I 31,,,FALSE,CV,p,755,cv,I,1,v,v,TRUE,1,-0.523329209
CVOE_D,1008,1,1,16,P 16,,,FALSE,CV,q,546,cv,P,6,c,c,TRUE,1,-0.614047281
CVOE_D,1008,1,1,17,A 49,,,FALSE,CV,p,1436,cv,A,9,v,v,TRUE,1,-0.227735875
CVOE_D,1008,1,1,18,O 64,,,TRUE,CV,p,892,cv,O,4,v,v,TRUE,1,-0.463863296
CVOE_D,1008,1,1,19,D 02,,,FALSE,CV,q,605,cv,D,2,c,c,TRUE,1,-0.588437873
CVOE_D,1008,1,1,20,P 81,,,TRUE,CV,q,756,cv,P,1,c,c,TRUE,1,-0.522895152
CVOE_D,1008,1,1,21,J 58,,,FALSE,CV,q,569,cv,J,8,c,c,TRUE,1,-0.604063953
CVOE_D,1008,1,1,22,A 22,,,TRUE,CV,p,670,cv,A,2,v,v,TRUE,1,-0.560224119
CVOE_D,1008,1,1,23,J 72,,,FALSE,CV,q,1232,cv,J,2,c,c,TRUE,1,-0.316283658
CVOE_D,1008,1,1,24,P 91,,,TRUE,CV,q,745,cv,P,1,c,c,TRUE,1,-0.527669787
CVOE_D,1008,1,1,25,E 19,,,FALSE,CV,p,556,cv,E,9,v,v,TRUE,1,-0.609706703
CVOE_D,1008,1,1,26,I 30,,,TRUE,CV,p,757,cv,I,0,v,v,TRUE,1,-0.522461094
CVOE_D,1008,1,1,27,D 91,,,TRUE,CV,q,533,cv,D,1,c,c,TRUE,1,-0.619690032
CVOE_D,1008,1,1,28,O 48,,,TRUE,CV,p,606,cv,O,8,v,v,TRUE,1,-0.588003816
CVOE_D,1008,1,1,29,A 89,,,FALSE,CV,p,1326,cv,A,9,v,v,TRUE,1,-0.275482229
CVOE_D,1008,1,1,30,U 11,,,FALSE,CV,p,969,cv,U,1,v,v,TRUE,1,-0.430440849
CVOE_D,1008,1,1,31,I 76,,,TRUE,CV,p,532,cv,I,6,v,v,TRUE,1,-0.62012409
CVOE_D,1008,1,1,32,U 89,,,FALSE,CV,p,473,cv,U,9,v,v,TRUE,1,-0.645733498
CVOE_D,1008,1,1,33,D 63,,,TRUE,CV,q,540,cv,D,3,c,c,TRUE,1,-0.616651628
CVOE_D,1008,1,1,35,D 48,,,FALSE,CV,q,4146,cv,D,8,c,c,TRUE,1,0.948560652
CVOE_D,1008,1,1,36,P 56,,,FALSE,CV,q,1718,cv,P,6,c,c,TRUE,1,-0.105331587
CVOE_D,1008,1,1,37,O 77,,,FALSE,CV,p,952,cv,O,7,v,v,TRUE,1,-0.437819831
CVOE_D,1008,1,1,38,P 42,,,FALSE,CV,q,659,cv,P,2,c,c,TRUE,1,-0.564998754
CVOE_D,1008,1,1,39,H 22,,,FALSE,CV,q,807,cv,H,2,c,c,TRUE,1,-0.500758206
CVOE_D,1008,1,1,40,E 42,,,TRUE,CV,p,739,cv,E,2,v,v,TRUE,1,-0.530274134
CVOE_D,1008,1,1,41,J 28,,,FALSE,CV,q,528,cv,J,8,c,c,TRUE,1,-0.621860321
CVOE_D,1008,1,1,42,E 95,,,FALSE,CV,p,662,cv,E,5,v,v,TRUE,1,-0.563696581
CVOE_D,1008,1,1,43,S 63,,,TRUE,CV,q,919,cv,S,3,c,c,TRUE,1,-0.452143737
CVOE_D,1008,1,1,44,H 50,,,FALSE,CV,q,637,cv,H,0,c,c,TRUE,1,-0.574548025
CVOE_D,1008,1,1,45,S 33,,,TRUE,CV,q,679,cv,S,3,c,c,TRUE,1,-0.556317599
CVOE_D,1008,1,1,46,P 57,,,TRUE,CV,q,638,cv,P,7,c,c,TRUE,1,-0.574113967
CVOE_D,1008,1,1,47,E 23,,,FALSE,CV,p,548,cv,E,3,v,v,TRUE,1,-0.613179166
CVOE_D,1008,1,1,48,S 61,,,TRUE,CV,q,762,cv,S,1,c,c,TRUE,1,-0.520290805
CVOE_D,1008,1,1,49,U 67,,,FALSE,CV,p,730,cv,U,7,v,v,TRUE,1,-0.534180653
CVOE_D,1008,1,1,50,H 32,,,FALSE,CV,q,573,cv,H,2,c,c,TRUE,1,-0.602327722
CVOE_D,1008,1,1,51,U 50,,,TRUE,CV,p,785,cv,U,0,v,v,TRUE,1,-0.510307477
CVOE_D,1008,1,1,52,O 49,,,FALSE,CV,p,887,cv,O,9,v,v,TRUE,1,-0.466033585
CVOE_D,1008,1,1,53,U 32,,,TRUE,CV,p,479,cv,U,2,v,v,TRUE,1,-0.643129151
CVOE_D,1008,1,1,54,J 78,,,FALSE,CV,q,559,cv,J,8,c,c,TRUE,1,-0.60840453
CVOE_D,1008,1,1,55,S 54,,,FALSE,CV,q,1097,cv,S,4,c,c,TRUE,1,-0.374881456
CVOE_D,1008,1,1,56,J 27,,,TRUE,CV,q,549,cv,J,7,c,c,TRUE,1,-0.612745108
CVOE_D,1008,1,1,57,S 06,,,FALSE,CV,q,552,cv,S,6,c,c,TRUE,1,-0.611442935
CVOE_D,1008,1,1,58,D 67,,,TRUE,CV,q,704,cv,D,7,c,c,TRUE,1,-0.545466155
CVOE_D,1008,1,1,59,A 79,,,FALSE,CV,p,535,cv,A,9,v,v,TRUE,1,-0.618821916
CVOE_D,1008,1,1,60,S 52,,,FALSE,CV,q,903,cv,S,2,c,c,TRUE,1,-0.459088661
CVOE_D,1008,1,1,61,U 16,,,TRUE,CV,p,718,cv,U,6,v,v,TRUE,1,-0.539389346
CVOE_D,1008,1,1,62,O 82,,,TRUE,CV,p,667,cv,O,2,v,v,TRUE,1,-0.561526292
CVOE_D,1008,1,1,63,H 87,,,TRUE,CV,q,537,cv,H,7,c,c,TRUE,1,-0.617953801
CVOE_D,1008,1,1,64,I 32,,,TRUE,CV,p,514,cv,I,2,v,v,TRUE,1,-0.627937129
CVOE_D,1008,1,1,65,U 37,,,FALSE,CV,p,679,cv,U,7,v,v,TRUE,1,-0.556317599
CVOE_D,1008,1,1,66,I 42,,,TRUE,CV,p,481,cv,I,2,v,v,TRUE,1,-0.642261035
CVOE_D,1008,1,1,67,D 65,,,TRUE,CV,q,563,cv,D,5,c,c,TRUE,1,-0.606668299
CVOE_D,1008,1,1,68,U 77,,,FALSE,CV,p,529,cv,U,7,v,v,TRUE,1,-0.621426263
CVOE_D,1008,1,1,69,E 12,,,TRUE,CV,p,544,cv,E,2,v,v,TRUE,1,-0.614915397
CVOE_D,1008,1,1,70,I 60,,,TRUE,CV,p,816,cv,I,0,v,v,TRUE,1,-0.496851686
CVOE_D,1008,1,1,71,J 36,,,FALSE,CV,q,617,cv,J,6,c,c,TRUE,1,-0.58322918
CVOE_D,1008,1,1,72,H 75,,,TRUE,CV,q,826,cv,H,5,c,c,TRUE,1,-0.492511108
CVOE_D,1008,1,1,73,I 50,,,TRUE,CV,p,1503,cv,I,0,v,v,TRUE,1,-0.198654005
CVOE_D,1008,1,1,74,E 99,,,FALSE,CV,p,542,cv,E,9,v,v,TRUE,1,-0.615783512
CVOE_D,1008,1,1,75,A 86,,,TRUE,CV,p,604,cv,A,6,v,v,TRUE,1,-0.588871931
CVOE_D,1008,1,1,76,U 48,,,TRUE,CV,p,542,cv,U,8,v,v,TRUE,1,-0.615783512
CVOE_D,1008,1,1,77,E 01,,,FALSE,CV,p,485,cv,E,1,v,v,TRUE,1,-0.640524804
CVOE_D,1008,1,1,78,A 78,,,TRUE,CV,p,485,cv,A,8,v,v,TRUE,1,-0.640524804
CVOE_D,1008,1,1,79,P 60,,,FALSE,CV,q,516,cv,P,0,c,c,TRUE,1,-0.627069014
CVOE_D,1008,1,1,80,E 43,,,FALSE,CV,p,635,cv,E,3,v,v,TRUE,1,-0.57541614
CVOE_D,1008,1,1,81,D 69,,,TRUE,CV,q,528,cv,D,9,c,c,TRUE,1,-0.621860321
CVOE_D,1008,1,1,82,H 11,,,TRUE,CV,q,560,cv,H,1,c,c,TRUE,1,-0.607970472
CVOE_D,1008,1,1,83,P 43,,,TRUE,CV,q,597,cv,P,3,c,c,TRUE,1,-0.591910335
CVOE_D,1008,1,1,84,O 67,,,FALSE,CV,p,477,cv,O,7,v,v,TRUE,1,-0.643997266
CVOE_D,1008,1,1,85,S 91,,,FALSE,CV,q,530,cv,S,1,c,c,TRUE,1,-0.620992205
CVOE_D,1008,1,1,86,J 68,,,TRUE,CV,q,588,cv,J,8,c,c,TRUE,1,-0.595816855
CVOE_D,1008,1,1,87,S 47,,,FALSE,CV,q,586,cv,S,7,c,c,TRUE,1,-0.596684971
CVOE_D,1008,1,1,88,I 81,,,TRUE,CV,p,570,cv,I,1,v,v,TRUE,1,-0.603629895
CVOE_D,1008,1,1,89,J 39,,,FALSE,CV,q,601,cv,J,9,c,c,TRUE,1,-0.590174104
CVOE_D,1008,1,1,90,A 11,,,TRUE,CV,p,467,cv,A,1,v,v,TRUE,1,-0.648337844
CVOE_D,1008,1,1,91,O 76,,,FALSE,CV,p,589,cv,O,6,v,v,TRUE,1,-0.595382797
CVOE_D,1008,1,1,92,A 62,,,FALSE,CV,p,654,cv,A,2,v,v,TRUE,1,-0.567169043
CVOE_D,1008,1,1,93,O 27,,,TRUE,CV,p,908,cv,O,7,v,v,TRUE,1,-0.456918372
CVOE_D,1008,1,1,94,E 66,,,FALSE,CV,p,1407,cv,E,6,v,v,TRUE,1,-0.24032355
CVOE_D,1008,1,1,95,J 62,,,TRUE,CV,q,494,cv,J,2,c,c,TRUE,1,-0.636618285
CVOE_D,1008,1,1,96,H 72,,,TRUE,CV,q,722,cv,H,2,c,c,TRUE,1,-0.537653115
CVOE_D,1008,1,1,97,E 49,,,TRUE,CV,p,601,cv,E,9,v,v,TRUE,1,-0.590174104
CVOE_D,1008,1,1,98,D 52,,,TRUE,CV,q,853,cv,D,2,c,c,TRUE,1,-0.480791549
CVOE_D,1008,1,1,99,H 62,,,TRUE,CV,q,738,cv,H,2,c,c,TRUE,1,-0.530708191
CVOE_D,1008,1,1,100,I 11,,,TRUE,CV,p,528,cv,I,1,v,v,TRUE,1,-0.621860321
CVOE_D,1008,1,1,101,A 98,,,FALSE,CV,p,490,cv,A,8,v,v,TRUE,1,-0.638354516
CVOE_D,1008,1,1,102,H 29,,,FALSE,CV,q,636,cv,H,9,c,c,TRUE,1,-0.574982083
CVOE_D,1008,1,1,103,E 83,,,TRUE,CV,p,650,cv,E,3,v,v,TRUE,1,-0.568905274
CVOE_D,1008,1,1,104,D 43,,,FALSE,CV,q,567,cv,D,3,c,c,TRUE,1,-0.604932068
CVOE_D,1008,1,1,105,P 45,,,TRUE,CV,q,546,cv,P,5,c,c,TRUE,1,-0.614047281
CVOE_D,1008,1,1,106,J 17,,,TRUE,CV,q,712,cv,J,7,c,c,TRUE,1,-0.541993693
CVOE updated,1009,1,1,11,A 71,,,FALSE,CV,p,5184,cv,A,1,v,v,TRUE,1,1.399112607
CVOE updated,1009,1,1,12,I 66,,,TRUE,CV,p,1673,cv,I,6,v,v,TRUE,1,-0.124864186
CVOE updated,1009,1,1,13,S 30,,,FALSE,CV,q,1752,cv,S,0,c,c,TRUE,1,-0.090573623
CVOE updated,1009,1,1,14,D 20,,,FALSE,CV,q,3618,cv,D,0,c,c,TRUE,1,0.719378156
CVOE updated,1009,1,1,15,I 31,,,FALSE,CV,p,2675,cv,I,1,v,v,TRUE,1,0.310061689
CVOE updated,1009,1,1,16,P 16,,,FALSE,CV,q,1694,cv,P,6,c,c,TRUE,1,-0.115748973
CVOE updated,1009,1,1,17,A 49,,,FALSE,CV,p,2006,cv,A,9,v,v,TRUE,1,0.019677048
CVOE updated,1009,1,1,18,O 64,,,TRUE,CV,p,1859,cv,O,4,v,v,TRUE,1,-0.044129443
CVOE updated,1009,1,1,19,D 02,,,FALSE,CV,q,2697,cv,D,2,c,c,TRUE,1,0.319610959
CVOE updated,1009,1,1,20,P 81,,,TRUE,CV,q,2068,cv,P,1,c,c,TRUE,1,0.046588629
CVOE updated,1009,1,1,21,J 58,,,FALSE,CV,q,2107,cv,J,8,c,c,TRUE,1,0.063516881
CVOE updated,1009,1,1,22,A 22,,,TRUE,CV,p,2681,cv,A,2,v,v,TRUE,1,0.312666035
CVOE updated,1009,1,1,23,J 72,,,FALSE,CV,q,1745,cv,J,2,c,c,TRUE,1,-0.093612028
CVOE updated,1009,1,1,24,P 91,,,TRUE,CV,q,1807,cv,P,1,c,c,TRUE,1,-0.066700447
CVOE updated,1009,1,1,25,E 19,,,FALSE,CV,p,2815,cv,E,9,v,v,TRUE,1,0.370829775
CVOE updated,1009,1,1,26,I 30,,,TRUE,CV,p,1552,cv,I,0,v,v,TRUE,1,-0.177385175
CVOE updated,1009,1,1,27,D 91,,,TRUE,CV,q,1721,cv,D,1,c,c,TRUE,1,-0.104029414
CVOE updated,1009,1,1,28,O 48,,,TRUE,CV,p,3037,cv,O,8,v,v,TRUE,1,0.467190597
CVOE updated,1009,1,1,29,A 89,,,FALSE,CV,p,1471,cv,A,9,v,v,TRUE,1,-0.212543854
CVOE updated,1009,1,1,30,U 11,,,FALSE,CV,p,1771,cv,U,1,v,v,TRUE,1,-0.082326526
CVOE updated,1009,1,1,31,I 76,,,TRUE,CV,p,1617,cv,I,6,v,v,TRUE,1,-0.149171421
CVOE updated,1009,1,1,32,U 89,,,FALSE,CV,p,1681,cv,U,9,v,v,TRUE,1,-0.121391724
CVOE updated,1009,1,1,33,D 63,,,TRUE,CV,q,1772,cv,D,3,c,c,TRUE,1,-0.081892468
CVOE updated,1009,1,1,34,H 70,,,FALSE,CV,q,1838,cv,H,0,c,c,TRUE,1,-0.053244656
CVOE updated,1009,1,1,35,D 48,,,FALSE,CV,q,1785,cv,D,8,c,c,TRUE,1,-0.076249717
CVOE updated,1009,1,1,36,P 56,,,FALSE,CV,q,1748,cv,P,6,c,c,TRUE,1,-0.092309854
CVOE updated,1009,1,1,37,O 77,,,FALSE,CV,p,1928,cv,O,7,v,v,TRUE,1,-0.014179458
CVOE updated,1009,1,1,38,P 42,,,FALSE,CV,q,1691,cv,P,2,c,c,TRUE,1,-0.117051147
CVOE updated,1009,1,1,39,H 22,,,FALSE,CV,q,1403,cv,H,2,c,c,TRUE,1,-0.242059781
CVOE updated,1009,1,1,40,E 42,,,TRUE,CV,p,1928,cv,E,2,v,v,TRUE,1,-0.014179458
CVOE updated,1009,1,1,41,J 28,,,FALSE,CV,q,1553,cv,J,8,c,c,TRUE,1,-0.176951117
CVOE updated,1009,1,1,42,E 95,,,FALSE,CV,p,1905,cv,E,5,v,v,TRUE,1,-0.024162786
CVOE updated,1009,1,1,43,S 63,,,TRUE,CV,q,2372,cv,S,3,c,c,TRUE,1,0.178542187
CVOE updated,1009,1,1,44,H 50,,,FALSE,CV,q,1785,cv,H,0,c,c,TRUE,1,-0.076249717
CVOE updated,1009,1,1,45,S 33,,,TRUE,CV,q,1769,cv,S,3,c,c,TRUE,1,-0.083194641
CVOE updated,1009,1,1,46,P 57,,,TRUE,CV,q,1669,cv,P,7,c,c,TRUE,1,-0.126600417
CVOE updated,1009,1,1,47,E 23,,,FALSE,CV,p,2986,cv,E,3,v,v,TRUE,1,0.445053652
CVOE updated,1009,1,1,48,S 61,,,TRUE,CV,q,1508,cv,S,1,c,c,TRUE,1,-0.196483717
CVOE updated,1009,1,1,49,U 67,,,FALSE,CV,p,2028,cv,U,7,v,v,TRUE,1,0.029226318
CVOE updated,1009,1,1,50,H 32,,,FALSE,CV,q,1544,cv,H,2,c,c,TRUE,1,-0.180857637
CVOE updated,1009,1,1,51,U 50,,,TRUE,CV,p,2143,cv,U,0,v,v,TRUE,1,0.079142961
CVOE updated,1009,1,1,52,O 49,,,FALSE,CV,p,1643,cv,O,9,v,v,TRUE,1,-0.137885919
CVOE updated,1009,1,1,53,U 32,,,TRUE,CV,p,1303,cv,U,2,v,v,TRUE,1,-0.285465557
CVOE updated,1009,1,1,54,J 78,,,FALSE,CV,q,1521,cv,J,8,c,c,TRUE,1,-0.190840966
CVOE updated,1009,1,1,55,S 54,,,FALSE,CV,q,1678,cv,S,4,c,c,TRUE,1,-0.122693898
CVOE updated,1009,1,1,56,J 27,,,TRUE,CV,q,1401,cv,J,7,c,c,TRUE,1,-0.242927897
CVOE updated,1009,1,1,57,S 06,,,FALSE,CV,q,1630,cv,S,6,c,c,TRUE,1,-0.14352867
CVOE updated,1009,1,1,58,D 67,,,TRUE,CV,q,1794,cv,D,7,c,c,TRUE,1,-0.072343197
CVOE updated,1009,1,1,59,A 79,,,FALSE,CV,p,2322,cv,A,9,v,v,TRUE,1,0.156839299
CVOE updated,1009,1,1,60,S 52,,,FALSE,CV,q,3120,cv,S,2,c,c,TRUE,1,0.503217391
CVOE updated,1009,1,1,61,U 16,,,TRUE,CV,p,2412,cv,U,6,v,v,TRUE,1,0.195904498
CVOE updated,1009,1,1,62,O 82,,,TRUE,CV,p,1818,cv,O,2,v,v,TRUE,1,-0.061925811
CVOE updated,1009,1,1,63,H 87,,,TRUE,CV,q,1485,cv,H,7,c,c,TRUE,1,-0.206467045
CVOE updated,1009,1,1,64,I 32,,,TRUE,CV,p,1682,cv,I,2,v,v,TRUE,1,-0.120957666
CVOE updated,1009,1,1,65,U 37,,,FALSE,CV,p,1235,cv,U,7,v,v,TRUE,1,-0.314981485
CVOE updated,1009,1,1,66,I 42,,,TRUE,CV,p,1245,cv,I,2,v,v,TRUE,1,-0.310640907
CVOE updated,1009,1,1,67,D 65,,,TRUE,CV,q,1536,cv,D,5,c,c,TRUE,1,-0.184330099
CVOE updated,1009,1,1,68,U 77,,,FALSE,CV,p,1839,cv,U,7,v,v,TRUE,1,-0.052810598
CVOE updated,1009,1,1,69,E 12,,,TRUE,CV,p,981,cv,E,2,v,v,TRUE,1,-0.425232156
CVOE updated,1009,1,1,70,I 60,,,TRUE,CV,p,1152,cv,I,0,v,v,TRUE,1,-0.351008279
CVOE updated,1009,1,1,71,J 36,,,FALSE,CV,q,1496,cv,J,6,c,c,TRUE,1,-0.20169241
CVOE updated,1009,1,1,72,H 75,,,TRUE,CV,q,1657,cv,H,5,c,c,TRUE,1,-0.13180911
CVOE updated,1009,1,1,73,I 50,,,TRUE,CV,p,1517,cv,I,0,v,v,TRUE,1,-0.192577197
CVOE updated,1009,1,1,74,E 99,,,FALSE,CV,p,1154,cv,E,9,v,v,TRUE,1,-0.350140163
CVOE updated,1009,1,1,75,A 86,,,TRUE,CV,p,1045,cv,A,6,v,v,TRUE,1,-0.397452459
CVOE updated,1009,1,1,76,U 48,,,TRUE,CV,p,1069,cv,U,8,v,v,TRUE,1,-0.387035073
CVOE updated,1009,1,1,77,E 01,,,FALSE,CV,p,1204,cv,E,1,v,v,TRUE,1,-0.328437275
CVOE updated,1009,1,1,78,A 78,,,TRUE,CV,p,1239,cv,A,8,v,v,TRUE,1,-0.313245254
CVOE updated,1009,1,1,79,P 60,,,FALSE,CV,q,1616,cv,P,0,c,c,TRUE,1,-0.149605479
CVOE updated,1009,1,1,80,E 43,,,FALSE,CV,p,2533,cv,E,3,v,v,TRUE,1,0.248425487
CVOE updated,1009,1,1,81,D 69,,,TRUE,CV,q,1498,cv,D,9,c,c,TRUE,1,-0.200824294
CVOE updated,1009,1,1,82,H 11,,,TRUE,CV,q,1287,cv,H,1,c,c,TRUE,1,-0.292410481
CVOE updated,1009,1,1,83,P 43,,,TRUE,CV,q,1154,cv,P,3,c,c,TRUE,1,-0.350140163
CVOE updated,1009,1,1,84,O 67,,,FALSE,CV,p,1994,cv,O,7,v,v,TRUE,1,0.014468354
CVOE updated,1009,1,1,85,S 91,,,FALSE,CV,q,1569,cv,S,1,c,c,TRUE,1,-0.170006193
CVOE updated,1009,1,1,86,J 68,,,TRUE,CV,q,1500,cv,J,8,c,c,TRUE,1,-0.199956179
CVOE updated,1009,1,1,87,S 47,,,FALSE,CV,q,1616,cv,S,7,c,c,TRUE,1,-0.149605479
CVOE updated,1009,1,1,88,I 81,,,TRUE,CV,p,1863,cv,I,1,v,v,TRUE,1,-0.042393212
CVOE updated,1009,1,1,89,J 39,,,FALSE,CV,q,1793,cv,J,9,c,c,TRUE,1,-0.072777255
CVOE updated,1009,1,1,90,A 11,,,TRUE,CV,p,1906,cv,A,1,v,v,TRUE,1,-0.023728728
CVOE updated,1009,1,1,91,O 76,,,FALSE,CV,p,1399,cv,O,6,v,v,TRUE,1,-0.243796012
CVOE updated,1009,1,1,92,A 62,,,FALSE,CV,p,1398,cv,A,2,v,v,TRUE,1,-0.24423007
CVOE updated,1009,1,1,93,O 27,,,TRUE,CV,p,1319,cv,O,7,v,v,TRUE,1,-0.278520633
CVOE updated,1009,1,1,94,E 66,,,FALSE,CV,p,1192,cv,E,6,v,v,TRUE,1,-0.333645969
CVOE updated,1009,1,1,95,J 62,,,TRUE,CV,q,1511,cv,J,2,c,c,TRUE,1,-0.195181543
CVOE updated,1009,1,1,96,H 72,,,TRUE,CV,q,1245,cv,H,2,c,c,TRUE,1,-0.310640907
CVOE updated,1009,1,1,97,E 49,,,TRUE,CV,p,1944,cv,E,9,v,v,TRUE,1,-0.007234534
CVOE updated,1009,1,1,98,D 52,,,TRUE,CV,q,1773,cv,D,2,c,c,TRUE,1,-0.08145841
CVOE updated,1009,1,1,99,H 62,,,TRUE,CV,q,1286,cv,H,2,c,c,TRUE,1,-0.292844539
CVOE updated,1009,1,1,100,I 11,,,TRUE,CV,p,1689,cv,I,1,v,v,TRUE,1,-0.117919262
CVOE updated,1009,1,1,101,A 98,,,FALSE,CV,p,1092,cv,A,8,v,v,TRUE,1,-0.377051744
CVOE updated,1009,1,1,102,H 29,,,FALSE,CV,q,1536,cv,H,9,c,c,TRUE,1,-0.184330099
CVOE updated,1009,1,1,103,E 83,,,TRUE,CV,p,1475,cv,E,3,v,v,TRUE,1,-0.210807623
CVOE updated,1009,1,1,104,D 43,,,FALSE,CV,q,1447,cv,D,3,c,c,TRUE,1,-0.22296124
CVOE updated,1009,1,1,105,P 45,,,TRUE,CV,q,1377,cv,P,5,c,c,TRUE,1,-0.253345283
CVOE updated,1009,1,1,106,J 17,,,TRUE,CV,q,1174,cv,J,7,c,c,TRUE,1,-0.341459008
CVOE_B,1010,1,1,11,A 24,,,TRUE,OE,p,2090,oe,A,4,e,e,TRUE,1,0.056137899
CVOE_B,1010,1,1,12,O 83,,,FALSE,OE,q,1777,oe,O,3,o,o,TRUE,1,-0.079722179
CVOE_B,1010,1,1,13,H 55,,,TRUE,OE,q,1320,oe,H,5,o,o,TRUE,1,-0.278086575
CVOE_B,1010,1,1,14,P 10,,,FALSE,OE,p,735,oe,P,0,e,e,TRUE,1,-0.532010365
CVOE_B,1010,1,1,15,D 30,,,FALSE,OE,p,756,oe,D,0,e,e,TRUE,1,-0.522895152
CVOE_B,1010,1,1,16,U 62,,,TRUE,OE,p,886,oe,U,2,e,e,TRUE,1,-0.466467643
CVOE_B,1010,1,1,17,P 95,,,TRUE,OE,q,1027,oe,P,5,o,o,TRUE,1,-0.405265499
CVOE_B,1010,1,1,18,U 06,,,TRUE,OE,p,1636,oe,U,6,e,e,TRUE,1,-0.140924323
CVOE_B,1010,1,1,19,E 75,,,FALSE,OE,q,1030,oe,E,5,o,o,TRUE,1,-0.403963326
CVOE_B,1010,1,1,20,I 67,,,FALSE,OE,q,1547,oe,I,7,o,o,TRUE,1,-0.179555464
CVOE_B,1010,1,1,21,S 13,,,TRUE,OE,q,2689,oe,S,3,o,o,TRUE,1,0.316138497
CVOE_B,1010,1,1,22,P 78,,,FALSE,OE,p,2658,oe,P,8,e,e,TRUE,1,0.302682707
CVOE_B,1010,1,1,23,I 15,,,FALSE,OE,q,2010,oe,I,5,o,o,TRUE,1,0.021413279
CVOE_B,1010,1,1,24,D 27,,,TRUE,OE,q,1844,oe,D,7,o,o,TRUE,1,-0.050640309
CVOE_B,1010,1,1,25,O 94,,,TRUE,OE,p,2944,oe,O,4,e,e,TRUE,1,0.426823226
CVOE_B,1010,1,1,26,A 65,,,FALSE,OE,q,1572,oe,A,5,o,o,TRUE,1,-0.16870402
CVOE_B,1010,1,1,27,I 42,,,TRUE,OE,p,945,oe,I,2,e,e,TRUE,1,-0.440858235
CVOE_B,1010,1,1,28,E 25,,,FALSE,OE,q,1041,oe,E,5,o,o,TRUE,1,-0.39918869
CVOE_B,1010,1,1,29,H 49,,,TRUE,OE,q,1531,oe,H,9,o,o,TRUE,1,-0.186500388
CVOE_B,1010,1,1,30,S 18,,,FALSE,OE,p,2084,oe,S,8,e,e,TRUE,1,0.053533553
CVOE_B,1010,1,1,31,H 51,,,TRUE,OE,q,886,oe,H,1,o,o,TRUE,1,-0.466467643
CVOE_B,1010,1,1,32,U 14,,,TRUE,OE,p,771,oe,U,4,e,e,TRUE,1,-0.516384285
CVOE_B,1010,1,1,33,E 02,,,TRUE,OE,p,750,oe,E,2,e,e,TRUE,1,-0.525499498
CVOE_B,1010,1,1,34,J 26,,,FALSE,OE,p,1721,oe,J,6,e,e,TRUE,1,-0.104029414
CVOE_B,1010,1,1,35,D 24,,,FALSE,OE,p,849,oe,D,4,e,e,TRUE,1,-0.48252778
CVOE_B,1010,1,1,36,O 50,,,TRUE,OE,p,688,oe,O,0,e,e,TRUE,1,-0.552411079
CVOE_B,1010,1,1,38,O 15,,,FALSE,OE,q,1260,oe,O,5,o,o,TRUE,1,-0.304130041
CVOE_B,1010,1,1,39,D 32,,,FALSE,OE,p,7185,oe,D,2,e,e,TRUE,1,2.267662183
CVOE_B,1010,1,1,40,S 67,,,TRUE,OE,q,6665,oe,S,7,o,o,TRUE,1,2.041952148
CVOE_B,1010,1,1,41,J 74,,,FALSE,OE,p,3796,oe,J,4,e,e,TRUE,1,0.796640437
CVOE_B,1010,1,1,42,D 92,,,FALSE,OE,p,4693,oe,D,2,e,e,TRUE,1,1.185990247
CVOE_B,1010,1,1,43,A 65,,,FALSE,OE,q,1544,oe,A,5,o,o,TRUE,1,-0.180857637
CVOE_B,1010,1,1,44,I 87,,,FALSE,OE,q,1994,oe,I,7,o,o,TRUE,1,0.014468354
CVOE_B,1010,1,1,45,H 61,,,TRUE,OE,q,902,oe,H,1,o,o,TRUE,1,-0.459522719
CVOE_B,1010,1,1,46,E 59,,,FALSE,OE,q,686,oe,E,9,o,o,TRUE,1,-0.553279195
CVOE_B,1010,1,1,47,I 33,,,FALSE,OE,q,1271,oe,I,3,o,o,TRUE,1,-0.299355406
CVOE_B,1010,1,1,48,O 90,,,TRUE,OE,p,4811,oe,O,0,e,e,TRUE,1,1.237209062
CVOE_B,1010,1,1,49,U 51,,,FALSE,OE,q,849,oe,U,1,o,o,TRUE,1,-0.48252778
CVOE_B,1010,1,1,50,A 10,,,TRUE,OE,p,775,oe,A,0,e,e,TRUE,1,-0.514648054
CVOE_B,1010,1,1,51,E 50,,,TRUE,OE,p,2499,oe,E,0,e,e,TRUE,1,0.233667523
CVOE_B,1010,1,1,52,D 92,,,FALSE,OE,p,1436,oe,D,2,e,e,TRUE,1,-0.227735875
CVOE_B,1010,1,1,53,E 60,,,TRUE,OE,p,2564,oe,E,0,e,e,TRUE,1,0.261881277
CVOE_B,1010,1,1,54,A 95,,,FALSE,OE,q,1417,oe,A,5,o,o,TRUE,1,-0.235982973
CVOE_B,1010,1,1,55,E 64,,,TRUE,OE,p,1508,oe,E,4,e,e,TRUE,1,-0.196483717
CVOE_B,1010,1,1,56,P 20,,,FALSE,OE,p,1047,oe,P,0,e,e,TRUE,1,-0.396584344
CVOE_B,1010,1,1,57,S 06,,,FALSE,OE,p,5024,oe,S,6,e,e,TRUE,1,1.329663365
CVOE_B,1010,1,1,58,P 64,,,FALSE,OE,p,1345,oe,P,4,e,e,TRUE,1,-0.267235131
CVOE_B,1010,1,1,59,U 70,,,TRUE,OE,p,721,oe,U,0,e,e,TRUE,1,-0.538087173
CVOE_B,1010,1,1,60,S 16,,,FALSE,OE,p,1243,oe,S,6,e,e,TRUE,1,-0.311509023
CVOE_B,1010,1,1,61,E 35,,,FALSE,OE,q,1132,oe,E,5,o,o,TRUE,1,-0.359689434
CVOE_B,1010,1,1,62,I 93,,,FALSE,OE,q,1819,oe,I,3,o,o,TRUE,1,-0.061491753
CVOE_B,1010,1,1,63,D 63,,,TRUE,OE,q,1984,oe,D,3,o,o,TRUE,1,0.010127777
CVOE_B,1010,1,1,64,U 89,,,FALSE,OE,q,897,oe,U,9,o,o,TRUE,1,-0.461693008
CVOE_B,1010,1,1,65,E 91,,,FALSE,OE,q,1641,oe,E,1,o,o,TRUE,1,-0.138754035
CVOE_B,1010,1,1,66,A 12,,,TRUE,OE,p,831,oe,A,2,e,e,TRUE,1,-0.49034082
CVOE_B,1010,1,1,67,P 56,,,FALSE,OE,p,798,oe,P,6,e,e,TRUE,1,-0.504664726
CVOE_B,1010,1,1,68,S 65,,,TRUE,OE,q,977,oe,S,5,o,o,TRUE,1,-0.426968387
CVOE_B,1010,1,1,69,P 07,,,TRUE,OE,q,1750,oe,P,7,o,o,TRUE,1,-0.091441739
CVOE_B,1010,1,1,70,I 77,,,FALSE,OE,q,814,oe,I,7,o,o,TRUE,1,-0.497719802
CVOE_B,1010,1,1,71,J 19,,,TRUE,OE,q,875,oe,J,9,o,o,TRUE,1,-0.471242278
CVOE_B,1010,1,1,72,O 59,,,FALSE,OE,q,738,oe,O,9,o,o,TRUE,1,-0.530708191
CVOE_B,1010,1,1,73,J 15,,,TRUE,OE,q,693,oe,J,5,o,o,TRUE,1,-0.55024079
CVOE_B,1010,1,1,74,I 89,,,FALSE,OE,q,1081,oe,I,9,o,o,TRUE,1,-0.38182638
CVOE_B,1010,1,1,75,O 97,,,FALSE,OE,q,1208,oe,O,7,o,o,TRUE,1,-0.326701044
CVOE_B,1010,1,1,76,A 92,,,TRUE,OE,p,2343,oe,A,2,e,e,TRUE,1,0.165954512
CVOE_B,1010,1,1,77,J 90,,,FALSE,OE,p,648,oe,J,0,e,e,TRUE,1,-0.56977339
CVOE_B,1010,1,1,78,H 65,,,TRUE,OE,q,830,oe,H,5,o,o,TRUE,1,-0.490774877
CVOE_B,1010,1,1,79,H 17,,,TRUE,OE,q,1372,oe,H,7,o,o,TRUE,1,-0.255515572
CVOE_B,1010,1,1,80,S 26,,,FALSE,OE,p,1764,oe,S,6,e,e,TRUE,1,-0.08536493
CVOE_B,1010,1,1,81,D 56,,,FALSE,OE,p,737,oe,D,6,e,e,TRUE,1,-0.531142249
CVOE_B,1010,1,1,82,I 91,,,FALSE,OE,q,718,oe,I,1,o,o,TRUE,1,-0.539389346
CVOE_B,1010,1,1,83,J 11,,,TRUE,OE,q,931,oe,J,1,o,o,TRUE,1,-0.446935044
CVOE_B,1010,1,1,84,O 28,,,TRUE,OE,p,813,oe,O,8,e,e,TRUE,1,-0.498153859
CVOE_B,1010,1,1,85,H 29,,,TRUE,OE,q,858,oe,H,9,o,o,TRUE,1,-0.47862126
CVOE_B,1010,1,1,86,J 25,,,TRUE,OE,q,1710,oe,J,5,o,o,TRUE,1,-0.108804049
CVOE_B,1010,1,1,87,A 73,,,FALSE,OE,q,814,oe,A,3,o,o,TRUE,1,-0.497719802
CVOE_B,1010,1,1,88,J 63,,,TRUE,OE,q,741,oe,J,3,o,o,TRUE,1,-0.529406018
CVOE_B,1010,1,1,89,U 84,,,TRUE,OE,p,653,oe,U,4,e,e,TRUE,1,-0.567603101
CVOE_B,1010,1,1,90,A 58,,,TRUE,OE,p,795,oe,A,8,e,e,TRUE,1,-0.505966899
CVOE_B,1010,1,1,92,H 54,,,FALSE,OE,p,3577,oe,H,4,e,e,TRUE,1,0.701581787
CVOE_B,1010,1,1,94,J 75,,,TRUE,OE,q,1037,oe,J,5,o,o,TRUE,1,-0.400924921
CVOE_B,1010,1,1,95,D 19,,,TRUE,OE,q,2171,oe,D,9,o,o,TRUE,1,0.091296578
CVOE_B,1010,1,1,96,J 38,,,FALSE,OE,p,767,oe,J,8,e,e,TRUE,1,-0.518120516
CVOE_B,1010,1,1,97,I 56,,,TRUE,OE,p,1423,oe,I,6,e,e,TRUE,1,-0.233378626
CVOE_B,1010,1,1,98,P 87,,,TRUE,OE,q,882,oe,P,7,o,o,TRUE,1,-0.468203874
CVOE_B,1010,1,1,99,O 80,,,TRUE,OE,p,653,oe,O,0,e,e,TRUE,1,-0.567603101
CVOE_B,1010,1,1,100,U 60,,,TRUE,OE,p,691,oe,U,0,e,e,TRUE,1,-0.551108906
CVOE_B,1010,1,1,101,P 48,,,FALSE,OE,p,764,oe,P,8,e,e,TRUE,1,-0.51942269
CVOE_B,1010,1,1,102,H 64,,,FALSE,OE,p,558,oe,H,4,e,e,TRUE,1,-0.608838588
CVOE_B,1010,1,1,103,A 13,,,FALSE,OE,q,846,oe,A,3,o,o,TRUE,1,-0.483829953
CVOE_B,1010,1,1,104,H 68,,,FALSE,OE,p,1077,oe,H,8,e,e,TRUE,1,-0.383562611
CVOE_B,1010,1,1,105,E 16,,,TRUE,OE,p,803,oe,E,6,e,e,TRUE,1,-0.502494437
CVOE_B,1010,1,1,106,S 71,,,TRUE,OE,q,2060,oe,S,1,o,o,TRUE,1,0.043116167
CVOE_C,1011,1,1,11,A 24,,,TRUE,OE,p,4190,oe,A,4,e,e,TRUE,1,0.967659194
CVOE_C,1011,1,1,12,O 83,,,FALSE,OE,q,598,oe,O,3,o,o,TRUE,1,-0.591476278
CVOE_C,1011,1,1,13,H 55,,,TRUE,OE,q,912,oe,H,5,o,o,TRUE,1,-0.455182141
CVOE_C,1011,1,1,14,P 10,,,FALSE,OE,p,773,oe,P,0,e,e,TRUE,1,-0.51551617
CVOE_C,1011,1,1,15,D 30,,,FALSE,OE,p,700,oe,D,0,e,e,TRUE,1,-0.547202386
CVOE_C,1011,1,1,16,U 62,,,TRUE,OE,p,670,oe,U,2,e,e,TRUE,1,-0.560224119
CVOE_C,1011,1,1,17,P 95,,,TRUE,OE,q,771,oe,P,5,o,o,TRUE,1,-0.516384285
CVOE_C,1011,1,1,18,U 06,,,TRUE,OE,p,938,oe,U,6,e,e,TRUE,1,-0.443896639
CVOE_C,1011,1,1,19,E 75,,,FALSE,OE,q,713,oe,E,5,o,o,TRUE,1,-0.541559635
CVOE_C,1011,1,1,20,I 67,,,FALSE,OE,q,1561,oe,I,7,o,o,TRUE,1,-0.173478655
CVOE_C,1011,1,1,21,S 13,,,TRUE,OE,q,731,oe,S,3,o,o,TRUE,1,-0.533746596
CVOE_C,1011,1,1,22,P 78,,,FALSE,OE,p,556,oe,P,8,e,e,TRUE,1,-0.609706703
CVOE_C,1011,1,1,23,I 15,,,FALSE,OE,q,554,oe,I,5,o,o,TRUE,1,-0.610574819
CVOE_C,1011,1,1,24,D 27,,,TRUE,OE,q,659,oe,D,7,o,o,TRUE,1,-0.564998754
CVOE_C,1011,1,1,25,O 94,,,TRUE,OE,p,588,oe,O,4,e,e,TRUE,1,-0.595816855
CVOE_C,1011,1,1,26,A 65,,,FALSE,OE,q,697,oe,A,5,o,o,TRUE,1,-0.548504559
CVOE_C,1011,1,1,27,I 42,,,TRUE,OE,p,742,oe,I,2,e,e,TRUE,1,-0.52897196
CVOE_C,1011,1,1,28,E 25,,,FALSE,OE,q,611,oe,E,5,o,o,TRUE,1,-0.585833527
CVOE_C,1011,1,1,29,H 49,,,TRUE,OE,q,719,oe,H,9,o,o,TRUE,1,-0.538955289
CVOE_C,1011,1,1,30,S 18,,,FALSE,OE,p,597,oe,S,8,e,e,TRUE,1,-0.591910335
CVOE_C,1011,1,1,31,H 51,,,TRUE,OE,q,547,oe,H,1,o,o,TRUE,1,-0.613613223
CVOE_C,1011,1,1,32,U 14,,,TRUE,OE,p,636,oe,U,4,e,e,TRUE,1,-0.574982083
CVOE_C,1011,1,1,33,E 02,,,TRUE,OE,p,663,oe,E,2,e,e,TRUE,1,-0.563262523
CVOE_C,1011,1,1,34,J 26,,,FALSE,OE,p,676,oe,J,6,e,e,TRUE,1,-0.557619772
CVOE_C,1011,1,1,35,D 24,,,FALSE,OE,p,586,oe,D,4,e,e,TRUE,1,-0.596684971
CVOE_C,1011,1,1,36,O 50,,,TRUE,OE,p,608,oe,O,0,e,e,TRUE,1,-0.5871357
CVOE_C,1011,1,1,37,U 16,,,TRUE,OE,p,595,oe,U,6,e,e,TRUE,1,-0.592778451
CVOE_C,1011,1,1,38,O 15,,,FALSE,OE,q,628,oe,O,5,o,o,TRUE,1,-0.578454545
CVOE_C,1011,1,1,39,D 32,,,FALSE,OE,p,556,oe,D,2,e,e,TRUE,1,-0.609706703
CVOE_C,1011,1,1,40,S 67,,,TRUE,OE,q,647,oe,S,7,o,o,TRUE,1,-0.570207447
CVOE_C,1011,1,1,41,J 74,,,FALSE,OE,p,936,oe,J,4,e,e,TRUE,1,-0.444764755
CVOE_C,1011,1,1,42,D 92,,,FALSE,OE,p,646,oe,D,2,e,e,TRUE,1,-0.570641505
CVOE_C,1011,1,1,43,A 65,,,FALSE,OE,q,516,oe,A,5,o,o,TRUE,1,-0.627069014
CVOE_C,1011,1,1,44,I 87,,,FALSE,OE,q,535,oe,I,7,o,o,TRUE,1,-0.618821916
CVOE_C,1011,1,1,46,E 59,,,FALSE,OE,q,1162,oe,E,9,o,o,TRUE,1,-0.346667701
CVOE_C,1011,1,1,47,I 33,,,FALSE,OE,q,721,oe,I,3,o,o,TRUE,1,-0.538087173
CVOE_C,1011,1,1,48,O 90,,,TRUE,OE,p,702,oe,O,0,e,e,TRUE,1,-0.546334271
CVOE_C,1011,1,1,49,U 51,,,FALSE,OE,q,531,oe,U,1,o,o,TRUE,1,-0.620558147
CVOE_C,1011,1,1,50,A 10,,,TRUE,OE,p,601,oe,A,0,e,e,TRUE,1,-0.590174104
CVOE_C,1011,1,1,51,E 50,,,TRUE,OE,p,475,oe,E,0,e,e,TRUE,1,-0.644865382
CVOE_C,1011,1,1,52,D 92,,,FALSE,OE,p,520,oe,D,2,e,e,TRUE,1,-0.625332783
CVOE_C,1011,1,1,53,E 60,,,TRUE,OE,p,437,oe,E,0,e,e,TRUE,1,-0.661359577
CVOE_C,1011,1,1,54,A 95,,,FALSE,OE,q,602,oe,A,5,o,o,TRUE,1,-0.589740047
CVOE_C,1011,1,1,55,E 64,,,TRUE,OE,p,668,oe,E,4,e,e,TRUE,1,-0.561092234
CVOE_C,1011,1,1,56,P 20,,,FALSE,OE,p,505,oe,P,0,e,e,TRUE,1,-0.631843649
CVOE_C,1011,1,1,57,S 06,,,FALSE,OE,p,493,oe,S,6,e,e,TRUE,1,-0.637052342
CVOE_C,1011,1,1,58,P 64,,,FALSE,OE,p,458,oe,P,4,e,e,TRUE,1,-0.652244364
CVOE_C,1011,1,1,59,U 70,,,TRUE,OE,p,539,oe,U,0,e,e,TRUE,1,-0.617085685
CVOE_C,1011,1,1,60,S 16,,,FALSE,OE,p,526,oe,S,6,e,e,TRUE,1,-0.622728436
CVOE_C,1011,1,1,61,E 35,,,FALSE,OE,q,669,oe,E,5,o,o,TRUE,1,-0.560658177
CVOE_C,1011,1,1,62,I 93,,,FALSE,OE,q,564,oe,I,3,o,o,TRUE,1,-0.606234241
CVOE_C,1011,1,1,63,D 63,,,TRUE,OE,q,415,oe,D,3,o,o,TRUE,1,-0.670908848
CVOE_C,1011,1,1,65,E 91,,,FALSE,OE,q,1130,oe,E,1,o,o,TRUE,1,-0.36055755
CVOE_C,1011,1,1,66,A 12,,,TRUE,OE,p,716,oe,A,2,e,e,TRUE,1,-0.540257462
CVOE_C,1011,1,1,67,P 56,,,FALSE,OE,p,728,oe,P,6,e,e,TRUE,1,-0.535048769
CVOE_C,1011,1,1,68,S 65,,,TRUE,OE,q,699,oe,S,5,o,o,TRUE,1,-0.547636444
CVOE_C,1011,1,1,69,P 07,,,TRUE,OE,q,604,oe,P,7,o,o,TRUE,1,-0.588871931
CVOE_C,1011,1,1,70,I 77,,,FALSE,OE,q,466,oe,I,7,o,o,TRUE,1,-0.648771902
CVOE_C,1011,1,1,71,J 19,,,TRUE,OE,q,563,oe,J,9,o,o,TRUE,1,-0.606668299
CVOE_C,1011,1,1,72,O 59,,,FALSE,OE,q,500,oe,O,9,o,o,TRUE,1,-0.634013938
CVOE_C,1011,1,1,73,J 15,,,TRUE,OE,q,506,oe,J,5,o,o,TRUE,1,-0.631409591
CVOE_C,1011,1,1,74,I 89,,,FALSE,OE,q,464,oe,I,9,o,o,TRUE,1,-0.649640017
CVOE_C,1011,1,1,75,O 97,,,FALSE,OE,q,404,oe,O,7,o,o,TRUE,1,-0.675683483
CVOE_C,1011,1,1,76,A 92,,,TRUE,OE,p,620,oe,A,2,e,e,TRUE,1,-0.581927007
CVOE_C,1011,1,1,77,J 90,,,FALSE,OE,p,519,oe,J,0,e,e,TRUE,1,-0.625766841
CVOE_C,1011,1,1,78,H 65,,,TRUE,OE,q,617,oe,H,5,o,o,TRUE,1,-0.58322918
CVOE_C,1011,1,1,79,H 17,,,TRUE,OE,q,523,oe,H,7,o,o,TRUE,1,-0.62403061
CVOE_C,1011,1,1,80,S 26,,,FALSE,OE,p,656,oe,S,6,e,e,TRUE,1,-0.566300928
CVOE_C,1011,1,1,81,D 56,,,FALSE,OE,p,596,oe,D,6,e,e,TRUE,1,-0.592344393
CVOE_C,1011,1,1,82,I 91,,,FALSE,OE,q,624,oe,I,1,o,o,TRUE,1,-0.580190776
CVOE_C,1011,1,1,83,J 11,,,TRUE,OE,q,532,oe,J,1,o,o,TRUE,1,-0.62012409
CVOE_C,1011,1,1,84,O 28,,,TRUE,OE,p,805,oe,O,8,e,e,TRUE,1,-0.501626321
CVOE_C,1011,1,1,85,H 29,,,TRUE,OE,q,593,oe,H,9,o,o,TRUE,1,-0.593646566
CVOE_C,1011,1,1,86,J 25,,,TRUE,OE,q,701,oe,J,5,o,o,TRUE,1,-0.546768328
CVOE_C,1011,1,1,87,A 73,,,FALSE,OE,q,704,oe,A,3,o,o,TRUE,1,-0.545466155
CVOE_C,1011,1,1,88,J 63,,,TRUE,OE,q,540,oe,J,3,o,o,TRUE,1,-0.616651628
CVOE_C,1011,1,1,89,U 84,,,TRUE,OE,p,587,oe,U,4,e,e,TRUE,1,-0.596250913
CVOE_C,1011,1,1,90,A 58,,,TRUE,OE,p,618,oe,A,8,e,e,TRUE,1,-0.582795122
CVOE_C,1011,1,1,91,S 43,,,TRUE,OE,q,598,oe,S,3,o,o,TRUE,1,-0.591476278
CVOE_C,1011,1,1,92,H 54,,,FALSE,OE,p,1044,oe,H,4,e,e,TRUE,1,-0.397886517
CVOE_C,1011,1,1,94,J 75,,,TRUE,OE,q,1536,oe,J,5,o,o,TRUE,1,-0.184330099
CVOE_C,1011,1,1,95,D 19,,,TRUE,OE,q,688,oe,D,9,o,o,TRUE,1,-0.552411079
CVOE_C,1011,1,1,96,J 38,,,FALSE,OE,p,902,oe,J,8,e,e,TRUE,1,-0.459522719
CVOE_C,1011,1,1,97,I 56,,,TRUE,OE,p,2954,oe,I,6,e,e,TRUE,1,0.431163803
CVOE_C,1011,1,1,98,P 87,,,TRUE,OE,q,576,oe,P,7,o,o,TRUE,1,-0.601025548
CVOE_C,1011,1,1,99,O 80,,,TRUE,OE,p,646,oe,O,0,e,e,TRUE,1,-0.570641505
CVOE_C,1011,1,1,100,U 60,,,TRUE,OE,p,591,oe,U,0,e,e,TRUE,1,-0.594514682
CVOE_C,1011,1,1,101,P 48,,,FALSE,OE,p,671,oe,P,8,e,e,TRUE,1,-0.559790061
CVOE_C,1011,1,1,102,H 64,,,FALSE,OE,p,827,oe,H,4,e,e,TRUE,1,-0.492077051
CVOE_C,1011,1,1,103,A 13,,,FALSE,OE,q,664,oe,A,3,o,o,TRUE,1,-0.562828465
CVOE_C,1011,1,1,104,H 68,,,FALSE,OE,p,841,oe,H,8,e,e,TRUE,1,-0.486000242
CVOE_C,1011,1,1,105,E 16,,,TRUE,OE,p,1216,oe,E,6,e,e,TRUE,1,-0.323228582
CVOE_C,1011,1,1,106,S 71,,,TRUE,OE,q,527,oe,S,1,o,o,TRUE,1,-0.622294379
CVOE_B,1014,1,1,12,O 83,,,FALSE,OE,q,3023,oe,O,3,o,o,TRUE,1,0.461113789
CVOE_B,1014,1,1,13,H 55,,,TRUE,OE,q,2799,oe,H,5,o,o,TRUE,1,0.363884851
CVOE_B,1014,1,1,14,P 10,,,FALSE,OE,p,1193,oe,P,0,e,e,TRUE,1,-0.333211911
CVOE_B,1014,1,1,16,U 62,,,TRUE,OE,p,1889,oe,U,2,e,e,TRUE,1,-0.03110771
CVOE_B,1014,1,1,17,P 95,,,TRUE,OE,q,1893,oe,P,5,o,o,TRUE,1,-0.029371479
CVOE_B,1014,1,1,18,U 06,,,TRUE,OE,p,1327,oe,U,6,e,e,TRUE,1,-0.275048171
CVOE_B,1014,1,1,19,E 75,,,FALSE,OE,q,2494,oe,E,5,o,o,TRUE,1,0.231497234
CVOE_B,1014,1,1,20,I 67,,,FALSE,OE,q,1491,oe,I,7,o,o,TRUE,1,-0.203862699
CVOE_B,1014,1,1,21,S 13,,,TRUE,OE,q,1336,oe,S,3,o,o,TRUE,1,-0.271141651
CVOE_B,1014,1,1,23,I 15,,,FALSE,OE,q,940,oe,I,5,o,o,TRUE,1,-0.443028524
CVOE_B,1014,1,1,24,D 27,,,TRUE,OE,q,1025,oe,D,7,o,o,TRUE,1,-0.406133614
CVOE_B,1014,1,1,26,A 65,,,FALSE,OE,q,942,oe,A,5,o,o,TRUE,1,-0.442160408
CVOE_B,1014,1,1,27,I 42,,,TRUE,OE,p,1305,oe,I,2,e,e,TRUE,1,-0.284597442
CVOE_B,1014,1,1,28,E 25,,,FALSE,OE,q,994,oe,E,5,o,o,TRUE,1,-0.419589405
CVOE_B,1014,1,1,29,H 49,,,TRUE,OE,q,1836,oe,H,9,o,o,TRUE,1,-0.054112772
CVOE_B,1014,1,1,30,S 18,,,FALSE,OE,p,883,oe,S,8,e,e,TRUE,1,-0.467769816
CVOE_B,1014,1,1,31,H 51,,,TRUE,OE,q,5556,oe,H,1,o,o,TRUE,1,1.560582093
CVOE_B,1014,1,1,32,U 14,,,TRUE,OE,p,5778,oe,U,4,e,e,TRUE,1,1.656942916
CVOE_B,1014,1,1,34,J 26,,,FALSE,OE,p,2743,oe,J,6,e,e,TRUE,1,0.339577616
CVOE_B,1014,1,1,35,D 24,,,FALSE,OE,p,1569,oe,D,4,e,e,TRUE,1,-0.170006193
CVOE_B,1014,1,1,37,U 16,,,TRUE,OE,p,2326,oe,U,6,e,e,TRUE,1,0.158575531
CVOE_B,1014,1,1,38,O 15,,,FALSE,OE,q,858,oe,O,5,o,o,TRUE,1,-0.47862126
CVOE_B,1014,1,1,40,S 67,,,TRUE,OE,q,1013,oe,S,7,o,o,TRUE,1,-0.411342307
CVOE_B,1014,1,1,43,A 65,,,FALSE,OE,q,939,oe,A,5,o,o,TRUE,1,-0.443462582
CVOE_B,1014,1,1,44,I 87,,,FALSE,OE,q,757,oe,I,7,o,o,TRUE,1,-0.522461094
CVOE_B,1014,1,1,45,H 61,,,TRUE,OE,q,1019,oe,H,1,o,o,TRUE,1,-0.408737961
CVOE_B,1014,1,1,46,E 59,,,FALSE,OE,q,813,oe,E,9,o,o,TRUE,1,-0.498153859
CVOE_B,1014,1,1,47,I 33,,,FALSE,OE,q,1240,oe,I,3,o,o,TRUE,1,-0.312811196
CVOE_B,1014,1,1,49,U 51,,,FALSE,OE,q,898,oe,U,1,o,o,TRUE,1,-0.46125895
CVOE_B,1014,1,1,50,A 10,,,TRUE,OE,p,1299,oe,A,0,e,e,TRUE,1,-0.287201788
CVOE_B,1014,1,1,53,E 60,,,TRUE,OE,p,2605,oe,E,0,e,e,TRUE,1,0.279677645
CVOE_B,1014,1,1,54,A 95,,,FALSE,OE,q,1277,oe,A,5,o,o,TRUE,1,-0.296751059
CVOE_B,1014,1,1,55,E 64,,,TRUE,OE,p,2071,oe,E,4,e,e,TRUE,1,0.047890802
CVOE_B,1014,1,1,56,P 20,,,FALSE,OE,p,709,oe,P,0,e,e,TRUE,1,-0.543295866
CVOE_B,1014,1,1,57,S 06,,,FALSE,OE,p,1055,oe,S,6,e,e,TRUE,1,-0.393111882
CVOE_B,1014,1,1,58,P 64,,,FALSE,OE,p,1704,oe,P,4,e,e,TRUE,1,-0.111408396
CVOE_B,1014,1,1,59,U 70,,,TRUE,OE,p,1552,oe,U,0,e,e,TRUE,1,-0.177385175
CVOE_B,1014,1,1,60,S 16,,,FALSE,OE,p,1697,oe,S,6,e,e,TRUE,1,-0.1144468
CVOE_B,1014,1,1,61,E 35,,,FALSE,OE,q,964,oe,E,5,o,o,TRUE,1,-0.432611138
CVOE_B,1014,1,1,62,I 93,,,FALSE,OE,q,1232,oe,I,3,o,o,TRUE,1,-0.316283658
CVOE_B,1014,1,1,63,D 63,,,TRUE,OE,q,1265,oe,D,3,o,o,TRUE,1,-0.301959752
CVOE_B,1014,1,1,64,U 89,,,FALSE,OE,q,854,oe,U,9,o,o,TRUE,1,-0.480357491
CVOE_B,1014,1,1,65,E 91,,,FALSE,OE,q,805,oe,E,1,o,o,TRUE,1,-0.501626321
CVOE_B,1014,1,1,66,A 12,,,TRUE,OE,p,1309,oe,A,2,e,e,TRUE,1,-0.282861211
CVOE_B,1014,1,1,68,S 65,,,TRUE,OE,q,807,oe,S,5,o,o,TRUE,1,-0.500758206
CVOE_B,1014,1,1,69,P 07,,,TRUE,OE,q,1032,oe,P,7,o,o,TRUE,1,-0.40309521
CVOE_B,1014,1,1,70,I 77,,,FALSE,OE,q,782,oe,I,7,o,o,TRUE,1,-0.51160965
CVOE_B,1014,1,1,71,J 19,,,TRUE,OE,q,1105,oe,J,9,o,o,TRUE,1,-0.371408994
CVOE_B,1014,1,1,72,O 59,,,FALSE,OE,q,657,oe,O,9,o,o,TRUE,1,-0.56586687
CVOE_B,1014,1,1,73,J 15,,,TRUE,OE,q,904,oe,J,5,o,o,TRUE,1,-0.458654603
CVOE_B,1014,1,1,74,I 89,,,FALSE,OE,q,734,oe,I,9,o,o,TRUE,1,-0.532444422
CVOE_B,1014,1,1,75,O 97,,,FALSE,OE,q,650,oe,O,7,o,o,TRUE,1,-0.568905274
CVOE_B,1014,1,1,77,J 90,,,FALSE,OE,p,2296,oe,J,0,e,e,TRUE,1,0.145553798
CVOE_B,1014,1,1,78,H 65,,,TRUE,OE,q,1485,oe,H,5,o,o,TRUE,1,-0.206467045
CVOE_B,1014,1,1,79,H 17,,,TRUE,OE,q,1065,oe,H,7,o,o,TRUE,1,-0.388771304
CVOE_B,1014,1,1,80,S 26,,,FALSE,OE,p,1621,oe,S,6,e,e,TRUE,1,-0.14743519
CVOE_B,1014,1,1,82,I 91,,,FALSE,OE,q,960,oe,I,1,o,o,TRUE,1,-0.434347369
CVOE_B,1014,1,1,83,J 11,,,TRUE,OE,q,1878,oe,J,1,o,o,TRUE,1,-0.035882346
CVOE_B,1014,1,1,84,O 28,,,TRUE,OE,p,1223,oe,O,8,e,e,TRUE,1,-0.320190178
CVOE_B,1014,1,1,85,H 29,,,TRUE,OE,q,721,oe,H,9,o,o,TRUE,1,-0.538087173
CVOE_B,1014,1,1,86,J 25,,,TRUE,OE,q,1840,oe,J,5,o,o,TRUE,1,-0.052376541
CVOE_B,1014,1,1,87,A 73,,,FALSE,OE,q,747,oe,A,3,o,o,TRUE,1,-0.526801671
CVOE_B,1014,1,1,88,J 63,,,TRUE,OE,q,1109,oe,J,3,o,o,TRUE,1,-0.369672763
CVOE_B,1014,1,1,89,U 84,,,TRUE,OE,p,999,oe,U,4,e,e,TRUE,1,-0.417419116
CVOE_B,1014,1,1,90,A 58,,,TRUE,OE,p,997,oe,A,8,e,e,TRUE,1,-0.418287232
CVOE_B,1014,1,1,91,S 43,,,TRUE,OE,q,966,oe,S,3,o,o,TRUE,1,-0.431743022
CVOE_B,1014,1,1,92,H 54,,,FALSE,OE,p,799,oe,H,4,e,e,TRUE,1,-0.504230668
CVOE_B,1014,1,1,94,J 75,,,TRUE,OE,q,807,oe,J,5,o,o,TRUE,1,-0.500758206
CVOE_B,1014,1,1,95,D 19,,,TRUE,OE,q,2938,oe,D,9,o,o,TRUE,1,0.424218879
CVOE_B,1014,1,1,98,P 87,,,TRUE,OE,q,917,oe,P,7,o,o,TRUE,1,-0.453011852
CVOE_B,1014,1,1,99,O 80,,,TRUE,OE,p,798,oe,O,0,e,e,TRUE,1,-0.504664726
CVOE_B,1014,1,1,100,U 60,,,TRUE,OE,p,938,oe,U,0,e,e,TRUE,1,-0.443896639
CVOE_B,1014,1,1,101,P 48,,,FALSE,OE,p,1152,oe,P,8,e,e,TRUE,1,-0.351008279
CVOE_B,1014,1,1,102,H 64,,,FALSE,OE,p,1387,oe,H,4,e,e,TRUE,1,-0.249004705
CVOE_B,1014,1,1,103,A 13,,,FALSE,OE,q,1850,oe,A,3,o,o,TRUE,1,-0.048035963
CVOE_B,1014,1,1,104,H 68,,,FALSE,OE,p,3547,oe,H,8,e,e,TRUE,1,0.688560055
CVOE_B,1014,1,1,105,E 16,,,TRUE,OE,p,1049,oe,E,6,e,e,TRUE,1,-0.395716228
CVOE_B,1014,1,1,106,S 71,,,TRUE,OE,q,3203,oe,S,1,o,o,TRUE,1,0.539244185
CVOE updated,2001,1,1,11,A 71,,,FALSE,CV,p,4796,cv,A,1,v,v,TRUE,1,1.230698196
CVOE updated,2001,1,1,12,I 66,,,TRUE,CV,p,1007,cv,I,6,v,v,TRUE,1,-0.413946654
CVOE updated,2001,1,1,13,S 30,,,FALSE,CV,q,1346,cv,S,0,c,c,TRUE,1,-0.266801074
CVOE updated,2001,1,1,14,D 20,,,FALSE,CV,q,1432,cv,D,0,c,c,TRUE,1,-0.229472106
CVOE updated,2001,1,1,15,I 31,,,FALSE,CV,p,1395,cv,I,1,v,v,TRUE,1,-0.245532243
CVOE updated,2001,1,1,16,P 16,,,FALSE,CV,q,1118,cv,P,6,c,c,TRUE,1,-0.365766243
CVOE updated,2001,1,1,17,A 49,,,FALSE,CV,p,1321,cv,A,9,v,v,TRUE,1,-0.277652518
CVOE updated,2001,1,1,18,O 64,,,TRUE,CV,p,1105,cv,O,4,v,v,TRUE,1,-0.371408994
CVOE updated,2001,1,1,19,D 02,,,FALSE,CV,q,932,cv,D,2,c,c,TRUE,1,-0.446500986
CVOE updated,2001,1,1,20,P 81,,,TRUE,CV,q,1202,cv,P,1,c,c,TRUE,1,-0.329305391
CVOE updated,2001,1,1,21,J 58,,,FALSE,CV,q,1125,cv,J,8,c,c,TRUE,1,-0.362727838
CVOE updated,2001,1,1,22,A 22,,,TRUE,CV,p,1484,cv,A,2,v,v,TRUE,1,-0.206901103
CVOE updated,2001,1,1,23,J 72,,,FALSE,CV,q,2416,cv,J,2,c,c,TRUE,1,0.197640729
CVOE updated,2001,1,1,24,P 91,,,TRUE,CV,q,1316,cv,P,1,c,c,TRUE,1,-0.279822806
CVOE updated,2001,1,1,25,E 19,,,FALSE,CV,p,1122,cv,E,9,v,v,TRUE,1,-0.364030012
CVOE updated,2001,1,1,26,I 30,,,TRUE,CV,p,1207,cv,I,0,v,v,TRUE,1,-0.327135102
CVOE updated,2001,1,1,27,D 91,,,TRUE,CV,q,974,cv,D,1,c,c,TRUE,1,-0.42827056
CVOE updated,2001,1,1,28,O 48,,,TRUE,CV,p,1406,cv,O,8,v,v,TRUE,1,-0.240757608
CVOE updated,2001,1,1,29,A 89,,,FALSE,CV,p,1363,cv,A,9,v,v,TRUE,1,-0.259422092
CVOE updated,2001,1,1,30,U 11,,,FALSE,CV,p,1158,cv,U,1,v,v,TRUE,1,-0.348403932
CVOE updated,2001,1,1,31,I 76,,,TRUE,CV,p,1014,cv,I,6,v,v,TRUE,1,-0.41090825
CVOE updated,2001,1,1,32,U 89,,,FALSE,CV,p,768,cv,U,9,v,v,TRUE,1,-0.517686459
CVOE updated,2001,1,1,33,D 63,,,TRUE,CV,q,948,cv,D,3,c,c,TRUE,1,-0.439556062
CVOE updated,2001,1,1,34,H 70,,,FALSE,CV,q,967,cv,H,0,c,c,TRUE,1,-0.431308964
CVOE updated,2001,1,1,35,D 48,,,FALSE,CV,q,1163,cv,D,8,c,c,TRUE,1,-0.346233644
CVOE updated,2001,1,1,36,P 56,,,FALSE,CV,q,1590,cv,P,6,c,c,TRUE,1,-0.16089098
CVOE updated,2001,1,1,37,O 77,,,FALSE,CV,p,972,cv,O,7,v,v,TRUE,1,-0.429138676
CVOE updated,2001,1,1,38,P 42,,,FALSE,CV,q,1130,cv,P,2,c,c,TRUE,1,-0.36055755
CVOE updated,2001,1,1,39,H 22,,,FALSE,CV,q,1120,cv,H,2,c,c,TRUE,1,-0.364898127
CVOE updated,2001,1,1,40,E 42,,,TRUE,CV,p,1126,cv,E,2,v,v,TRUE,1,-0.362293781
CVOE updated,2001,1,1,41,J 28,,,FALSE,CV,q,1312,cv,J,8,c,c,TRUE,1,-0.281559037
CVOE updated,2001,1,1,42,E 95,,,FALSE,CV,p,1354,cv,E,5,v,v,TRUE,1,-0.263328612
CVOE updated,2001,1,1,43,S 63,,,TRUE,CV,q,969,cv,S,3,c,c,TRUE,1,-0.430440849
CVOE updated,2001,1,1,44,H 50,,,FALSE,CV,q,1009,cv,H,0,c,c,TRUE,1,-0.413078539
CVOE updated,2001,1,1,45,S 33,,,TRUE,CV,q,1155,cv,S,3,c,c,TRUE,1,-0.349706106
CVOE updated,2001,1,1,46,P 57,,,TRUE,CV,q,1247,cv,P,7,c,c,TRUE,1,-0.309772792
CVOE updated,2001,1,1,47,E 23,,,FALSE,CV,p,1002,cv,E,3,v,v,TRUE,1,-0.416116943
CVOE updated,2001,1,1,48,S 61,,,TRUE,CV,q,929,cv,S,1,c,c,TRUE,1,-0.447803159
CVOE updated,2001,1,1,49,U 67,,,FALSE,CV,p,1199,cv,U,7,v,v,TRUE,1,-0.330607564
CVOE updated,2001,1,1,50,H 32,,,FALSE,CV,q,848,cv,H,2,c,c,TRUE,1,-0.482961838
CVOE updated,2001,1,1,51,U 50,,,TRUE,CV,p,1083,cv,U,0,v,v,TRUE,1,-0.380958264
CVOE updated,2001,1,1,52,O 49,,,FALSE,CV,p,967,cv,O,9,v,v,TRUE,1,-0.431308964
CVOE updated,2001,1,1,53,U 32,,,TRUE,CV,p,889,cv,U,2,v,v,TRUE,1,-0.46516547
CVOE updated,2001,1,1,54,J 78,,,FALSE,CV,q,1639,cv,J,8,c,c,TRUE,1,-0.13962215
CVOE updated,2001,1,1,56,J 27,,,TRUE,CV,q,4611,cv,J,7,c,c,TRUE,1,1.150397511
CVOE updated,2001,1,1,57,S 06,,,FALSE,CV,q,1201,cv,S,6,c,c,TRUE,1,-0.329739449
CVOE updated,2001,1,1,58,D 67,,,TRUE,CV,q,969,cv,D,7,c,c,TRUE,1,-0.430440849
CVOE updated,2001,1,1,59,A 79,,,FALSE,CV,p,1087,cv,A,9,v,v,TRUE,1,-0.379222033
CVOE updated,2001,1,1,60,S 52,,,FALSE,CV,q,853,cv,S,2,c,c,TRUE,1,-0.480791549
CVOE updated,2001,1,1,61,U 16,,,TRUE,CV,p,1009,cv,U,6,v,v,TRUE,1,-0.413078539
CVOE updated,2001,1,1,62,O 82,,,TRUE,CV,p,898,cv,O,2,v,v,TRUE,1,-0.46125895
CVOE updated,2001,1,1,63,H 87,,,TRUE,CV,q,809,cv,H,7,c,c,TRUE,1,-0.49989009
CVOE updated,2001,1,1,64,I 32,,,TRUE,CV,p,961,cv,I,2,v,v,TRUE,1,-0.433913311
CVOE updated,2001,1,1,65,U 37,,,FALSE,CV,p,1157,cv,U,7,v,v,TRUE,1,-0.34883799
CVOE updated,2001,1,1,66,I 42,,,TRUE,CV,p,895,cv,I,2,v,v,TRUE,1,-0.462561123
CVOE updated,2001,1,1,70,I 60,,,TRUE,CV,p,1601,cv,I,0,v,v,TRUE,1,-0.156116345
CVOE updated,2001,1,1,72,H 75,,,TRUE,CV,q,1122,cv,H,5,c,c,TRUE,1,-0.364030012
CVOE updated,2001,1,1,73,I 50,,,TRUE,CV,p,1051,cv,I,0,v,v,TRUE,1,-0.394848113
CVOE updated,2001,1,1,74,E 99,,,FALSE,CV,p,1198,cv,E,9,v,v,TRUE,1,-0.331041622
CVOE updated,2001,1,1,75,A 86,,,TRUE,CV,p,1160,cv,A,6,v,v,TRUE,1,-0.347535817
CVOE updated,2001,1,1,76,U 48,,,TRUE,CV,p,921,cv,U,8,v,v,TRUE,1,-0.451275621
CVOE updated,2001,1,1,77,E 01,,,FALSE,CV,p,1207,cv,E,1,v,v,TRUE,1,-0.327135102
CVOE updated,2001,1,1,78,A 78,,,TRUE,CV,p,777,cv,A,8,v,v,TRUE,1,-0.513779939
CVOE updated,2001,1,1,79,P 60,,,FALSE,CV,q,1041,cv,P,0,c,c,TRUE,1,-0.39918869
CVOE updated,2001,1,1,80,E 43,,,FALSE,CV,p,974,cv,E,3,v,v,TRUE,1,-0.42827056
CVOE updated,2001,1,1,81,D 69,,,TRUE,CV,q,1036,cv,D,9,c,c,TRUE,1,-0.401358979
CVOE updated,2001,1,1,82,H 11,,,TRUE,CV,q,1010,cv,H,1,c,c,TRUE,1,-0.412644481
CVOE updated,2001,1,1,83,P 43,,,TRUE,CV,q,960,cv,P,3,c,c,TRUE,1,-0.434347369
CVOE updated,2001,1,1,84,O 67,,,FALSE,CV,p,843,cv,O,7,v,v,TRUE,1,-0.485132127
CVOE updated,2001,1,1,85,S 91,,,FALSE,CV,q,806,cv,S,1,c,c,TRUE,1,-0.501192264
CVOE updated,2001,1,1,86,J 68,,,TRUE,CV,q,1520,cv,J,8,c,c,TRUE,1,-0.191275023
CVOE updated,2001,1,1,87,S 47,,,FALSE,CV,q,1008,cv,S,7,c,c,TRUE,1,-0.413512596
CVOE updated,2001,1,1,88,I 81,,,TRUE,CV,p,998,cv,I,1,v,v,TRUE,1,-0.417853174
CVOE updated,2001,1,1,89,J 39,,,FALSE,CV,q,1553,cv,J,9,c,c,TRUE,1,-0.176951117
CVOE updated,2001,1,1,90,A 11,,,TRUE,CV,p,1142,cv,A,1,v,v,TRUE,1,-0.355348857
CVOE updated,2001,1,1,91,O 76,,,FALSE,CV,p,1076,cv,O,6,v,v,TRUE,1,-0.383996669
CVOE updated,2001,1,1,92,A 62,,,FALSE,CV,p,999,cv,A,2,v,v,TRUE,1,-0.417419116
CVOE updated,2001,1,1,93,O 27,,,TRUE,CV,p,809,cv,O,7,v,v,TRUE,1,-0.49989009
CVOE updated,2001,1,1,94,E 66,,,FALSE,CV,p,1196,cv,E,6,v,v,TRUE,1,-0.331909738
CVOE updated,2001,1,1,95,J 62,,,TRUE,CV,q,1197,cv,J,2,c,c,TRUE,1,-0.33147568
CVOE updated,2001,1,1,96,H 72,,,TRUE,CV,q,1238,cv,H,2,c,c,TRUE,1,-0.313679312
CVOE updated,2001,1,1,97,E 49,,,TRUE,CV,p,932,cv,E,9,v,v,TRUE,1,-0.446500986
CVOE updated,2001,1,1,98,D 52,,,TRUE,CV,q,887,cv,D,2,c,c,TRUE,1,-0.466033585
CVOE updated,2001,1,1,99,H 62,,,TRUE,CV,q,1050,cv,H,2,c,c,TRUE,1,-0.39528217
CVOE updated,2001,1,1,100,I 11,,,TRUE,CV,p,928,cv,I,1,v,v,TRUE,1,-0.448237217
CVOE updated,2001,1,1,101,A 98,,,FALSE,CV,p,1079,cv,A,8,v,v,TRUE,1,-0.382694495
CVOE updated,2001,1,1,102,H 29,,,FALSE,CV,q,1119,cv,H,9,c,c,TRUE,1,-0.365332185
CVOE updated,2001,1,1,103,E 83,,,TRUE,CV,p,1244,cv,E,3,v,v,TRUE,1,-0.311074965
CVOE updated,2001,1,1,104,D 43,,,FALSE,CV,q,843,cv,D,3,c,c,TRUE,1,-0.485132127
CVOE updated,2001,1,1,106,J 17,,,TRUE,CV,q,2383,cv,J,7,c,c,TRUE,1,0.183316823
CVOE_B,2002,1,1,12,O 83,,,FALSE,OE,q,1594,oe,O,3,o,o,TRUE,1,-0.159154749
CVOE_B,2002,1,1,13,H 55,,,TRUE,OE,q,3698,oe,H,5,o,o,TRUE,1,0.754102776
CVOE_B,2002,1,1,14,P 10,,,FALSE,OE,p,879,oe,P,0,e,e,TRUE,1,-0.469506047
CVOE_B,2002,1,1,15,D 30,,,FALSE,OE,p,962,oe,D,0,e,e,TRUE,1,-0.433479253
CVOE_B,2002,1,1,16,U 62,,,TRUE,OE,p,1745,oe,U,2,e,e,TRUE,1,-0.093612028
CVOE_B,2002,1,1,17,P 95,,,TRUE,OE,q,1037,oe,P,5,o,o,TRUE,1,-0.400924921
CVOE_B,2002,1,1,18,U 06,,,TRUE,OE,p,852,oe,U,6,e,e,TRUE,1,-0.481225607
CVOE_B,2002,1,1,19,E 75,,,FALSE,OE,q,852,oe,E,5,o,o,TRUE,1,-0.481225607
CVOE_B,2002,1,1,20,I 67,,,FALSE,OE,q,1282,oe,I,7,o,o,TRUE,1,-0.29458077
CVOE_B,2002,1,1,21,S 13,,,TRUE,OE,q,964,oe,S,3,o,o,TRUE,1,-0.432611138
CVOE_B,2002,1,1,22,P 78,,,FALSE,OE,p,885,oe,P,8,e,e,TRUE,1,-0.466901701
CVOE_B,2002,1,1,26,A 65,,,FALSE,OE,q,1469,oe,A,5,o,o,TRUE,1,-0.213411969
CVOE_B,2002,1,1,27,I 42,,,TRUE,OE,p,1554,oe,I,2,e,e,TRUE,1,-0.17651706
CVOE_B,2002,1,1,29,H 49,,,TRUE,OE,q,1355,oe,H,9,o,o,TRUE,1,-0.262894554
CVOE_B,2002,1,1,30,S 18,,,FALSE,OE,p,2458,oe,S,8,e,e,TRUE,1,0.215871155
CVOE_B,2002,1,1,32,U 14,,,TRUE,OE,p,1165,oe,U,4,e,e,TRUE,1,-0.345365528
CVOE_B,2002,1,1,33,E 02,,,TRUE,OE,p,1395,oe,E,2,e,e,TRUE,1,-0.245532243
CVOE_B,2002,1,1,34,J 26,,,FALSE,OE,p,1157,oe,J,6,e,e,TRUE,1,-0.34883799
CVOE_B,2002,1,1,35,D 24,,,FALSE,OE,p,1559,oe,D,4,e,e,TRUE,1,-0.174346771
CVOE_B,2002,1,1,36,O 50,,,TRUE,OE,p,1348,oe,O,0,e,e,TRUE,1,-0.265932958
CVOE_B,2002,1,1,37,U 16,,,TRUE,OE,p,1590,oe,U,6,e,e,TRUE,1,-0.16089098
CVOE_B,2002,1,1,39,D 32,,,FALSE,OE,p,1865,oe,D,2,e,e,TRUE,1,-0.041525097
CVOE_B,2002,1,1,40,S 67,,,TRUE,OE,q,1001,oe,S,7,o,o,TRUE,1,-0.416551001
CVOE_B,2002,1,1,43,A 65,,,FALSE,OE,q,999,oe,A,5,o,o,TRUE,1,-0.417419116
CVOE_B,2002,1,1,44,I 87,,,FALSE,OE,q,1161,oe,I,7,o,o,TRUE,1,-0.347101759
CVOE_B,2002,1,1,45,H 61,,,TRUE,OE,q,999,oe,H,1,o,o,TRUE,1,-0.417419116
CVOE_B,2002,1,1,46,E 59,,,FALSE,OE,q,1357,oe,E,9,o,o,TRUE,1,-0.262026438
CVOE_B,2002,1,1,47,I 33,,,FALSE,OE,q,3399,oe,I,3,o,o,TRUE,1,0.624319506
CVOE_B,2002,1,1,48,O 90,,,TRUE,OE,p,765,oe,O,0,e,e,TRUE,1,-0.518988632
CVOE_B,2002,1,1,49,U 51,,,FALSE,OE,q,887,oe,U,1,o,o,TRUE,1,-0.466033585
CVOE_B,2002,1,1,50,A 10,,,TRUE,OE,p,853,oe,A,0,e,e,TRUE,1,-0.480791549
CVOE_B,2002,1,1,51,E 50,,,TRUE,OE,p,735,oe,E,0,e,e,TRUE,1,-0.532010365
CVOE_B,2002,1,1,53,E 60,,,TRUE,OE,p,618,oe,E,0,e,e,TRUE,1,-0.582795122
CVOE_B,2002,1,1,54,A 95,,,FALSE,OE,q,773,oe,A,5,o,o,TRUE,1,-0.51551617
CVOE_B,2002,1,1,55,E 64,,,TRUE,OE,p,762,oe,E,4,e,e,TRUE,1,-0.520290805
CVOE_B,2002,1,1,56,P 20,,,FALSE,OE,p,1080,oe,P,0,e,e,TRUE,1,-0.382260438
CVOE_B,2002,1,1,57,S 06,,,FALSE,OE,p,727,oe,S,6,e,e,TRUE,1,-0.535482827
CVOE_B,2002,1,1,58,P 64,,,FALSE,OE,p,962,oe,P,4,e,e,TRUE,1,-0.433479253
CVOE_B,2002,1,1,60,S 16,,,FALSE,OE,p,771,oe,S,6,e,e,TRUE,1,-0.516384285
CVOE_B,2002,1,1,62,I 93,,,FALSE,OE,q,1316,oe,I,3,o,o,TRUE,1,-0.279822806
CVOE_B,2002,1,1,63,D 63,,,TRUE,OE,q,1280,oe,D,3,o,o,TRUE,1,-0.295448886
CVOE_B,2002,1,1,64,U 89,,,FALSE,OE,q,884,oe,U,9,o,o,TRUE,1,-0.467335758
CVOE_B,2002,1,1,65,E 91,,,FALSE,OE,q,890,oe,E,1,o,o,TRUE,1,-0.464731412
CVOE_B,2002,1,1,66,A 12,,,TRUE,OE,p,739,oe,A,2,e,e,TRUE,1,-0.530274134
CVOE_B,2002,1,1,68,S 65,,,TRUE,OE,q,1673,oe,S,5,o,o,TRUE,1,-0.124864186
CVOE_B,2002,1,1,69,P 07,,,TRUE,OE,q,736,oe,P,7,o,o,TRUE,1,-0.531576307
CVOE_B,2002,1,1,70,I 77,,,FALSE,OE,q,1323,oe,I,7,o,o,TRUE,1,-0.276784402
CVOE_B,2002,1,1,71,J 19,,,TRUE,OE,q,776,oe,J,9,o,o,TRUE,1,-0.514213996
CVOE_B,2002,1,1,72,O 59,,,FALSE,OE,q,842,oe,O,9,o,o,TRUE,1,-0.485566184
CVOE_B,2002,1,1,74,I 89,,,FALSE,OE,q,925,oe,I,9,o,o,TRUE,1,-0.44953939
CVOE_B,2002,1,1,75,O 97,,,FALSE,OE,q,801,oe,O,7,o,o,TRUE,1,-0.503362552
CVOE_B,2002,1,1,77,J 90,,,FALSE,OE,p,738,oe,J,0,e,e,TRUE,1,-0.530708191
CVOE_B,2002,1,1,79,H 17,,,TRUE,OE,q,922,oe,H,7,o,o,TRUE,1,-0.450841564
CVOE_B,2002,1,1,80,S 26,,,FALSE,OE,p,776,oe,S,6,e,e,TRUE,1,-0.514213996
CVOE_B,2002,1,1,81,D 56,,,FALSE,OE,p,960,oe,D,6,e,e,TRUE,1,-0.434347369
CVOE_B,2002,1,1,83,J 11,,,TRUE,OE,q,1167,oe,J,1,o,o,TRUE,1,-0.344497413
CVOE_B,2002,1,1,84,O 28,,,TRUE,OE,p,770,oe,O,8,e,e,TRUE,1,-0.516818343
CVOE_B,2002,1,1,85,H 29,,,TRUE,OE,q,1754,oe,H,9,o,o,TRUE,1,-0.089705508
CVOE_B,2002,1,1,87,A 73,,,FALSE,OE,q,727,oe,A,3,o,o,TRUE,1,-0.535482827
CVOE_B,2002,1,1,89,U 84,,,TRUE,OE,p,888,oe,U,4,e,e,TRUE,1,-0.465599527
CVOE_B,2002,1,1,91,S 43,,,TRUE,OE,q,1676,oe,S,3,o,o,TRUE,1,-0.123562013
CVOE_B,2002,1,1,95,D 19,,,TRUE,OE,q,734,oe,D,9,o,o,TRUE,1,-0.532444422
CVOE_B,2002,1,1,97,I 56,,,TRUE,OE,p,841,oe,I,6,e,e,TRUE,1,-0.486000242
CVOE_B,2002,1,1,98,P 87,,,TRUE,OE,q,919,oe,P,7,o,o,TRUE,1,-0.452143737
CVOE_B,2002,1,1,99,O 80,,,TRUE,OE,p,774,oe,O,0,e,e,TRUE,1,-0.515082112
CVOE_B,2002,1,1,100,U 60,,,TRUE,OE,p,779,oe,U,0,e,e,TRUE,1,-0.512911823
CVOE_B,2002,1,1,101,P 48,,,FALSE,OE,p,845,oe,P,8,e,e,TRUE,1,-0.484264011
CVOE_B,2002,1,1,102,H 64,,,FALSE,OE,p,844,oe,H,4,e,e,TRUE,1,-0.484698069
CVOE_B,2002,1,1,103,A 13,,,FALSE,OE,q,704,oe,A,3,o,o,TRUE,1,-0.545466155
CVOE_B,2002,1,1,104,H 68,,,FALSE,OE,p,779,oe,H,8,e,e,TRUE,1,-0.512911823
CVOE_B,2002,1,1,105,E 16,,,TRUE,OE,p,806,oe,E,6,e,e,TRUE,1,-0.501192264
CVOE_B,2002,1,1,106,S 71,,,TRUE,OE,q,816,oe,S,1,o,o,TRUE,1,-0.496851686
CVOE_C,2003,1,1,12,O 83,,,FALSE,OE,q,4426,oe,O,3,o,o,TRUE,1,1.070096825
CVOE_C,2003,1,1,13,H 55,,,TRUE,OE,q,2678,oe,H,5,o,o,TRUE,1,0.311363862
CVOE_C,2003,1,1,14,P 10,,,FALSE,OE,p,2056,oe,P,0,e,e,TRUE,1,0.041379936
CVOE_C,2003,1,1,15,D 30,,,FALSE,OE,p,3555,oe,D,0,e,e,TRUE,1,0.692032517
CVOE_C,2003,1,1,16,U 62,,,TRUE,OE,p,4066,oe,U,2,e,e,TRUE,1,0.913836032
CVOE_C,2003,1,1,17,P 95,,,TRUE,OE,q,2062,oe,P,5,o,o,TRUE,1,0.043984282
CVOE_C,2003,1,1,18,U 06,,,TRUE,OE,p,5272,oe,U,6,e,e,TRUE,1,1.437309689
CVOE_C,2003,1,1,19,E 75,,,FALSE,OE,q,2956,oe,E,5,o,o,TRUE,1,0.432031919
CVOE_C,2003,1,1,20,I 67,,,FALSE,OE,q,2019,oe,I,7,o,o,TRUE,1,0.025319798
CVOE_C,2003,1,1,21,S 13,,,TRUE,OE,q,2351,oe,S,3,o,o,TRUE,1,0.169426975
CVOE_C,2003,1,1,22,P 78,,,FALSE,OE,p,4190,oe,P,8,e,e,TRUE,1,0.967659194
CVOE_C,2003,1,1,23,I 15,,,FALSE,OE,q,1340,oe,I,5,o,o,TRUE,1,-0.26940542
CVOE_C,2003,1,1,24,D 27,,,TRUE,OE,q,1331,oe,D,7,o,o,TRUE,1,-0.27331194
CVOE_C,2003,1,1,26,A 65,,,FALSE,OE,q,2949,oe,A,5,o,o,TRUE,1,0.428993515
CVOE_C,2003,1,1,27,I 42,,,TRUE,OE,p,2188,oe,I,2,e,e,TRUE,1,0.09867556
CVOE_C,2003,1,1,28,E 25,,,FALSE,OE,q,1466,oe,E,5,o,o,TRUE,1,-0.214714142
CVOE_C,2003,1,1,29,H 49,,,TRUE,OE,q,1643,oe,H,9,o,o,TRUE,1,-0.137885919
CVOE_C,2003,1,1,30,S 18,,,FALSE,OE,p,3054,oe,S,8,e,e,TRUE,1,0.474569579
CVOE_C,2003,1,1,31,H 51,,,TRUE,OE,q,1369,oe,H,1,o,o,TRUE,1,-0.256817745
CVOE_C,2003,1,1,32,U 14,,,TRUE,OE,p,1807,oe,U,4,e,e,TRUE,1,-0.066700447
CVOE_C,2003,1,1,33,E 02,,,TRUE,OE,p,2388,oe,E,2,e,e,TRUE,1,0.185487112
CVOE_C,2003,1,1,34,J 26,,,FALSE,OE,p,1281,oe,J,6,e,e,TRUE,1,-0.295014828
CVOE_C,2003,1,1,35,D 24,,,FALSE,OE,p,1154,oe,D,4,e,e,TRUE,1,-0.350140163
CVOE_C,2003,1,1,36,O 50,,,TRUE,OE,p,2200,oe,O,0,e,e,TRUE,1,0.103884253
CVOE_C,2003,1,1,37,U 16,,,TRUE,OE,p,1741,oe,U,6,e,e,TRUE,1,-0.095348259
CVOE_C,2003,1,1,38,O 15,,,FALSE,OE,q,1604,oe,O,5,o,o,TRUE,1,-0.154814172
CVOE_C,2003,1,1,41,J 74,,,FALSE,OE,p,5256,oe,J,4,e,e,TRUE,1,1.430364765
CVOE_C,2003,1,1,42,D 92,,,FALSE,OE,p,7844,oe,D,2,e,e,TRUE,1,2.553706246
CVOE_C,2003,1,1,43,A 65,,,FALSE,OE,q,1874,oe,A,5,o,o,TRUE,1,-0.037618577
CVOE_C,2003,1,1,44,I 87,,,FALSE,OE,q,2124,oe,I,7,o,o,TRUE,1,0.070895863
CVOE_C,2003,1,1,45,H 61,,,TRUE,OE,q,1636,oe,H,1,o,o,TRUE,1,-0.140924323
CVOE_C,2003,1,1,46,E 59,,,FALSE,OE,q,1799,oe,E,9,o,o,TRUE,1,-0.070172909
CVOE_C,2003,1,1,47,I 33,,,FALSE,OE,q,7483,oe,I,3,o,o,TRUE,1,2.397011395
CVOE_C,2003,1,1,48,O 90,,,TRUE,OE,p,5391,oe,O,0,e,e,TRUE,1,1.488962563
CVOE_C,2003,1,1,49,U 51,,,FALSE,OE,q,1493,oe,U,1,o,o,TRUE,1,-0.202994583
CVOE_C,2003,1,1,50,A 10,,,TRUE,OE,p,1910,oe,A,0,e,e,TRUE,1,-0.021992497
CVOE_C,2003,1,1,51,E 50,,,TRUE,OE,p,1350,oe,E,0,e,e,TRUE,1,-0.265064843
CVOE_C,2003,1,1,53,E 60,,,TRUE,OE,p,1697,oe,E,0,e,e,TRUE,1,-0.1144468
CVOE_C,2003,1,1,54,A 95,,,FALSE,OE,q,2898,oe,A,5,o,o,TRUE,1,0.406856569
CVOE_C,2003,1,1,55,E 64,,,TRUE,OE,p,7619,oe,E,4,e,e,TRUE,1,2.456043251
CVOE_C,2003,1,1,56,P 20,,,FALSE,OE,p,1362,oe,P,0,e,e,TRUE,1,-0.259856149
CVOE_C,2003,1,1,57,S 06,,,FALSE,OE,p,1376,oe,S,6,e,e,TRUE,1,-0.253779341
CVOE_C,2003,1,1,58,P 64,,,FALSE,OE,p,1285,oe,P,4,e,e,TRUE,1,-0.293278597
CVOE_C,2003,1,1,59,U 70,,,TRUE,OE,p,1342,oe,U,0,e,e,TRUE,1,-0.268537305
CVOE_C,2003,1,1,60,S 16,,,FALSE,OE,p,1260,oe,S,6,e,e,TRUE,1,-0.304130041
CVOE_C,2003,1,1,61,E 35,,,FALSE,OE,q,1902,oe,E,5,o,o,TRUE,1,-0.025464959
CVOE_C,2003,1,1,62,I 93,,,FALSE,OE,q,2542,oe,I,3,o,o,TRUE,1,0.252332007
CVOE_C,2003,1,1,63,D 63,,,TRUE,OE,q,2077,oe,D,3,o,o,TRUE,1,0.050495148
CVOE_C,2003,1,1,64,U 89,,,FALSE,OE,q,2063,oe,U,9,o,o,TRUE,1,0.04441834
CVOE_C,2003,1,1,65,E 91,,,FALSE,OE,q,1513,oe,E,1,o,o,TRUE,1,-0.194313428
CVOE_C,2003,1,1,66,A 12,,,TRUE,OE,p,1688,oe,A,2,e,e,TRUE,1,-0.11835332
CVOE_C,2003,1,1,67,P 56,,,FALSE,OE,p,4426,oe,P,6,e,e,TRUE,1,1.070096825
CVOE_C,2003,1,1,68,S 65,,,TRUE,OE,q,1286,oe,S,5,o,o,TRUE,1,-0.292844539
CVOE_C,2003,1,1,69,P 07,,,TRUE,OE,q,1455,oe,P,7,o,o,TRUE,1,-0.219488778
CVOE_C,2003,1,1,70,I 77,,,FALSE,OE,q,1066,oe,I,7,o,o,TRUE,1,-0.388337246
CVOE_C,2003,1,1,71,J 19,,,TRUE,OE,q,1715,oe,J,9,o,o,TRUE,1,-0.10663376
CVOE_C,2003,1,1,72,O 59,,,FALSE,OE,q,1443,oe,O,9,o,o,TRUE,1,-0.224697471
CVOE_C,2003,1,1,73,J 15,,,TRUE,OE,q,1126,oe,J,5,o,o,TRUE,1,-0.362293781
CVOE_C,2003,1,1,74,I 89,,,FALSE,OE,q,1596,oe,I,9,o,o,TRUE,1,-0.158286634
CVOE_C,2003,1,1,75,O 97,,,FALSE,OE,q,1225,oe,O,7,o,o,TRUE,1,-0.319322062
CVOE_C,2003,1,1,77,J 90,,,FALSE,OE,p,3853,oe,J,0,e,e,TRUE,1,0.821381729
CVOE_C,2003,1,1,78,H 65,,,TRUE,OE,q,1569,oe,H,5,o,o,TRUE,1,-0.170006193
CVOE_C,2003,1,1,79,H 17,,,TRUE,OE,q,863,oe,H,7,o,o,TRUE,1,-0.476450971
CVOE_C,2003,1,1,80,S 26,,,FALSE,OE,p,1752,oe,S,6,e,e,TRUE,1,-0.090573623
CVOE_C,2003,1,1,82,I 91,,,FALSE,OE,q,1948,oe,I,1,o,o,TRUE,1,-0.005498303
CVOE_C,2003,1,1,83,J 11,,,TRUE,OE,q,1474,oe,J,1,o,o,TRUE,1,-0.21124168
CVOE_C,2003,1,1,84,O 28,,,TRUE,OE,p,2235,oe,O,8,e,e,TRUE,1,0.119076274
CVOE_C,2003,1,1,85,H 29,,,TRUE,OE,q,1775,oe,H,9,o,o,TRUE,1,-0.080590295
CVOE_C,2003,1,1,87,A 73,,,FALSE,OE,q,1819,oe,A,3,o,o,TRUE,1,-0.061491753
CVOE_C,2003,1,1,88,J 63,,,TRUE,OE,q,1679,oe,J,3,o,o,TRUE,1,-0.12225984
CVOE_C,2003,1,1,89,U 84,,,TRUE,OE,p,1592,oe,U,4,e,e,TRUE,1,-0.160022865
CVOE_C,2003,1,1,90,A 58,,,TRUE,OE,p,4252,oe,A,8,e,e,TRUE,1,0.994570775
CVOE_C,2003,1,1,91,S 43,,,TRUE,OE,q,1624,oe,S,3,o,o,TRUE,1,-0.146133017
CVOE_C,2003,1,1,92,H 54,,,FALSE,OE,p,2587,oe,H,4,e,e,TRUE,1,0.271864606
CVOE_C,2003,1,1,94,J 75,,,TRUE,OE,q,3568,oe,J,5,o,o,TRUE,1,0.697675268
CVOE_C,2003,1,1,95,D 19,,,TRUE,OE,q,2455,oe,D,9,o,o,TRUE,1,0.214568981
CVOE_C,2003,1,1,96,J 38,,,FALSE,OE,p,8202,oe,J,8,e,e,TRUE,1,2.709098924
CVOE_C,2003,1,1,98,P 87,,,TRUE,OE,q,1819,oe,P,7,o,o,TRUE,1,-0.061491753
CVOE_C,2003,1,1,99,O 80,,,TRUE,OE,p,2399,oe,O,0,e,e,TRUE,1,0.190261747
CVOE_C,2003,1,1,100,U 60,,,TRUE,OE,p,676,oe,U,0,e,e,TRUE,1,-0.557619772
CVOE_C,2003,1,1,101,P 48,,,FALSE,OE,p,973,oe,P,8,e,e,TRUE,1,-0.428704618
CVOE_C,2003,1,1,102,H 64,,,FALSE,OE,p,1210,oe,H,4,e,e,TRUE,1,-0.325832929
CVOE_C,2003,1,1,103,A 13,,,FALSE,OE,q,1334,oe,A,3,o,o,TRUE,1,-0.272009767
CVOE_C,2003,1,1,104,H 68,,,FALSE,OE,p,2245,oe,H,8,e,e,TRUE,1,0.123416852
CVOE_C,2003,1,1,105,E 16,,,TRUE,OE,p,927,oe,E,6,e,e,TRUE,1,-0.448671275
CVOE_C,2003,1,1,106,S 71,,,TRUE,OE,q,1190,oe,S,1,o,o,TRUE,1,-0.334514084
CVOE_D,2004,1,1,12,I 66,,,TRUE,CV,p,1240,cv,I,6,v,v,TRUE,1,-0.312811196
CVOE_D,2004,1,1,13,S 30,,,FALSE,CV,q,1130,cv,S,0,c,c,TRUE,1,-0.36055755
CVOE_D,2004,1,1,14,D 20,,,FALSE,CV,q,888,cv,D,0,c,c,TRUE,1,-0.465599527
CVOE_D,2004,1,1,16,P 16,,,FALSE,CV,q,4414,cv,P,6,c,c,TRUE,1,1.064888132
CVOE_D,2004,1,1,17,A 49,,,FALSE,CV,p,932,cv,A,9,v,v,TRUE,1,-0.446500986
CVOE_D,2004,1,1,18,O 64,,,TRUE,CV,p,1633,cv,O,4,v,v,TRUE,1,-0.142226497
CVOE_D,2004,1,1,19,D 02,,,FALSE,CV,q,886,cv,D,2,c,c,TRUE,1,-0.466467643
CVOE_D,2004,1,1,20,P 81,,,TRUE,CV,q,971,cv,P,1,c,c,TRUE,1,-0.429572733
CVOE_D,2004,1,1,21,J 58,,,FALSE,CV,q,854,cv,J,8,c,c,TRUE,1,-0.480357491
CVOE_D,2004,1,1,22,A 22,,,TRUE,CV,p,815,cv,A,2,v,v,TRUE,1,-0.497285744
CVOE_D,2004,1,1,23,J 72,,,FALSE,CV,q,1084,cv,J,2,c,c,TRUE,1,-0.380524207
CVOE_D,2004,1,1,24,P 91,,,TRUE,CV,q,1399,cv,P,1,c,c,TRUE,1,-0.243796012
CVOE_D,2004,1,1,25,E 19,,,FALSE,CV,p,983,cv,E,9,v,v,TRUE,1,-0.42436404
CVOE_D,2004,1,1,26,I 30,,,TRUE,CV,p,849,cv,I,0,v,v,TRUE,1,-0.48252778
CVOE_D,2004,1,1,27,D 91,,,TRUE,CV,q,693,cv,D,1,c,c,TRUE,1,-0.55024079
CVOE_D,2004,1,1,28,O 48,,,TRUE,CV,p,844,cv,O,8,v,v,TRUE,1,-0.484698069
CVOE_D,2004,1,1,29,A 89,,,FALSE,CV,p,1505,cv,A,9,v,v,TRUE,1,-0.19778589
CVOE_D,2004,1,1,30,U 11,,,FALSE,CV,p,775,cv,U,1,v,v,TRUE,1,-0.514648054
CVOE_D,2004,1,1,31,I 76,,,TRUE,CV,p,803,cv,I,6,v,v,TRUE,1,-0.502494437
CVOE_D,2004,1,1,32,U 89,,,FALSE,CV,p,1325,cv,U,9,v,v,TRUE,1,-0.275916287
CVOE_D,2004,1,1,33,D 63,,,TRUE,CV,q,1031,cv,D,3,c,c,TRUE,1,-0.403529268
CVOE_D,2004,1,1,34,H 70,,,FALSE,CV,q,1278,cv,H,0,c,c,TRUE,1,-0.296317001
CVOE_D,2004,1,1,36,P 56,,,FALSE,CV,q,1485,cv,P,6,c,c,TRUE,1,-0.206467045
CVOE_D,2004,1,1,37,O 77,,,FALSE,CV,p,655,cv,O,7,v,v,TRUE,1,-0.566734985
CVOE_D,2004,1,1,38,P 42,,,FALSE,CV,q,1091,cv,P,2,c,c,TRUE,1,-0.377485802
CVOE_D,2004,1,1,39,H 22,,,FALSE,CV,q,779,cv,H,2,c,c,TRUE,1,-0.512911823
CVOE_D,2004,1,1,40,E 42,,,TRUE,CV,p,572,cv,E,2,v,v,TRUE,1,-0.602761779
CVOE_D,2004,1,1,41,J 28,,,FALSE,CV,q,935,cv,J,8,c,c,TRUE,1,-0.445198813
CVOE_D,2004,1,1,42,E 95,,,FALSE,CV,p,1243,cv,E,5,v,v,TRUE,1,-0.311509023
CVOE_D,2004,1,1,43,S 63,,,TRUE,CV,q,686,cv,S,3,c,c,TRUE,1,-0.553279195
CVOE_D,2004,1,1,44,H 50,,,FALSE,CV,q,698,cv,H,0,c,c,TRUE,1,-0.548070502
CVOE_D,2004,1,1,45,S 33,,,TRUE,CV,q,574,cv,S,3,c,c,TRUE,1,-0.601893664
CVOE_D,2004,1,1,46,P 57,,,TRUE,CV,q,803,cv,P,7,c,c,TRUE,1,-0.502494437
CVOE_D,2004,1,1,47,E 23,,,FALSE,CV,p,853,cv,E,3,v,v,TRUE,1,-0.480791549
CVOE_D,2004,1,1,48,S 61,,,TRUE,CV,q,696,cv,S,1,c,c,TRUE,1,-0.548938617
CVOE_D,2004,1,1,49,U 67,,,FALSE,CV,p,691,cv,U,7,v,v,TRUE,1,-0.551108906
CVOE_D,2004,1,1,50,H 32,,,FALSE,CV,q,725,cv,H,2,c,c,TRUE,1,-0.536350942
CVOE_D,2004,1,1,51,U 50,,,TRUE,CV,p,1077,cv,U,0,v,v,TRUE,1,-0.383562611
CVOE_D,2004,1,1,52,O 49,,,FALSE,CV,p,882,cv,O,9,v,v,TRUE,1,-0.468203874
CVOE_D,2004,1,1,53,U 32,,,TRUE,CV,p,1006,cv,U,2,v,v,TRUE,1,-0.414380712
CVOE_D,2004,1,1,54,J 78,,,FALSE,CV,q,778,cv,J,8,c,c,TRUE,1,-0.513345881
CVOE_D,2004,1,1,55,S 54,,,FALSE,CV,q,610,cv,S,4,c,c,TRUE,1,-0.586267584
CVOE_D,2004,1,1,56,J 27,,,TRUE,CV,q,610,cv,J,7,c,c,TRUE,1,-0.586267584
CVOE_D,2004,1,1,57,S 06,,,FALSE,CV,q,491,cv,S,6,c,c,TRUE,1,-0.637920458
CVOE_D,2004,1,1,58,D 67,,,TRUE,CV,q,1078,cv,D,7,c,c,TRUE,1,-0.383128553
CVOE_D,2004,1,1,59,A 79,,,FALSE,CV,p,610,cv,A,9,v,v,TRUE,1,-0.586267584
CVOE_D,2004,1,1,60,S 52,,,FALSE,CV,q,727,cv,S,2,c,c,TRUE,1,-0.535482827
CVOE_D,2004,1,1,61,U 16,,,TRUE,CV,p,648,cv,U,6,v,v,TRUE,1,-0.56977339
CVOE_D,2004,1,1,62,O 82,,,TRUE,CV,p,888,cv,O,2,v,v,TRUE,1,-0.465599527
CVOE_D,2004,1,1,63,H 87,,,TRUE,CV,q,582,cv,H,7,c,c,TRUE,1,-0.598421202
CVOE_D,2004,1,1,64,I 32,,,TRUE,CV,p,849,cv,I,2,v,v,TRUE,1,-0.48252778
CVOE_D,2004,1,1,65,U 37,,,FALSE,CV,p,1006,cv,U,7,v,v,TRUE,1,-0.414380712
CVOE_D,2004,1,1,66,I 42,,,TRUE,CV,p,1091,cv,I,2,v,v,TRUE,1,-0.377485802
CVOE_D,2004,1,1,67,D 65,,,TRUE,CV,q,661,cv,D,5,c,c,TRUE,1,-0.564130639
CVOE_D,2004,1,1,68,U 77,,,FALSE,CV,p,808,cv,U,7,v,v,TRUE,1,-0.500324148
CVOE_D,2004,1,1,69,E 12,,,TRUE,CV,p,701,cv,E,2,v,v,TRUE,1,-0.546768328
CVOE_D,2004,1,1,70,I 60,,,TRUE,CV,p,1244,cv,I,0,v,v,TRUE,1,-0.311074965
CVOE_D,2004,1,1,71,J 36,,,FALSE,CV,q,648,cv,J,6,c,c,TRUE,1,-0.56977339
CVOE_D,2004,1,1,72,H 75,,,TRUE,CV,q,652,cv,H,5,c,c,TRUE,1,-0.568037159
CVOE_D,2004,1,1,73,I 50,,,TRUE,CV,p,697,cv,I,0,v,v,TRUE,1,-0.548504559
CVOE_D,2004,1,1,74,E 99,,,FALSE,CV,p,887,cv,E,9,v,v,TRUE,1,-0.466033585
CVOE_D,2004,1,1,75,A 86,,,TRUE,CV,p,737,cv,A,6,v,v,TRUE,1,-0.531142249
CVOE_D,2004,1,1,76,U 48,,,TRUE,CV,p,1520,cv,U,8,v,v,TRUE,1,-0.191275023
CVOE_D,2004,1,1,77,E 01,,,FALSE,CV,p,3867,cv,E,1,v,v,TRUE,1,0.827458538
CVOE_D,2004,1,1,78,A 78,,,TRUE,CV,p,3232,cv,A,8,v,v,TRUE,1,0.55183186
CVOE_D,2004,1,1,79,P 60,,,FALSE,CV,q,1429,cv,P,0,c,c,TRUE,1,-0.23077428
CVOE_D,2004,1,1,80,E 43,,,FALSE,CV,p,649,cv,E,3,v,v,TRUE,1,-0.569339332
CVOE_D,2004,1,1,81,D 69,,,TRUE,CV,q,1163,cv,D,9,c,c,TRUE,1,-0.346233644
CVOE_D,2004,1,1,82,H 11,,,TRUE,CV,q,1630,cv,H,1,c,c,TRUE,1,-0.14352867
CVOE_D,2004,1,1,83,P 43,,,TRUE,CV,q,609,cv,P,3,c,c,TRUE,1,-0.586701642
CVOE_D,2004,1,1,84,O 67,,,FALSE,CV,p,687,cv,O,7,v,v,TRUE,1,-0.552845137
CVOE_D,2004,1,1,85,S 91,,,FALSE,CV,q,659,cv,S,1,c,c,TRUE,1,-0.564998754
CVOE_D,2004,1,1,86,J 68,,,TRUE,CV,q,647,cv,J,8,c,c,TRUE,1,-0.570207447
CVOE_D,2004,1,1,87,S 47,,,FALSE,CV,q,574,cv,S,7,c,c,TRUE,1,-0.601893664
CVOE_D,2004,1,1,88,I 81,,,TRUE,CV,p,703,cv,I,1,v,v,TRUE,1,-0.545900213
CVOE_D,2004,1,1,89,J 39,,,FALSE,CV,q,658,cv,J,9,c,c,TRUE,1,-0.565432812
CVOE_D,2004,1,1,90,A 11,,,TRUE,CV,p,1038,cv,A,1,v,v,TRUE,1,-0.400490863
CVOE_D,2004,1,1,91,O 76,,,FALSE,CV,p,659,cv,O,6,v,v,TRUE,1,-0.564998754
CVOE_D,2004,1,1,92,A 62,,,FALSE,CV,p,530,cv,A,2,v,v,TRUE,1,-0.620992205
CVOE_D,2004,1,1,93,O 27,,,TRUE,CV,p,574,cv,O,7,v,v,TRUE,1,-0.601893664
CVOE_D,2004,1,1,94,E 66,,,FALSE,CV,p,585,cv,E,6,v,v,TRUE,1,-0.597119028
CVOE_D,2004,1,1,95,J 62,,,TRUE,CV,q,596,cv,J,2,c,c,TRUE,1,-0.592344393
CVOE_D,2004,1,1,96,H 72,,,TRUE,CV,q,691,cv,H,2,c,c,TRUE,1,-0.551108906
CVOE_D,2004,1,1,97,E 49,,,TRUE,CV,p,568,cv,E,9,v,v,TRUE,1,-0.60449801
CVOE_D,2004,1,1,98,D 52,,,TRUE,CV,q,656,cv,D,2,c,c,TRUE,1,-0.566300928
CVOE_D,2004,1,1,99,H 62,,,TRUE,CV,q,583,cv,H,2,c,c,TRUE,1,-0.597987144
CVOE_D,2004,1,1,100,I 11,,,TRUE,CV,p,615,cv,I,1,v,v,TRUE,1,-0.584097296
CVOE_D,2004,1,1,101,A 98,,,FALSE,CV,p,577,cv,A,8,v,v,TRUE,1,-0.600591491
CVOE_D,2004,1,1,102,H 29,,,FALSE,CV,q,548,cv,H,9,c,c,TRUE,1,-0.613179166
CVOE_D,2004,1,1,103,E 83,,,TRUE,CV,p,536,cv,E,3,v,v,TRUE,1,-0.618387859
CVOE_D,2004,1,1,104,D 43,,,FALSE,CV,q,737,cv,D,3,c,c,TRUE,1,-0.531142249
CVOE_D,2004,1,1,105,P 45,,,TRUE,CV,q,736,cv,P,5,c,c,TRUE,1,-0.531576307
CVOE_D,2004,1,1,106,J 17,,,TRUE,CV,q,659,cv,J,7,c,c,TRUE,1,-0.564998754
CVOE_B,2006,1,1,11,A 24,,,TRUE,OE,p,3342,oe,A,4,e,e,TRUE,1,0.599578214
CVOE_B,2006,1,1,12,O 83,,,FALSE,OE,q,2599,oe,O,3,o,o,TRUE,1,0.277073299
CVOE_B,2006,1,1,13,H 55,,,TRUE,OE,q,2214,oe,H,5,o,o,TRUE,1,0.109961061
CVOE_B,2006,1,1,14,P 10,,,FALSE,OE,p,2998,oe,P,0,e,e,TRUE,1,0.450262345
CVOE_B,2006,1,1,15,D 30,,,FALSE,OE,p,2109,oe,D,0,e,e,TRUE,1,0.064384997
CVOE_B,2006,1,1,16,U 62,,,TRUE,OE,p,1381,oe,U,2,e,e,TRUE,1,-0.251609052
CVOE_B,2006,1,1,17,P 95,,,TRUE,OE,q,1764,oe,P,5,o,o,TRUE,1,-0.08536493
CVOE_B,2006,1,1,18,U 06,,,TRUE,OE,p,1586,oe,U,6,e,e,TRUE,1,-0.162627211
CVOE_B,2006,1,1,19,E 75,,,FALSE,OE,q,1716,oe,E,5,o,o,TRUE,1,-0.106199703
CVOE_B,2006,1,1,20,I 67,,,FALSE,OE,q,1341,oe,I,7,o,o,TRUE,1,-0.268971362
CVOE_B,2006,1,1,21,S 13,,,TRUE,OE,q,2433,oe,S,3,o,o,TRUE,1,0.205019711
CVOE_B,2006,1,1,22,P 78,,,FALSE,OE,p,3717,oe,P,8,e,e,TRUE,1,0.762349874
CVOE_B,2006,1,1,23,I 15,,,FALSE,OE,q,2459,oe,I,5,o,o,TRUE,1,0.216305213
CVOE_B,2006,1,1,24,D 27,,,TRUE,OE,q,1732,oe,D,7,o,o,TRUE,1,-0.099254779
CVOE_B,2006,1,1,25,O 94,,,TRUE,OE,p,1757,oe,O,4,e,e,TRUE,1,-0.088403335
CVOE_B,2006,1,1,26,A 65,,,FALSE,OE,q,1545,oe,A,5,o,o,TRUE,1,-0.18042358
CVOE_B,2006,1,1,27,I 42,,,TRUE,OE,p,1334,oe,I,2,e,e,TRUE,1,-0.272009767
CVOE_B,2006,1,1,28,E 25,,,FALSE,OE,q,1229,oe,E,5,o,o,TRUE,1,-0.317585831
CVOE_B,2006,1,1,29,H 49,,,TRUE,OE,q,2201,oe,H,9,o,o,TRUE,1,0.104318311
CVOE_B,2006,1,1,30,S 18,,,FALSE,OE,p,1417,oe,S,8,e,e,TRUE,1,-0.235982973
CVOE_B,2006,1,1,31,H 51,,,TRUE,OE,q,1248,oe,H,1,o,o,TRUE,1,-0.309338734
CVOE_B,2006,1,1,32,U 14,,,TRUE,OE,p,1551,oe,U,4,e,e,TRUE,1,-0.177819233
CVOE_B,2006,1,1,33,E 02,,,TRUE,OE,p,1027,oe,E,2,e,e,TRUE,1,-0.405265499
CVOE_B,2006,1,1,34,J 26,,,FALSE,OE,p,1116,oe,J,6,e,e,TRUE,1,-0.366634358
CVOE_B,2006,1,1,35,D 24,,,FALSE,OE,p,1184,oe,D,4,e,e,TRUE,1,-0.337118431
CVOE_B,2006,1,1,36,O 50,,,TRUE,OE,p,1622,oe,O,0,e,e,TRUE,1,-0.147001132
CVOE_B,2006,1,1,37,U 16,,,TRUE,OE,p,1150,oe,U,6,e,e,TRUE,1,-0.351876394
CVOE_B,2006,1,1,38,O 15,,,FALSE,OE,q,1509,oe,O,5,o,o,TRUE,1,-0.196049659
CVOE_B,2006,1,1,39,D 32,,,FALSE,OE,p,1850,oe,D,2,e,e,TRUE,1,-0.048035963
CVOE_B,2006,1,1,40,S 67,,,TRUE,OE,q,1508,oe,S,7,o,o,TRUE,1,-0.196483717
CVOE_B,2006,1,1,41,J 74,,,FALSE,OE,p,1450,oe,J,4,e,e,TRUE,1,-0.221659067
CVOE_B,2006,1,1,42,D 92,,,FALSE,OE,p,1597,oe,D,2,e,e,TRUE,1,-0.157852576
CVOE_B,2006,1,1,43,A 65,,,FALSE,OE,q,1701,oe,A,5,o,o,TRUE,1,-0.112710569
CVOE_B,2006,1,1,44,I 87,,,FALSE,OE,q,1497,oe,I,7,o,o,TRUE,1,-0.201258352
CVOE_B,2006,1,1,45,H 61,,,TRUE,OE,q,799,oe,H,1,o,o,TRUE,1,-0.504230668
CVOE_B,2006,1,1,46,E 59,,,FALSE,OE,q,800,oe,E,9,o,o,TRUE,1,-0.50379661
CVOE_B,2006,1,1,47,I 33,,,FALSE,OE,q,711,oe,I,3,o,o,TRUE,1,-0.542427751
CVOE_B,2006,1,1,48,O 90,,,TRUE,OE,p,1251,oe,O,0,e,e,TRUE,1,-0.308036561
CVOE_B,2006,1,1,49,U 51,,,FALSE,OE,q,1333,oe,U,1,o,o,TRUE,1,-0.272443824
CVOE_B,2006,1,1,50,A 10,,,TRUE,OE,p,1420,oe,A,0,e,e,TRUE,1,-0.234680799
CVOE_B,2006,1,1,51,E 50,,,TRUE,OE,p,918,oe,E,0,e,e,TRUE,1,-0.452577795
CVOE_B,2006,1,1,52,D 92,,,FALSE,OE,p,847,oe,D,2,e,e,TRUE,1,-0.483395896
CVOE_B,2006,1,1,53,E 60,,,TRUE,OE,p,865,oe,E,0,e,e,TRUE,1,-0.475582856
CVOE_B,2006,1,1,54,A 95,,,FALSE,OE,q,1732,oe,A,5,o,o,TRUE,1,-0.099254779
CVOE_B,2006,1,1,55,E 64,,,TRUE,OE,p,1399,oe,E,4,e,e,TRUE,1,-0.243796012
CVOE_B,2006,1,1,56,P 20,,,FALSE,OE,p,1292,oe,P,0,e,e,TRUE,1,-0.290240193
CVOE_B,2006,1,1,57,S 06,,,FALSE,OE,p,813,oe,S,6,e,e,TRUE,1,-0.498153859
CVOE_B,2006,1,1,58,P 64,,,FALSE,OE,p,944,oe,P,4,e,e,TRUE,1,-0.441292293
CVOE_B,2006,1,1,59,U 70,,,TRUE,OE,p,1177,oe,U,0,e,e,TRUE,1,-0.340156835
CVOE_B,2006,1,1,60,S 16,,,FALSE,OE,p,808,oe,S,6,e,e,TRUE,1,-0.500324148
CVOE_B,2006,1,1,61,E 35,,,FALSE,OE,q,1526,oe,E,5,o,o,TRUE,1,-0.188670677
CVOE_B,2006,1,1,62,I 93,,,FALSE,OE,q,957,oe,I,3,o,o,TRUE,1,-0.435649542
CVOE_B,2006,1,1,63,D 63,,,TRUE,OE,q,820,oe,D,3,o,o,TRUE,1,-0.495115455
CVOE_B,2006,1,1,64,U 89,,,FALSE,OE,q,825,oe,U,9,o,o,TRUE,1,-0.492945166
CVOE_B,2006,1,1,65,E 91,,,FALSE,OE,q,697,oe,E,1,o,o,TRUE,1,-0.548504559
CVOE_B,2006,1,1,66,A 12,,,TRUE,OE,p,2456,oe,A,2,e,e,TRUE,1,0.215003039
CVOE_B,2006,1,1,67,P 56,,,FALSE,OE,p,900,oe,P,6,e,e,TRUE,1,-0.460390834
CVOE_B,2006,1,1,68,S 65,,,TRUE,OE,q,1623,oe,S,5,o,o,TRUE,1,-0.146567074
CVOE_B,2006,1,1,69,P 07,,,TRUE,OE,q,1083,oe,P,7,o,o,TRUE,1,-0.380958264
CVOE_B,2006,1,1,70,I 77,,,FALSE,OE,q,682,oe,I,7,o,o,TRUE,1,-0.555015426
CVOE_B,2006,1,1,71,J 19,,,TRUE,OE,q,933,oe,J,9,o,o,TRUE,1,-0.446066928
CVOE_B,2006,1,1,72,O 59,,,FALSE,OE,q,612,oe,O,9,o,o,TRUE,1,-0.585399469
CVOE_B,2006,1,1,73,J 15,,,TRUE,OE,q,795,oe,J,5,o,o,TRUE,1,-0.505966899
CVOE_B,2006,1,1,74,I 89,,,FALSE,OE,q,544,oe,I,9,o,o,TRUE,1,-0.614915397
CVOE_B,2006,1,1,75,O 97,,,FALSE,OE,q,568,oe,O,7,o,o,TRUE,1,-0.60449801
CVOE_B,2006,1,1,76,A 92,,,TRUE,OE,p,1371,oe,A,2,e,e,TRUE,1,-0.25594963
CVOE_B,2006,1,1,77,J 90,,,FALSE,OE,p,743,oe,J,0,e,e,TRUE,1,-0.528537902
CVOE_B,2006,1,1,78,H 65,,,TRUE,OE,q,1460,oe,H,5,o,o,TRUE,1,-0.217318489
CVOE_B,2006,1,1,79,H 17,,,TRUE,OE,q,660,oe,H,7,o,o,TRUE,1,-0.564564697
CVOE_B,2006,1,1,80,S 26,,,FALSE,OE,p,1424,oe,S,6,e,e,TRUE,1,-0.232944568
CVOE_B,2006,1,1,81,D 56,,,FALSE,OE,p,574,oe,D,6,e,e,TRUE,1,-0.601893664
CVOE_B,2006,1,1,82,I 91,,,FALSE,OE,q,1230,oe,I,1,o,o,TRUE,1,-0.317151774
CVOE_B,2006,1,1,83,J 11,,,TRUE,OE,q,832,oe,J,1,o,o,TRUE,1,-0.489906762
CVOE_B,2006,1,1,84,O 28,,,TRUE,OE,p,1337,oe,O,8,e,e,TRUE,1,-0.270707593
CVOE_B,2006,1,1,85,H 29,,,TRUE,OE,q,1227,oe,H,9,o,o,TRUE,1,-0.318453947
CVOE_B,2006,1,1,86,J 25,,,TRUE,OE,q,1293,oe,J,5,o,o,TRUE,1,-0.289806135
CVOE_B,2006,1,1,87,A 73,,,FALSE,OE,q,778,oe,A,3,o,o,TRUE,1,-0.513345881
CVOE_B,2006,1,1,88,J 63,,,TRUE,OE,q,777,oe,J,3,o,o,TRUE,1,-0.513779939
CVOE_B,2006,1,1,89,U 84,,,TRUE,OE,p,1499,oe,U,4,e,e,TRUE,1,-0.200390236
CVOE_B,2006,1,1,90,A 58,,,TRUE,OE,p,583,oe,A,8,e,e,TRUE,1,-0.597987144
CVOE_B,2006,1,1,91,S 43,,,TRUE,OE,q,1311,oe,S,3,o,o,TRUE,1,-0.281993095
CVOE_B,2006,1,1,92,H 54,,,FALSE,OE,p,1333,oe,H,4,e,e,TRUE,1,-0.272443824
CVOE_B,2006,1,1,94,J 75,,,TRUE,OE,q,1639,oe,J,5,o,o,TRUE,1,-0.13962215
CVOE_B,2006,1,1,95,D 19,,,TRUE,OE,q,1292,oe,D,9,o,o,TRUE,1,-0.290240193
CVOE_B,2006,1,1,96,J 38,,,FALSE,OE,p,1455,oe,J,8,e,e,TRUE,1,-0.219488778
CVOE_B,2006,1,1,97,I 56,,,TRUE,OE,p,643,oe,I,6,e,e,TRUE,1,-0.571943678
CVOE_B,2006,1,1,98,P 87,,,TRUE,OE,q,1364,oe,P,7,o,o,TRUE,1,-0.258988034
CVOE_B,2006,1,1,99,O 80,,,TRUE,OE,p,1344,oe,O,0,e,e,TRUE,1,-0.267669189
CVOE_B,2006,1,1,100,U 60,,,TRUE,OE,p,584,oe,U,0,e,e,TRUE,1,-0.597553086
CVOE_B,2006,1,1,101,P 48,,,FALSE,OE,p,683,oe,P,8,e,e,TRUE,1,-0.554581368
CVOE_B,2006,1,1,102,H 64,,,FALSE,OE,p,894,oe,H,4,e,e,TRUE,1,-0.462995181
CVOE_B,2006,1,1,103,A 13,,,FALSE,OE,q,1272,oe,A,3,o,o,TRUE,1,-0.298921348
CVOE_B,2006,1,1,104,H 68,,,FALSE,OE,p,1487,oe,H,8,e,e,TRUE,1,-0.20559893
CVOE_B,2006,1,1,105,E 16,,,TRUE,OE,p,660,oe,E,6,e,e,TRUE,1,-0.564564697
CVOE_B,2006,1,1,106,S 71,,,TRUE,OE,q,1375,oe,S,1,o,o,TRUE,1,-0.254213399
CVOE_C,2007,1,1,12,O 83,,,FALSE,OE,q,3429,oe,O,3,o,o,TRUE,1,0.637341239
CVOE_C,2007,1,1,13,H 55,,,TRUE,OE,q,3200,oe,H,5,o,o,TRUE,1,0.537942012
CVOE_C,2007,1,1,14,P 10,,,FALSE,OE,p,3250,oe,P,0,e,e,TRUE,1,0.5596449
CVOE_C,2007,1,1,15,D 30,,,FALSE,OE,p,1357,oe,D,0,e,e,TRUE,1,-0.262026438
CVOE_C,2007,1,1,16,U 62,,,TRUE,OE,p,2137,oe,U,2,e,e,TRUE,1,0.076538614
CVOE_C,2007,1,1,17,P 95,,,TRUE,OE,q,2111,oe,P,5,o,o,TRUE,1,0.065253112
CVOE_C,2007,1,1,18,U 06,,,TRUE,OE,p,5129,oe,U,6,e,e,TRUE,1,1.37523943
CVOE_C,2007,1,1,19,E 75,,,FALSE,OE,q,5995,oe,E,5,o,o,TRUE,1,1.751133449
CVOE_C,2007,1,1,20,I 67,,,FALSE,OE,q,2327,oe,I,7,o,o,TRUE,1,0.159009588
CVOE_C,2007,1,1,21,S 13,,,TRUE,OE,q,1292,oe,S,3,o,o,TRUE,1,-0.290240193
CVOE_C,2007,1,1,22,P 78,,,FALSE,OE,p,1373,oe,P,8,e,e,TRUE,1,-0.255081514
CVOE_C,2007,1,1,23,I 15,,,FALSE,OE,q,1568,oe,I,5,o,o,TRUE,1,-0.170440251
CVOE_C,2007,1,1,24,D 27,,,TRUE,OE,q,1271,oe,D,7,o,o,TRUE,1,-0.299355406
CVOE_C,2007,1,1,25,O 94,,,TRUE,OE,p,1307,oe,O,4,e,e,TRUE,1,-0.283729326
CVOE_C,2007,1,1,26,A 65,,,FALSE,OE,q,2888,oe,A,5,o,o,TRUE,1,0.402515991
CVOE_C,2007,1,1,27,I 42,,,TRUE,OE,p,1588,oe,I,2,e,e,TRUE,1,-0.161759096
CVOE_C,2007,1,1,28,E 25,,,FALSE,OE,q,954,oe,E,5,o,o,TRUE,1,-0.436951715
CVOE_C,2007,1,1,29,H 49,,,TRUE,OE,q,1370,oe,H,9,o,o,TRUE,1,-0.256383687
CVOE_C,2007,1,1,30,S 18,,,FALSE,OE,p,1096,oe,S,8,e,e,TRUE,1,-0.375315513
CVOE_C,2007,1,1,31,H 51,,,TRUE,OE,q,1879,oe,H,1,o,o,TRUE,1,-0.035448288
CVOE_C,2007,1,1,32,U 14,,,TRUE,OE,p,1555,oe,U,4,e,e,TRUE,1,-0.176083002
CVOE_C,2007,1,1,33,E 02,,,TRUE,OE,p,1148,oe,E,2,e,e,TRUE,1,-0.35274451
CVOE_C,2007,1,1,34,J 26,,,FALSE,OE,p,1183,oe,J,6,e,e,TRUE,1,-0.337552488
CVOE_C,2007,1,1,35,D 24,,,FALSE,OE,p,1566,oe,D,4,e,e,TRUE,1,-0.171308367
CVOE_C,2007,1,1,36,O 50,,,TRUE,OE,p,1977,oe,O,0,e,e,TRUE,1,0.007089373
CVOE_C,2007,1,1,37,U 16,,,TRUE,OE,p,932,oe,U,6,e,e,TRUE,1,-0.446500986
CVOE_C,2007,1,1,38,O 15,,,FALSE,OE,q,779,oe,O,5,o,o,TRUE,1,-0.512911823
CVOE_C,2007,1,1,39,D 32,,,FALSE,OE,p,1013,oe,D,2,e,e,TRUE,1,-0.411342307
CVOE_C,2007,1,1,40,S 67,,,TRUE,OE,q,724,oe,S,7,o,o,TRUE,1,-0.536785
CVOE_C,2007,1,1,41,J 74,,,FALSE,OE,p,3544,oe,J,4,e,e,TRUE,1,0.687257881
CVOE_C,2007,1,1,42,D 92,,,FALSE,OE,p,1471,oe,D,2,e,e,TRUE,1,-0.212543854
CVOE_C,2007,1,1,43,A 65,,,FALSE,OE,q,987,oe,A,5,o,o,TRUE,1,-0.422627809
CVOE_C,2007,1,1,44,I 87,,,FALSE,OE,q,1095,oe,I,7,o,o,TRUE,1,-0.375749571
CVOE_C,2007,1,1,45,H 61,,,TRUE,OE,q,1006,oe,H,1,o,o,TRUE,1,-0.414380712
CVOE_C,2007,1,1,46,E 59,,,FALSE,OE,q,995,oe,E,9,o,o,TRUE,1,-0.419155347
CVOE_C,2007,1,1,47,I 33,,,FALSE,OE,q,1003,oe,I,3,o,o,TRUE,1,-0.415682885
CVOE_C,2007,1,1,48,O 90,,,TRUE,OE,p,760,oe,O,0,e,e,TRUE,1,-0.521158921
CVOE_C,2007,1,1,49,U 51,,,FALSE,OE,q,706,oe,U,1,o,o,TRUE,1,-0.54459804
CVOE_C,2007,1,1,50,A 10,,,TRUE,OE,p,913,oe,A,0,e,e,TRUE,1,-0.454748083
CVOE_C,2007,1,1,51,E 50,,,TRUE,OE,p,617,oe,E,0,e,e,TRUE,1,-0.58322918
CVOE_C,2007,1,1,52,D 92,,,FALSE,OE,p,767,oe,D,2,e,e,TRUE,1,-0.518120516
CVOE_C,2007,1,1,53,E 60,,,TRUE,OE,p,2126,oe,E,0,e,e,TRUE,1,0.071763979
CVOE_C,2007,1,1,54,A 95,,,FALSE,OE,q,949,oe,A,5,o,o,TRUE,1,-0.439122004
CVOE_C,2007,1,1,55,E 64,,,TRUE,OE,p,6491,oe,E,4,e,e,TRUE,1,1.966426098
CVOE_C,2007,1,1,56,P 20,,,FALSE,OE,p,3437,oe,P,0,e,e,TRUE,1,0.640813701
CVOE_C,2007,1,1,57,S 06,,,FALSE,OE,p,1244,oe,S,6,e,e,TRUE,1,-0.311074965
CVOE_C,2007,1,1,58,P 64,,,FALSE,OE,p,1279,oe,P,4,e,e,TRUE,1,-0.295882943
CVOE_C,2007,1,1,59,U 70,,,TRUE,OE,p,3738,oe,U,0,e,e,TRUE,1,0.771465087
CVOE_C,2007,1,1,60,S 16,,,FALSE,OE,p,1016,oe,S,6,e,e,TRUE,1,-0.410040134
CVOE_C,2007,1,1,61,E 35,,,FALSE,OE,q,1232,oe,E,5,o,o,TRUE,1,-0.316283658
CVOE_C,2007,1,1,62,I 93,,,FALSE,OE,q,737,oe,I,3,o,o,TRUE,1,-0.531142249
CVOE_C,2007,1,1,63,D 63,,,TRUE,OE,q,1031,oe,D,3,o,o,TRUE,1,-0.403529268
CVOE_C,2007,1,1,64,U 89,,,FALSE,OE,q,1281,oe,U,9,o,o,TRUE,1,-0.295014828
CVOE_C,2007,1,1,65,E 91,,,FALSE,OE,q,1083,oe,E,1,o,o,TRUE,1,-0.380958264
CVOE_C,2007,1,1,66,A 12,,,TRUE,OE,p,939,oe,A,2,e,e,TRUE,1,-0.443462582
CVOE_C,2007,1,1,67,P 56,,,FALSE,OE,p,1078,oe,P,6,e,e,TRUE,1,-0.383128553
CVOE_C,2007,1,1,68,S 65,,,TRUE,OE,q,921,oe,S,5,o,o,TRUE,1,-0.451275621
CVOE_C,2007,1,1,69,P 07,,,TRUE,OE,q,1068,oe,P,7,o,o,TRUE,1,-0.387469131
CVOE_C,2007,1,1,70,I 77,,,FALSE,OE,q,5313,oe,I,7,o,o,TRUE,1,1.455106058
CVOE_C,2007,1,1,71,J 19,,,TRUE,OE,q,3037,oe,J,9,o,o,TRUE,1,0.467190597
CVOE_C,2007,1,1,72,O 59,,,FALSE,OE,q,1670,oe,O,9,o,o,TRUE,1,-0.12616636
CVOE_C,2007,1,1,73,J 15,,,TRUE,OE,q,833,oe,J,5,o,o,TRUE,1,-0.489472704
CVOE_C,2007,1,1,74,I 89,,,FALSE,OE,q,1075,oe,I,9,o,o,TRUE,1,-0.384430726
CVOE_C,2007,1,1,75,O 97,,,FALSE,OE,q,1036,oe,O,7,o,o,TRUE,1,-0.401358979
CVOE_C,2007,1,1,76,A 92,,,TRUE,OE,p,803,oe,A,2,e,e,TRUE,1,-0.502494437
CVOE_C,2007,1,1,77,J 90,,,FALSE,OE,p,766,oe,J,0,e,e,TRUE,1,-0.518554574
CVOE_C,2007,1,1,78,H 65,,,TRUE,OE,q,706,oe,H,5,o,o,TRUE,1,-0.54459804
CVOE_C,2007,1,1,79,H 17,,,TRUE,OE,q,712,oe,H,7,o,o,TRUE,1,-0.541993693
CVOE_C,2007,1,1,80,S 26,,,FALSE,OE,p,808,oe,S,6,e,e,TRUE,1,-0.500324148
CVOE_C,2007,1,1,81,D 56,,,FALSE,OE,p,1505,oe,D,6,e,e,TRUE,1,-0.19778589
CVOE_C,2007,1,1,82,I 91,,,FALSE,OE,q,1585,oe,I,1,o,o,TRUE,1,-0.163061269
CVOE_C,2007,1,1,83,J 11,,,TRUE,OE,q,1030,oe,J,1,o,o,TRUE,1,-0.403963326
CVOE_C,2007,1,1,84,O 28,,,TRUE,OE,p,819,oe,O,8,e,e,TRUE,1,-0.495549513
CVOE_C,2007,1,1,85,H 29,,,TRUE,OE,q,880,oe,H,9,o,o,TRUE,1,-0.469071989
CVOE_C,2007,1,1,86,J 25,,,TRUE,OE,q,3941,oe,J,5,o,o,TRUE,1,0.859578812
CVOE_C,2007,1,1,87,A 73,,,FALSE,OE,q,1651,oe,A,3,o,o,TRUE,1,-0.134413457
CVOE_C,2007,1,1,88,J 63,,,TRUE,OE,q,1967,oe,J,3,o,o,TRUE,1,0.002748795
CVOE_C,2007,1,1,89,U 84,,,TRUE,OE,p,1356,oe,U,4,e,e,TRUE,1,-0.262460496
CVOE_C,2007,1,1,90,A 58,,,TRUE,OE,p,1266,oe,A,8,e,e,TRUE,1,-0.301525694
CVOE_C,2007,1,1,91,S 43,,,TRUE,OE,q,781,oe,S,3,o,o,TRUE,1,-0.512043708
CVOE_C,2007,1,1,92,H 54,,,FALSE,OE,p,2096,oe,H,4,e,e,TRUE,1,0.058742246
CVOE_C,2007,1,1,94,J 75,,,TRUE,OE,q,640,oe,J,5,o,o,TRUE,1,-0.573245852
CVOE_C,2007,1,1,95,D 19,,,TRUE,OE,q,753,oe,D,9,o,o,TRUE,1,-0.524197325
CVOE_C,2007,1,1,96,J 38,,,FALSE,OE,p,701,oe,J,8,e,e,TRUE,1,-0.546768328
CVOE_C,2007,1,1,97,I 56,,,TRUE,OE,p,1116,oe,I,6,e,e,TRUE,1,-0.366634358
CVOE_C,2007,1,1,98,P 87,,,TRUE,OE,q,2963,oe,P,7,o,o,TRUE,1,0.435070323
CVOE_C,2007,1,1,99,O 80,,,TRUE,OE,p,648,oe,O,0,e,e,TRUE,1,-0.56977339
CVOE_C,2007,1,1,100,U 60,,,TRUE,OE,p,844,oe,U,0,e,e,TRUE,1,-0.484698069
CVOE_C,2007,1,1,101,P 48,,,FALSE,OE,p,1295,oe,P,8,e,e,TRUE,1,-0.288938019
CVOE_C,2007,1,1,102,H 64,,,FALSE,OE,p,715,oe,H,4,e,e,TRUE,1,-0.54069152
CVOE_C,2007,1,1,103,A 13,,,FALSE,OE,q,667,oe,A,3,o,o,TRUE,1,-0.561526292
CVOE_C,2007,1,1,104,H 68,,,FALSE,OE,p,754,oe,H,8,e,e,TRUE,1,-0.523763267
CVOE_C,2007,1,1,105,E 16,,,TRUE,OE,p,765,oe,E,6,e,e,TRUE,1,-0.518988632
CVOE_C,2007,1,1,106,S 71,,,TRUE,OE,q,1368,oe,S,1,o,o,TRUE,1,-0.257251803
CVOE updated,2009,1,1,11,A 71,,,FALSE,CV,p,7907,cv,A,1,v,v,TRUE,1,2.581051885
CVOE updated,2009,1,1,12,I 66,,,TRUE,CV,p,2383,cv,I,6,v,v,TRUE,1,0.183316823
CVOE updated,2009,1,1,13,S 30,,,FALSE,CV,q,1711,cv,S,0,c,c,TRUE,1,-0.108369991
CVOE updated,2009,1,1,14,D 20,,,FALSE,CV,q,1867,cv,D,0,c,c,TRUE,1,-0.040656981
CVOE updated,2009,1,1,15,I 31,,,FALSE,CV,p,1086,cv,I,1,v,v,TRUE,1,-0.379656091
CVOE updated,2009,1,1,16,P 16,,,FALSE,CV,q,1951,cv,P,6,c,c,TRUE,1,-0.004196129
CVOE updated,2009,1,1,17,A 49,,,FALSE,CV,p,1206,cv,A,9,v,v,TRUE,1,-0.32756916
CVOE updated,2009,1,1,18,O 64,,,TRUE,CV,p,2015,cv,O,4,v,v,TRUE,1,0.023583567
CVOE updated,2009,1,1,19,D 02,,,FALSE,CV,q,1610,cv,D,2,c,c,TRUE,1,-0.152209825
CVOE updated,2009,1,1,20,P 81,,,TRUE,CV,q,1724,cv,P,1,c,c,TRUE,1,-0.102727241
CVOE updated,2009,1,1,21,J 58,,,FALSE,CV,q,1314,cv,J,8,c,c,TRUE,1,-0.280690922
CVOE updated,2009,1,1,22,A 22,,,TRUE,CV,p,1016,cv,A,2,v,v,TRUE,1,-0.410040134
