"","ExperimentName","Subject","Group","Block","Trial","STIM","TASK","Switch","Congruent","CVOE","Response","RT","block_type","letter","number","key2","response2","match2","score2"
"1","CVOE updated",1001,1,1,11,"A 71","","",FALSE,"CV","p",4811,"cv","A","1","v","v",TRUE,1
"2","CVOE updated",1001,1,1,12,"I 66","","",TRUE,"CV","p",1960,"cv","I","6","v","v",TRUE,1
"3","CVOE updated",1001,1,1,13,"S 30","","",FALSE,"CV","q",918,"cv","S","0","c","c",TRUE,1
"4","CVOE updated",1001,1,1,14,"D 20","","",FALSE,"CV","q",790,"cv","D","0","c","c",TRUE,1
"5","CVOE updated",1001,1,1,15,"I 31","","",FALSE,"CV","p",874,"cv","I","1","v","v",TRUE,1
"6","CVOE updated",1001,1,1,16,"P 16","","",FALSE,"CV","q",700,"cv","P","6","c","c",TRUE,1
"7","CVOE updated",1001,1,1,17,"A 49","","",FALSE,"CV","p",1100,"cv","A","9","v","v",TRUE,1
"8","CVOE updated",1001,1,1,18,"O 64","","",TRUE,"CV","p",1100,"cv","O","4","v","v",TRUE,1
"9","CVOE updated",1001,1,1,19,"D 02","","",FALSE,"CV","q",892,"cv","D","2","c","c",TRUE,1
"10","CVOE updated",1001,1,1,20,"P 81","","",TRUE,"CV","q",1116,"cv","P","1","c","c",TRUE,1
"11","CVOE updated",1001,1,1,21,"J 58","","",FALSE,"CV","q",828,"cv","J","8","c","c",TRUE,1
"12","CVOE updated",1001,1,1,22,"A 22","","",TRUE,"CV","p",679,"cv","A","2","v","v",TRUE,1
"13","CVOE updated",1001,1,1,23,"J 72","","",FALSE,"CV","q",999,"cv","J","2","c","c",TRUE,1
"14","CVOE updated",1001,1,1,24,"P 91","","",TRUE,"CV","q",1027,"cv","P","1","c","c",TRUE,1
"15","CVOE updated",1001,1,1,25,"E 19","","",FALSE,"CV","p",622,"cv","E","9","v","v",TRUE,1
"16","CVOE updated",1001,1,1,26,"I 30","","",TRUE,"CV","p",618,"cv","I","0","v","v",TRUE,1
"17","CVOE updated",1001,1,1,27,"D 91","","",TRUE,"CV","q",717,"cv","D","1","c","c",TRUE,1
"18","CVOE updated",1001,1,1,28,"O 48","","",TRUE,"CV","p",636,"cv","O","8","v","v",TRUE,1
"19","CVOE updated",1001,1,1,29,"A 89","","",FALSE,"CV","p",1127,"cv","A","9","v","v",TRUE,1
"20","CVOE updated",1001,1,1,30,"U 11","","",FALSE,"CV","p",886,"cv","U","1","v","v",TRUE,1
"21","CVOE updated",1001,1,1,31,"I 76","","",TRUE,"CV","p",726,"cv","I","6","v","v",TRUE,1
"22","CVOE updated",1001,1,1,32,"U 89","","",FALSE,"CV","p",669,"cv","U","9","v","v",TRUE,1
"23","CVOE updated",1001,1,1,33,"D 63","","",TRUE,"CV","q",758,"cv","D","3","c","c",TRUE,1
"24","CVOE updated",1001,1,1,34,"H 70","","",FALSE,"CV","q",1052,"cv","H","0","c","c",TRUE,1
"25","CVOE updated",1001,1,1,35,"D 48","","",FALSE,"CV","q",591,"cv","D","8","c","c",TRUE,1
"26","CVOE updated",1001,1,1,36,"P 56","","",FALSE,"CV","q",635,"cv","P","6","c","c",TRUE,1
"27","CVOE updated",1001,1,1,37,"O 77","","",FALSE,"CV","p",645,"cv","O","7","v","v",TRUE,1
"28","CVOE updated",1001,1,1,38,"P 42","","",FALSE,"CV","q",776,"cv","P","2","c","c",TRUE,1
"29","CVOE updated",1001,1,1,39,"H 22","","",FALSE,"CV","q",668,"cv","H","2","c","c",TRUE,1
"30","CVOE updated",1001,1,1,40,"E 42","","",TRUE,"CV","p",574,"cv","E","2","v","v",TRUE,1
"31","CVOE updated",1001,1,1,41,"J 28","","",FALSE,"CV","q",690,"cv","J","8","c","c",TRUE,1
"32","CVOE updated",1001,1,1,42,"E 95","","",FALSE,"CV","p",787,"cv","E","5","v","v",TRUE,1
"33","CVOE updated",1001,1,1,43,"S 63","","",TRUE,"CV","q",1031,"cv","S","3","c","c",TRUE,1
"34","CVOE updated",1001,1,1,44,"H 50","","",FALSE,"CV","q",602,"cv","H","0","c","c",TRUE,1
"35","CVOE updated",1001,1,1,45,"S 33","","",TRUE,"CV","q",646,"cv","S","3","c","c",TRUE,1
"36","CVOE updated",1001,1,1,46,"P 57","","",TRUE,"CV","q",632,"cv","P","7","c","c",TRUE,1
"37","CVOE updated",1001,1,1,47,"E 23","","",FALSE,"CV","p",699,"cv","E","3","v","v",TRUE,1
"38","CVOE updated",1001,1,1,48,"S 61","","",TRUE,"CV","q",763,"cv","S","1","c","c",TRUE,1
"39","CVOE updated",1001,1,1,49,"U 67","","",FALSE,"CV","p",560,"cv","U","7","v","v",TRUE,1
"40","CVOE updated",1001,1,1,50,"H 32","","",FALSE,"CV","q",685,"cv","H","2","c","c",TRUE,1
"41","CVOE updated",1001,1,1,51,"U 50","","",TRUE,"CV","p",502,"cv","U","0","v","v",TRUE,1
"42","CVOE updated",1001,1,1,52,"O 49","","",FALSE,"CV","p",630,"cv","O","9","v","v",TRUE,1
"43","CVOE updated",1001,1,1,53,"U 32","","",TRUE,"CV","p",609,"cv","U","2","v","v",TRUE,1
"44","CVOE updated",1001,1,1,54,"J 78","","",FALSE,"CV","q",716,"cv","J","8","c","c",TRUE,1
"45","CVOE updated",1001,1,1,55,"S 54","","",FALSE,"CV","q",635,"cv","S","4","c","c",TRUE,1
"46","CVOE updated",1001,1,1,56,"J 27","","",TRUE,"CV","q",566,"cv","J","7","c","c",TRUE,1
"47","CVOE updated",1001,1,1,57,"S 06","","",FALSE,"CV","q",635,"cv","S","6","c","c",TRUE,1
"48","CVOE updated",1001,1,1,58,"D 67","","",TRUE,"CV","q",766,"cv","D","7","c","c",TRUE,1
"49","CVOE updated",1001,1,1,59,"A 79","","",FALSE,"CV","p",771,"cv","A","9","v","v",TRUE,1
"50","CVOE updated",1001,1,1,60,"S 52","","",FALSE,"CV","q",768,"cv","S","2","c","c",TRUE,1
"51","CVOE updated",1001,1,1,61,"U 16","","",TRUE,"CV","p",702,"cv","U","6","v","v",TRUE,1
"52","CVOE updated",1001,1,1,62,"O 82","","",TRUE,"CV","p",590,"cv","O","2","v","v",TRUE,1
"53","CVOE updated",1001,1,1,63,"H 87","","",TRUE,"CV","q",722,"cv","H","7","c","c",TRUE,1
"54","CVOE updated",1001,1,1,64,"I 32","","",TRUE,"CV","p",1330,"cv","I","2","v","v",TRUE,1
"55","CVOE updated",1001,1,1,65,"U 37","","",FALSE,"CV","p",833,"cv","U","7","v","v",TRUE,1
"56","CVOE updated",1001,1,1,66,"I 42","","",TRUE,"CV","p",620,"cv","I","2","v","v",TRUE,1
"57","CVOE updated",1001,1,1,67,"D 65","","",TRUE,"CV","q",679,"cv","D","5","c","c",TRUE,1
"58","CVOE updated",1001,1,1,68,"U 77","","",FALSE,"CV","p",743,"cv","U","7","v","v",TRUE,1
"59","CVOE updated",1001,1,1,69,"E 12","","",TRUE,"CV","p",1326,"cv","E","2","v","v",TRUE,1
"60","CVOE updated",1001,1,1,70,"I 60","","",TRUE,"CV","p",565,"cv","I","0","v","v",TRUE,1
"61","CVOE updated",1001,1,1,71,"J 36","","",FALSE,"CV","q",698,"cv","J","6","c","c",TRUE,1
"62","CVOE updated",1001,1,1,72,"H 75","","",TRUE,"CV","q",778,"cv","H","5","c","c",TRUE,1
"63","CVOE updated",1001,1,1,73,"I 50","","",TRUE,"CV","p",742,"cv","I","0","v","v",TRUE,1
"64","CVOE updated",1001,1,1,74,"E 99","","",FALSE,"CV","p",725,"cv","E","9","v","v",TRUE,1
"65","CVOE updated",1001,1,1,75,"A 86","","",TRUE,"CV","p",1019,"cv","A","6","v","v",TRUE,1
"66","CVOE updated",1001,1,1,76,"U 48","","",TRUE,"CV","p",631,"cv","U","8","v","v",TRUE,1
"67","CVOE updated",1001,1,1,77,"E 01","","",FALSE,"CV","p",649,"cv","E","1","v","v",TRUE,1
"68","CVOE updated",1001,1,1,78,"A 78","","",TRUE,"CV","p",699,"cv","A","8","v","v",TRUE,1
"69","CVOE updated",1001,1,1,79,"P 60","","",FALSE,"CV","q",803,"cv","P","0","c","c",TRUE,1
"70","CVOE updated",1001,1,1,80,"E 43","","",FALSE,"CV","p",975,"cv","E","3","v","v",TRUE,1
"71","CVOE updated",1001,1,1,81,"D 69","","",TRUE,"CV","q",924,"cv","D","9","c","c",TRUE,1
"72","CVOE updated",1001,1,1,82,"H 11","","",TRUE,"CV","q",612,"cv","H","1","c","c",TRUE,1
"73","CVOE updated",1001,1,1,83,"P 43","","",TRUE,"CV","q",543,"cv","P","3","c","c",TRUE,1
"74","CVOE updated",1001,1,1,84,"O 67","","",FALSE,"CV","p",613,"cv","O","7","v","v",TRUE,1
"75","CVOE updated",1001,1,1,85,"S 91","","",FALSE,"CV","q",728,"cv","S","1","c","c",TRUE,1
"76","CVOE updated",1001,1,1,86,"J 68","","",TRUE,"CV","q",671,"cv","J","8","c","c",TRUE,1
"77","CVOE updated",1001,1,1,87,"S 47","","",FALSE,"CV","q",624,"cv","S","7","c","c",TRUE,1
"78","CVOE updated",1001,1,1,88,"I 81","","",TRUE,"CV","p",659,"cv","I","1","v","v",TRUE,1
"79","CVOE updated",1001,1,1,89,"J 39","","",FALSE,"CV","q",805,"cv","J","9","c","c",TRUE,1
"80","CVOE updated",1001,1,1,90,"A 11","","",TRUE,"CV","p",793,"cv","A","1","v","v",TRUE,1
"81","CVOE updated",1001,1,1,91,"O 76","","",FALSE,"CV","p",541,"cv","O","6","v","v",TRUE,1
"82","CVOE updated",1001,1,1,92,"A 62","","",FALSE,"CV","p",547,"cv","A","2","v","v",TRUE,1
"83","CVOE updated",1001,1,1,93,"O 27","","",TRUE,"CV","p",545,"cv","O","7","v","v",TRUE,1
"84","CVOE updated",1001,1,1,94,"E 66","","",FALSE,"CV","p",607,"cv","E","6","v","v",TRUE,1
"85","CVOE updated",1001,1,1,95,"J 62","","",TRUE,"CV","q",531,"cv","J","2","c","c",TRUE,1
"86","CVOE updated",1001,1,1,96,"H 72","","",TRUE,"CV","q",546,"cv","H","2","c","c",TRUE,1
"87","CVOE updated",1001,1,1,97,"E 49","","",TRUE,"CV","p",680,"cv","E","9","v","v",TRUE,1
"88","CVOE updated",1001,1,1,98,"D 52","","",TRUE,"CV","q",800,"cv","D","2","c","c",TRUE,1
"89","CVOE updated",1001,1,1,99,"H 62","","",TRUE,"CV","q",516,"cv","H","2","c","c",TRUE,1
"90","CVOE updated",1001,1,1,100,"I 11","","",TRUE,"CV","p",660,"cv","I","1","v","v",TRUE,1
"91","CVOE updated",1001,1,1,101,"A 98","","",FALSE,"CV","p",1221,"cv","A","8","v","v",TRUE,1
"92","CVOE updated",1001,1,1,102,"H 29","","",FALSE,"CV","q",776,"cv","H","9","c","c",TRUE,1
"93","CVOE updated",1001,1,1,103,"E 83","","",TRUE,"CV","p",773,"cv","E","3","v","v",TRUE,1
"94","CVOE updated",1001,1,1,104,"D 43","","",FALSE,"CV","q",627,"cv","D","3","c","c",TRUE,1
"95","CVOE updated",1001,1,1,105,"P 45","","",TRUE,"CV","q",1253,"cv","P","5","c","c",TRUE,1
"96","CVOE updated",1001,1,1,106,"J 17","","",TRUE,"CV","q",1015,"cv","J","7","c","c",TRUE,1
"529","CVOE_C",2003,1,2,11,"A 71","","",FALSE,"CV","p",30570,"cv","A","1","v","v",TRUE,1
"530","CVOE_C",2003,1,2,12,"I 66","","",TRUE,"CV","p",13367,"cv","I","6","v","v",TRUE,1
"531","CVOE_C",2003,1,2,13,"S 30","","",FALSE,"CV","q",8787,"cv","S","0","c","c",TRUE,1
"532","CVOE_C",2003,1,2,14,"D 20","","",FALSE,"CV","q",6059,"cv","D","0","c","c",TRUE,1
"533","CVOE_C",2003,1,2,15,"I 31","","",FALSE,"CV","p",7456,"cv","I","1","v","v",TRUE,1
"534","CVOE_C",2003,1,2,16,"P 16","","",FALSE,"CV","q",3365,"cv","P","6","c","c",TRUE,1
"535","CVOE_C",2003,1,2,17,"A 49","","",FALSE,"CV","p",4379,"cv","A","9","v","v",TRUE,1
"536","CVOE_C",2003,1,2,18,"O 64","","",TRUE,"CV","p",17482,"cv","O","4","v","v",TRUE,1
"537","CVOE_C",2003,1,2,19,"D 02","","",FALSE,"CV","q",4660,"cv","D","2","c","c",TRUE,1
"538","CVOE_C",2003,1,2,20,"P 81","","",TRUE,"CV","q",7495,"cv","P","1","c","c",TRUE,1
"539","CVOE_C",2003,1,2,21,"J 58","","",FALSE,"CV","q",1930,"cv","J","8","c","c",TRUE,1
"540","CVOE_C",2003,1,2,22,"A 22","","",TRUE,"CV","p",1737,"cv","A","2","v","v",TRUE,1
"541","CVOE_C",2003,1,2,23,"J 72","","",FALSE,"CV","q",1793,"cv","J","2","c","c",TRUE,1
"542","CVOE_C",2003,1,2,24,"P 91","","",TRUE,"CV","q",1853,"cv","P","1","c","c",TRUE,1
"543","CVOE_C",2003,1,2,25,"E 19","","",FALSE,"CV","p",4512,"cv","E","9","v","v",TRUE,1
"544","CVOE_C",2003,1,2,26,"I 30","","",TRUE,"CV","p",9577,"cv","I","0","v","v",TRUE,1
"545","CVOE_C",2003,1,2,27,"D 91","","",TRUE,"CV","q",1259,"cv","D","1","c","c",TRUE,1
"546","CVOE_C",2003,1,2,28,"O 48","","",TRUE,"CV","p",3972,"cv","O","8","v","v",TRUE,1
"547","CVOE_C",2003,1,2,29,"A 89","","",FALSE,"CV","p",1315,"cv","A","9","v","v",TRUE,1
"548","CVOE_C",2003,1,2,30,"U 11","","",FALSE,"CV","p",2275,"cv","U","1","v","v",TRUE,1
"549","CVOE_C",2003,1,2,31,"I 76","","",TRUE,"CV","p",6389,"cv","I","6","v","v",TRUE,1
"550","CVOE_C",2003,1,2,32,"U 89","","",FALSE,"CV","q",2796,"cv","U","9","v","c",FALSE,0
"551","CVOE_C",2003,1,2,33,"D 63","","",TRUE,"CV","q",2449,"cv","D","3","c","c",TRUE,1
"552","CVOE_C",2003,1,2,34,"H 70","","",FALSE,"CV","q",1572,"cv","H","0","c","c",TRUE,1
"553","CVOE_C",2003,1,2,35,"D 48","","",FALSE,"CV","q",1426,"cv","D","8","c","c",TRUE,1
"554","CVOE_C",2003,1,2,36,"P 56","","",FALSE,"CV","q",2693,"cv","P","6","c","c",TRUE,1
"555","CVOE_C",2003,1,2,37,"O 77","","",FALSE,"CV","p",2982,"cv","O","7","v","v",TRUE,1
"556","CVOE_C",2003,1,2,38,"P 42","","",FALSE,"CV","q",1972,"cv","P","2","c","c",TRUE,1
"557","CVOE_C",2003,1,2,39,"H 22","","",FALSE,"CV","q",11442,"cv","H","2","c","c",TRUE,1
"558","CVOE_C",2003,1,2,40,"E 42","","",TRUE,"CV","p",2898,"cv","E","2","v","v",TRUE,1
"559","CVOE_C",2003,1,2,41,"J 28","","",FALSE,"CV","q",3203,"cv","J","8","c","c",TRUE,1
"560","CVOE_C",2003,1,2,42,"E 95","","",FALSE,"CV","p",4152,"cv","E","5","v","v",TRUE,1
"561","CVOE_C",2003,1,2,43,"S 63","","",TRUE,"CV","q",1904,"cv","S","3","c","c",TRUE,1
"562","CVOE_C",2003,1,2,44,"H 50","","",FALSE,"CV","q",1361,"cv","H","0","c","c",TRUE,1
"563","CVOE_C",2003,1,2,45,"S 33","","",TRUE,"CV","q",1086,"cv","S","3","c","c",TRUE,1
"564","CVOE_C",2003,1,2,46,"P 57","","",TRUE,"CV","q",1287,"cv","P","7","c","c",TRUE,1
"565","CVOE_C",2003,1,2,47,"E 23","","",FALSE,"CV","p",2384,"cv","E","3","v","v",TRUE,1
"566","CVOE_C",2003,1,2,48,"S 61","","",TRUE,"CV","q",2086,"cv","S","1","c","c",TRUE,1
"567","CVOE_C",2003,1,2,49,"U 67","","",FALSE,"CV","p",2423,"cv","U","7","v","v",TRUE,1
"568","CVOE_C",2003,1,2,50,"H 32","","",FALSE,"CV","q",2699,"cv","H","2","c","c",TRUE,1
"569","CVOE_C",2003,1,2,51,"U 50","","",TRUE,"CV","q",1813,"cv","U","0","v","c",FALSE,0
"570","CVOE_C",2003,1,2,52,"O 49","","",FALSE,"CV","p",5305,"cv","O","9","v","v",TRUE,1
"571","CVOE_C",2003,1,2,53,"U 32","","",TRUE,"CV","p",10707,"cv","U","2","v","v",TRUE,1
"572","CVOE_C",2003,1,2,54,"J 78","","",FALSE,"CV","q",1864,"cv","J","8","c","c",TRUE,1
"573","CVOE_C",2003,1,2,55,"S 54","","",FALSE,"CV","q",1978,"cv","S","4","c","c",TRUE,1
"574","CVOE_C",2003,1,2,56,"J 27","","",TRUE,"CV","q",1615,"cv","J","7","c","c",TRUE,1
"575","CVOE_C",2003,1,2,57,"S 06","","",FALSE,"CV","q",1483,"cv","S","6","c","c",TRUE,1
"576","CVOE_C",2003,1,2,58,"D 67","","",TRUE,"CV","q",1660,"cv","D","7","c","c",TRUE,1
"577","CVOE_C",2003,1,2,59,"A 79","","",FALSE,"CV","p",1798,"cv","A","9","v","v",TRUE,1
"578","CVOE_C",2003,1,2,60,"S 52","","",FALSE,"CV","q",1283,"cv","S","2","c","c",TRUE,1
"579","CVOE_C",2003,1,2,61,"U 16","","",TRUE,"CV","q",1883,"cv","U","6","v","c",FALSE,0
"580","CVOE_C",2003,1,2,62,"O 82","","",TRUE,"CV","p",2933,"cv","O","2","v","v",TRUE,1
"581","CVOE_C",2003,1,2,63,"H 87","","",TRUE,"CV","q",1741,"cv","H","7","c","c",TRUE,1
"582","CVOE_C",2003,1,2,64,"I 32","","",TRUE,"CV","p",7972,"cv","I","2","v","v",TRUE,1
"583","CVOE_C",2003,1,2,65,"U 37","","",FALSE,"CV","q",2141,"cv","U","7","v","c",FALSE,0
"584","CVOE_C",2003,1,2,66,"I 42","","",TRUE,"CV","p",2524,"cv","I","2","v","v",TRUE,1
"585","CVOE_C",2003,1,2,67,"D 65","","",TRUE,"CV","q",3244,"cv","D","5","c","c",TRUE,1
"586","CVOE_C",2003,1,2,68,"U 77","","",FALSE,"CV","p",2288,"cv","U","7","v","v",TRUE,1
"587","CVOE_C",2003,1,2,69,"E 12","","",TRUE,"CV","q",11065,"cv","E","2","v","c",FALSE,0
"588","CVOE_C",2003,1,2,70,"I 60","","",TRUE,"CV","p",7080,"cv","I","0","v","v",TRUE,1
"589","CVOE_C",2003,1,2,71,"J 36","","",FALSE,"CV","q",2132,"cv","J","6","c","c",TRUE,1
"590","CVOE_C",2003,1,2,72,"H 75","","",TRUE,"CV","q",1979,"cv","H","5","c","c",TRUE,1
"591","CVOE_C",2003,1,2,73,"I 50","","",TRUE,"CV","p",2232,"cv","I","0","v","v",TRUE,1
"592","CVOE_C",2003,1,2,74,"E 99","","",FALSE,"CV","p",6068,"cv","E","9","v","v",TRUE,1
"593","CVOE_C",2003,1,2,75,"A 86","","",TRUE,"CV","p",2272,"cv","A","6","v","v",TRUE,1
"594","CVOE_C",2003,1,2,76,"U 48","","",TRUE,"CV","p",3234,"cv","U","8","v","v",TRUE,1
"595","CVOE_C",2003,1,2,77,"E 01","","",FALSE,"CV","p",6230,"cv","E","1","v","v",TRUE,1
"596","CVOE_C",2003,1,2,78,"A 78","","",TRUE,"CV","p",2644,"cv","A","8","v","v",TRUE,1
"597","CVOE_C",2003,1,2,79,"P 60","","",FALSE,"CV","q",4191,"cv","P","0","c","c",TRUE,1
"598","CVOE_C",2003,1,2,80,"E 43","","",FALSE,"CV","p",4877,"cv","E","3","v","v",TRUE,1
"599","CVOE_C",2003,1,2,81,"D 69","","",TRUE,"CV","q",3680,"cv","D","9","c","c",TRUE,1
"600","CVOE_C",2003,1,2,82,"H 11","","",TRUE,"CV","q",1386,"cv","H","1","c","c",TRUE,1
"601","CVOE_C",2003,1,2,83,"P 43","","",TRUE,"CV","q",1351,"cv","P","3","c","c",TRUE,1
"602","CVOE_C",2003,1,2,84,"O 67","","",FALSE,"CV","p",3565,"cv","O","7","v","v",TRUE,1
"603","CVOE_C",2003,1,2,85,"S 91","","",FALSE,"CV","q",1756,"cv","S","1","c","c",TRUE,1
"604","CVOE_C",2003,1,2,86,"J 68","","",TRUE,"CV","q",1259,"cv","J","8","c","c",TRUE,1
"605","CVOE_C",2003,1,2,87,"S 47","","",FALSE,"CV","q",1452,"cv","S","7","c","c",TRUE,1
"606","CVOE_C",2003,1,2,88,"I 81","","",TRUE,"CV","p",2511,"cv","I","1","v","v",TRUE,1
"607","CVOE_C",2003,1,2,89,"J 39","","",FALSE,"CV","q",2263,"cv","J","9","c","c",TRUE,1
"608","CVOE_C",2003,1,2,90,"A 11","","",TRUE,"CV","p",3945,"cv","A","1","v","v",TRUE,1
"609","CVOE_C",2003,1,2,91,"O 76","","",FALSE,"CV","p",3041,"cv","O","6","v","v",TRUE,1
"610","CVOE_C",2003,1,2,92,"A 62","","",FALSE,"CV","p",4052,"cv","A","2","v","v",TRUE,1
"611","CVOE_C",2003,1,2,93,"O 27","","",TRUE,"CV","p",5488,"cv","O","7","v","v",TRUE,1
"612","CVOE_C",2003,1,2,94,"E 66","","",FALSE,"CV","p",4084,"cv","E","6","v","v",TRUE,1
"613","CVOE_C",2003,1,2,95,"J 62","","",TRUE,"CV","q",1814,"cv","J","2","c","c",TRUE,1
"614","CVOE_C",2003,1,2,96,"H 72","","",TRUE,"CV","q",1730,"cv","H","2","c","c",TRUE,1
"615","CVOE_C",2003,1,2,97,"E 49","","",TRUE,"CV","p",2281,"cv","E","9","v","v",TRUE,1
"616","CVOE_C",2003,1,2,98,"D 52","","",TRUE,"CV","q",1955,"cv","D","2","c","c",TRUE,1
"617","CVOE_C",2003,1,2,99,"H 62","","",TRUE,"CV","q",1697,"cv","H","2","c","c",TRUE,1
"618","CVOE_C",2003,1,2,100,"I 11","","",TRUE,"CV","p",2418,"cv","I","1","v","v",TRUE,1
"619","CVOE_C",2003,1,2,101,"A 98","","",FALSE,"CV","p",2798,"cv","A","8","v","v",TRUE,1
"620","CVOE_C",2003,1,2,102,"H 29","","",FALSE,"CV","q",4971,"cv","H","9","c","c",TRUE,1
"621","CVOE_C",2003,1,2,103,"E 83","","",TRUE,"CV","p",3643,"cv","E","3","v","v",TRUE,1
"622","CVOE_C",2003,1,2,104,"D 43","","",FALSE,"CV","q",2207,"cv","D","3","c","c",TRUE,1
"623","CVOE_C",2003,1,2,105,"P 45","","",TRUE,"CV","q",1323,"cv","P","5","c","c",TRUE,1
"624","CVOE_C",2003,1,2,106,"J 17","","",TRUE,"CV","q",1619,"cv","J","7","c","c",TRUE,1
"865","CVOE updated",2001,1,1,11,"A 71","","",FALSE,"CV","p",4796,"cv","A","1","v","v",TRUE,1
"866","CVOE updated",2001,1,1,12,"I 66","","",TRUE,"CV","p",1007,"cv","I","6","v","v",TRUE,1
"867","CVOE updated",2001,1,1,13,"S 30","","",FALSE,"CV","q",1346,"cv","S","0","c","c",TRUE,1
"868","CVOE updated",2001,1,1,14,"D 20","","",FALSE,"CV","q",1432,"cv","D","0","c","c",TRUE,1
"869","CVOE updated",2001,1,1,15,"I 31","","",FALSE,"CV","p",1395,"cv","I","1","v","v",TRUE,1
"870","CVOE updated",2001,1,1,16,"P 16","","",FALSE,"CV","q",1118,"cv","P","6","c","c",TRUE,1
"871","CVOE updated",2001,1,1,17,"A 49","","",FALSE,"CV","p",1321,"cv","A","9","v","v",TRUE,1
"872","CVOE updated",2001,1,1,18,"O 64","","",TRUE,"CV","p",1105,"cv","O","4","v","v",TRUE,1
"873","CVOE updated",2001,1,1,19,"D 02","","",FALSE,"CV","q",932,"cv","D","2","c","c",TRUE,1
"874","CVOE updated",2001,1,1,20,"P 81","","",TRUE,"CV","q",1202,"cv","P","1","c","c",TRUE,1
"875","CVOE updated",2001,1,1,21,"J 58","","",FALSE,"CV","q",1125,"cv","J","8","c","c",TRUE,1
"876","CVOE updated",2001,1,1,22,"A 22","","",TRUE,"CV","p",1484,"cv","A","2","v","v",TRUE,1
"877","CVOE updated",2001,1,1,23,"J 72","","",FALSE,"CV","q",2416,"cv","J","2","c","c",TRUE,1
"878","CVOE updated",2001,1,1,24,"P 91","","",TRUE,"CV","q",1316,"cv","P","1","c","c",TRUE,1
"879","CVOE updated",2001,1,1,25,"E 19","","",FALSE,"CV","p",1122,"cv","E","9","v","v",TRUE,1
"880","CVOE updated",2001,1,1,26,"I 30","","",TRUE,"CV","p",1207,"cv","I","0","v","v",TRUE,1
"881","CVOE updated",2001,1,1,27,"D 91","","",TRUE,"CV","q",974,"cv","D","1","c","c",TRUE,1
"882","CVOE updated",2001,1,1,28,"O 48","","",TRUE,"CV","p",1406,"cv","O","8","v","v",TRUE,1
"883","CVOE updated",2001,1,1,29,"A 89","","",FALSE,"CV","p",1363,"cv","A","9","v","v",TRUE,1
"884","CVOE updated",2001,1,1,30,"U 11","","",FALSE,"CV","p",1158,"cv","U","1","v","v",TRUE,1
"885","CVOE updated",2001,1,1,31,"I 76","","",TRUE,"CV","p",1014,"cv","I","6","v","v",TRUE,1
"886","CVOE updated",2001,1,1,32,"U 89","","",FALSE,"CV","p",768,"cv","U","9","v","v",TRUE,1
"887","CVOE updated",2001,1,1,33,"D 63","","",TRUE,"CV","q",948,"cv","D","3","c","c",TRUE,1
"888","CVOE updated",2001,1,1,34,"H 70","","",FALSE,"CV","q",967,"cv","H","0","c","c",TRUE,1
"889","CVOE updated",2001,1,1,35,"D 48","","",FALSE,"CV","q",1163,"cv","D","8","c","c",TRUE,1
"890","CVOE updated",2001,1,1,36,"P 56","","",FALSE,"CV","q",1590,"cv","P","6","c","c",TRUE,1
"891","CVOE updated",2001,1,1,37,"O 77","","",FALSE,"CV","p",972,"cv","O","7","v","v",TRUE,1
"892","CVOE updated",2001,1,1,38,"P 42","","",FALSE,"CV","q",1130,"cv","P","2","c","c",TRUE,1
"893","CVOE updated",2001,1,1,39,"H 22","","",FALSE,"CV","q",1120,"cv","H","2","c","c",TRUE,1
"894","CVOE updated",2001,1,1,40,"E 42","","",TRUE,"CV","p",1126,"cv","E","2","v","v",TRUE,1
"895","CVOE updated",2001,1,1,41,"J 28","","",FALSE,"CV","q",1312,"cv","J","8","c","c",TRUE,1
"896","CVOE updated",2001,1,1,42,"E 95","","",FALSE,"CV","p",1354,"cv","E","5","v","v",TRUE,1
"897","CVOE updated",2001,1,1,43,"S 63","","",TRUE,"CV","q",969,"cv","S","3","c","c",TRUE,1
"898","CVOE updated",2001,1,1,44,"H 50","","",FALSE,"CV","q",1009,"cv","H","0","c","c",TRUE,1
"899","CVOE updated",2001,1,1,45,"S 33","","",TRUE,"CV","q",1155,"cv","S","3","c","c",TRUE,1
"900","CVOE updated",2001,1,1,46,"P 57","","",TRUE,"CV","q",1247,"cv","P","7","c","c",TRUE,1
"901","CVOE updated",2001,1,1,47,"E 23","","",FALSE,"CV","p",1002,"cv","E","3","v","v",TRUE,1
"902","CVOE updated",2001,1,1,48,"S 61","","",TRUE,"CV","q",929,"cv","S","1","c","c",TRUE,1
"903","CVOE updated",2001,1,1,49,"U 67","","",FALSE,"CV","p",1199,"cv","U","7","v","v",TRUE,1
"904","CVOE updated",2001,1,1,50,"H 32","","",FALSE,"CV","q",848,"cv","H","2","c","c",TRUE,1
"905","CVOE updated",2001,1,1,51,"U 50","","",TRUE,"CV","p",1083,"cv","U","0","v","v",TRUE,1
"906","CVOE updated",2001,1,1,52,"O 49","","",FALSE,"CV","p",967,"cv","O","9","v","v",TRUE,1
"907","CVOE updated",2001,1,1,53,"U 32","","",TRUE,"CV","p",889,"cv","U","2","v","v",TRUE,1
"908","CVOE updated",2001,1,1,54,"J 78","","",FALSE,"CV","q",1639,"cv","J","8","c","c",TRUE,1
"909","CVOE updated",2001,1,1,55,"S 54","","",FALSE,"CV","p",1284,"cv","S","4","c","v",FALSE,0
"910","CVOE updated",2001,1,1,56,"J 27","","",TRUE,"CV","q",4611,"cv","J","7","c","c",TRUE,1
"911","CVOE updated",2001,1,1,57,"S 06","","",FALSE,"CV","q",1201,"cv","S","6","c","c",TRUE,1
"912","CVOE updated",2001,1,1,58,"D 67","","",TRUE,"CV","q",969,"cv","D","7","c","c",TRUE,1
"913","CVOE updated",2001,1,1,59,"A 79","","",FALSE,"CV","p",1087,"cv","A","9","v","v",TRUE,1
"914","CVOE updated",2001,1,1,60,"S 52","","",FALSE,"CV","q",853,"cv","S","2","c","c",TRUE,1
"915","CVOE updated",2001,1,1,61,"U 16","","",TRUE,"CV","p",1009,"cv","U","6","v","v",TRUE,1
"916","CVOE updated",2001,1,1,62,"O 82","","",TRUE,"CV","p",898,"cv","O","2","v","v",TRUE,1
"917","CVOE updated",2001,1,1,63,"H 87","","",TRUE,"CV","q",809,"cv","H","7","c","c",TRUE,1
"918","CVOE updated",2001,1,1,64,"I 32","","",TRUE,"CV","p",961,"cv","I","2","v","v",TRUE,1
"919","CVOE updated",2001,1,1,65,"U 37","","",FALSE,"CV","p",1157,"cv","U","7","v","v",TRUE,1
"920","CVOE updated",2001,1,1,66,"I 42","","",TRUE,"CV","p",895,"cv","I","2","v","v",TRUE,1
"921","CVOE updated",2001,1,1,67,"D 65","","",TRUE,"CV","p",1002,"cv","D","5","c","v",FALSE,0
"922","CVOE updated",2001,1,1,68,"U 77","","",FALSE,"CV","q",264,"cv","U","7","v","c",FALSE,0
"923","CVOE updated",2001,1,1,69,"E 12","","",TRUE,"CV","q",1358,"cv","E","2","v","c",FALSE,0
"924","CVOE updated",2001,1,1,70,"I 60","","",TRUE,"CV","p",1601,"cv","I","0","v","v",TRUE,1
"925","CVOE updated",2001,1,1,71,"J 36","","",FALSE,"CV","p",4726,"cv","J","6","c","v",FALSE,0
"926","CVOE updated",2001,1,1,72,"H 75","","",TRUE,"CV","q",1122,"cv","H","5","c","c",TRUE,1
"927","CVOE updated",2001,1,1,73,"I 50","","",TRUE,"CV","p",1051,"cv","I","0","v","v",TRUE,1
"928","CVOE updated",2001,1,1,74,"E 99","","",FALSE,"CV","p",1198,"cv","E","9","v","v",TRUE,1
"929","CVOE updated",2001,1,1,75,"A 86","","",TRUE,"CV","p",1160,"cv","A","6","v","v",TRUE,1
"930","CVOE updated",2001,1,1,76,"U 48","","",TRUE,"CV","p",921,"cv","U","8","v","v",TRUE,1
"931","CVOE updated",2001,1,1,77,"E 01","","",FALSE,"CV","p",1207,"cv","E","1","v","v",TRUE,1
"932","CVOE updated",2001,1,1,78,"A 78","","",TRUE,"CV","p",777,"cv","A","8","v","v",TRUE,1
"933","CVOE updated",2001,1,1,79,"P 60","","",FALSE,"CV","q",1041,"cv","P","0","c","c",TRUE,1
"934","CVOE updated",2001,1,1,80,"E 43","","",FALSE,"CV","p",974,"cv","E","3","v","v",TRUE,1
"935","CVOE updated",2001,1,1,81,"D 69","","",TRUE,"CV","q",1036,"cv","D","9","c","c",TRUE,1
"936","CVOE updated",2001,1,1,82,"H 11","","",TRUE,"CV","q",1010,"cv","H","1","c","c",TRUE,1
"937","CVOE updated",2001,1,1,83,"P 43","","",TRUE,"CV","q",960,"cv","P","3","c","c",TRUE,1
"938","CVOE updated",2001,1,1,84,"O 67","","",FALSE,"CV","p",843,"cv","O","7","v","v",TRUE,1
"939","CVOE updated",2001,1,1,85,"S 91","","",FALSE,"CV","q",806,"cv","S","1","c","c",TRUE,1
"940","CVOE updated",2001,1,1,86,"J 68","","",TRUE,"CV","q",1520,"cv","J","8","c","c",TRUE,1
"941","CVOE updated",2001,1,1,87,"S 47","","",FALSE,"CV","q",1008,"cv","S","7","c","c",TRUE,1
"942","CVOE updated",2001,1,1,88,"I 81","","",TRUE,"CV","p",998,"cv","I","1","v","v",TRUE,1
"943","CVOE updated",2001,1,1,89,"J 39","","",FALSE,"CV","q",1553,"cv","J","9","c","c",TRUE,1
"944","CVOE updated",2001,1,1,90,"A 11","","",TRUE,"CV","p",1142,"cv","A","1","v","v",TRUE,1
"945","CVOE updated",2001,1,1,91,"O 76","","",FALSE,"CV","p",1076,"cv","O","6","v","v",TRUE,1
"946","CVOE updated",2001,1,1,92,"A 62","","",FALSE,"CV","p",999,"cv","A","2","v","v",TRUE,1
"947","CVOE updated",2001,1,1,93,"O 27","","",TRUE,"CV","p",809,"cv","O","7","v","v",TRUE,1
"948","CVOE updated",2001,1,1,94,"E 66","","",FALSE,"CV","p",1196,"cv","E","6","v","v",TRUE,1
"949","CVOE updated",2001,1,1,95,"J 62","","",TRUE,"CV","q",1197,"cv","J","2","c","c",TRUE,1
"950","CVOE updated",2001,1,1,96,"H 72","","",TRUE,"CV","q",1238,"cv","H","2","c","c",TRUE,1
"951","CVOE updated",2001,1,1,97,"E 49","","",TRUE,"CV","p",932,"cv","E","9","v","v",TRUE,1
"952","CVOE updated",2001,1,1,98,"D 52","","",TRUE,"CV","q",887,"cv","D","2","c","c",TRUE,1
"953","CVOE updated",2001,1,1,99,"H 62","","",TRUE,"CV","q",1050,"cv","H","2","c","c",TRUE,1
"954","CVOE updated",2001,1,1,100,"I 11","","",TRUE,"CV","p",928,"cv","I","1","v","v",TRUE,1
"955","CVOE updated",2001,1,1,101,"A 98","","",FALSE,"CV","p",1079,"cv","A","8","v","v",TRUE,1
"956","CVOE updated",2001,1,1,102,"H 29","","",FALSE,"CV","q",1119,"cv","H","9","c","c",TRUE,1
"957","CVOE updated",2001,1,1,103,"E 83","","",TRUE,"CV","p",1244,"cv","E","3","v","v",TRUE,1
"958","CVOE updated",2001,1,1,104,"D 43","","",FALSE,"CV","q",843,"cv","D","3","c","c",TRUE,1
"959","CVOE updated",2001,1,1,105,"P 45","","",TRUE,"CV","p",1039,"cv","P","5","c","v",FALSE,0
"960","CVOE updated",2001,1,1,106,"J 17","","",TRUE,"CV","q",2383,"cv","J","7","c","c",TRUE,1
"1393","CVOE_B",1002,1,2,11,"A 71","","",FALSE,"CV","p",4490,"cv","A","1","v","v",TRUE,1
"1394","CVOE_B",1002,1,2,12,"I 66","","",TRUE,"CV","p",1197,"cv","I","6","v","v",TRUE,1
"1395","CVOE_B",1002,1,2,13,"S 30","","",FALSE,"CV","q",1276,"cv","S","0","c","c",TRUE,1
"1396","CVOE_B",1002,1,2,14,"D 20","","",FALSE,"CV","q",1076,"cv","D","0","c","c",TRUE,1
"1397","CVOE_B",1002,1,2,15,"I 31","","",FALSE,"CV","p",921,"cv","I","1","v","v",TRUE,1
"1398","CVOE_B",1002,1,2,16,"P 16","","",FALSE,"CV","q",931,"cv","P","6","c","c",TRUE,1
"1399","CVOE_B",1002,1,2,17,"A 49","","",FALSE,"CV","p",886,"cv","A","9","v","v",TRUE,1
"1400","CVOE_B",1002,1,2,18,"O 64","","",TRUE,"CV","p",734,"cv","O","4","v","v",TRUE,1
"1401","CVOE_B",1002,1,2,19,"D 02","","",FALSE,"CV","q",812,"cv","D","2","c","c",TRUE,1
"1402","CVOE_B",1002,1,2,20,"P 81","","",TRUE,"CV","q",1079,"cv","P","1","c","c",TRUE,1
"1403","CVOE_B",1002,1,2,21,"J 58","","",FALSE,"CV","q",1119,"cv","J","8","c","c",TRUE,1
"1404","CVOE_B",1002,1,2,22,"A 22","","",TRUE,"CV","p",928,"cv","A","2","v","v",TRUE,1
"1405","CVOE_B",1002,1,2,23,"J 72","","",FALSE,"CV","q",883,"cv","J","2","c","c",TRUE,1
"1406","CVOE_B",1002,1,2,24,"P 91","","",TRUE,"CV","q",966,"cv","P","1","c","c",TRUE,1
"1407","CVOE_B",1002,1,2,25,"E 19","","",FALSE,"CV","p",811,"cv","E","9","v","v",TRUE,1
"1408","CVOE_B",1002,1,2,26,"I 30","","",TRUE,"CV","p",883,"cv","I","0","v","v",TRUE,1
"1409","CVOE_B",1002,1,2,27,"D 91","","",TRUE,"CV","q",927,"cv","D","1","c","c",TRUE,1
"1410","CVOE_B",1002,1,2,28,"O 48","","",TRUE,"CV","p",726,"cv","O","8","v","v",TRUE,1
"1411","CVOE_B",1002,1,2,29,"A 89","","",FALSE,"CV","p",802,"cv","A","9","v","v",TRUE,1
"1412","CVOE_B",1002,1,2,30,"U 11","","",FALSE,"CV","q",773,"cv","U","1","v","c",FALSE,0
"1413","CVOE_B",1002,1,2,31,"I 76","","",TRUE,"CV","p",1857,"cv","I","6","v","v",TRUE,1
"1414","CVOE_B",1002,1,2,32,"U 89","","",FALSE,"CV","p",1167,"cv","U","9","v","v",TRUE,1
"1415","CVOE_B",1002,1,2,33,"D 63","","",TRUE,"CV","q",965,"cv","D","3","c","c",TRUE,1
"1416","CVOE_B",1002,1,2,34,"H 70","","",FALSE,"CV","q",1982,"cv","H","0","c","c",TRUE,1
"1417","CVOE_B",1002,1,2,35,"D 48","","",FALSE,"CV","q",1354,"cv","D","8","c","c",TRUE,1
"1418","CVOE_B",1002,1,2,36,"P 56","","",FALSE,"CV","q",891,"cv","P","6","c","c",TRUE,1
"1419","CVOE_B",1002,1,2,37,"O 77","","",FALSE,"CV","p",723,"cv","O","7","v","v",TRUE,1
"1420","CVOE_B",1002,1,2,38,"P 42","","",FALSE,"CV","q",660,"cv","P","2","c","c",TRUE,1
"1421","CVOE_B",1002,1,2,39,"H 22","","",FALSE,"CV","q",843,"cv","H","2","c","c",TRUE,1
"1422","CVOE_B",1002,1,2,40,"E 42","","",TRUE,"CV","p",725,"cv","E","2","v","v",TRUE,1
"1423","CVOE_B",1002,1,2,41,"J 28","","",FALSE,"CV","q",997,"cv","J","8","c","c",TRUE,1
"1424","CVOE_B",1002,1,2,42,"E 95","","",FALSE,"CV","p",690,"cv","E","5","v","v",TRUE,1
"1425","CVOE_B",1002,1,2,43,"S 63","","",TRUE,"CV","q",817,"cv","S","3","c","c",TRUE,1
"1426","CVOE_B",1002,1,2,44,"H 50","","",FALSE,"CV","q",889,"cv","H","0","c","c",TRUE,1
"1427","CVOE_B",1002,1,2,45,"S 33","","",TRUE,"CV","q",1285,"cv","S","3","c","c",TRUE,1
"1428","CVOE_B",1002,1,2,46,"P 57","","",TRUE,"CV","q",1632,"cv","P","7","c","c",TRUE,1
"1429","CVOE_B",1002,1,2,47,"E 23","","",FALSE,"CV","p",728,"cv","E","3","v","v",TRUE,1
"1430","CVOE_B",1002,1,2,48,"S 61","","",TRUE,"CV","q",649,"cv","S","1","c","c",TRUE,1
"1431","CVOE_B",1002,1,2,49,"U 67","","",FALSE,"CV","p",614,"cv","U","7","v","v",TRUE,1
"1432","CVOE_B",1002,1,2,50,"H 32","","",FALSE,"CV","q",690,"cv","H","2","c","c",TRUE,1
"1433","CVOE_B",1002,1,2,51,"U 50","","",TRUE,"CV","p",645,"cv","U","0","v","v",TRUE,1
"1434","CVOE_B",1002,1,2,52,"O 49","","",FALSE,"CV","p",766,"cv","O","9","v","v",TRUE,1
"1435","CVOE_B",1002,1,2,53,"U 32","","",TRUE,"CV","p",631,"cv","U","2","v","v",TRUE,1
"1436","CVOE_B",1002,1,2,54,"J 78","","",FALSE,"CV","q",848,"cv","J","8","c","c",TRUE,1
"1437","CVOE_B",1002,1,2,55,"S 54","","",FALSE,"CV","q",886,"cv","S","4","c","c",TRUE,1
"1438","CVOE_B",1002,1,2,56,"J 27","","",TRUE,"CV","q",1400,"cv","J","7","c","c",TRUE,1
"1439","CVOE_B",1002,1,2,57,"S 06","","",FALSE,"CV","q",651,"cv","S","6","c","c",TRUE,1
"1440","CVOE_B",1002,1,2,58,"D 67","","",TRUE,"CV","q",736,"cv","D","7","c","c",TRUE,1
"1441","CVOE_B",1002,1,2,59,"A 79","","",FALSE,"CV","p",735,"cv","A","9","v","v",TRUE,1
"1442","CVOE_B",1002,1,2,60,"S 52","","",FALSE,"CV","q",812,"cv","S","2","c","c",TRUE,1
"1443","CVOE_B",1002,1,2,61,"U 16","","",TRUE,"CV","p",649,"cv","U","6","v","v",TRUE,1
"1444","CVOE_B",1002,1,2,62,"O 82","","",TRUE,"CV","p",614,"cv","O","2","v","v",TRUE,1
"1445","CVOE_B",1002,1,2,63,"H 87","","",TRUE,"CV","q",730,"cv","H","7","c","c",TRUE,1
"1446","CVOE_B",1002,1,2,64,"I 32","","",TRUE,"CV","p",807,"cv","I","2","v","v",TRUE,1
"1447","CVOE_B",1002,1,2,65,"U 37","","",FALSE,"CV","p",762,"cv","U","7","v","v",TRUE,1
"1448","CVOE_B",1002,1,2,66,"I 42","","",TRUE,"CV","p",766,"cv","I","2","v","v",TRUE,1
"1449","CVOE_B",1002,1,2,67,"D 65","","",TRUE,"CV","q",693,"cv","D","5","c","c",TRUE,1
"1450","CVOE_B",1002,1,2,68,"U 77","","",FALSE,"CV","p",646,"cv","U","7","v","v",TRUE,1
"1451","CVOE_B",1002,1,2,69,"E 12","","",TRUE,"CV","p",611,"cv","E","2","v","v",TRUE,1
"1452","CVOE_B",1002,1,2,70,"I 60","","",TRUE,"CV","p",727,"cv","I","0","v","v",TRUE,1
"1453","CVOE_B",1002,1,2,71,"J 36","","",FALSE,"CV","q",687,"cv","J","6","c","c",TRUE,1
"1454","CVOE_B",1002,1,2,72,"H 75","","",TRUE,"CV","q",814,"cv","H","5","c","c",TRUE,1
"1455","CVOE_B",1002,1,2,73,"I 50","","",TRUE,"CV","p",769,"cv","I","0","v","v",TRUE,1
"1456","CVOE_B",1002,1,2,74,"E 99","","",FALSE,"CV","p",734,"cv","E","9","v","v",TRUE,1
"1457","CVOE_B",1002,1,2,75,"A 86","","",TRUE,"CV","p",772,"cv","A","6","v","v",TRUE,1
"1458","CVOE_B",1002,1,2,76,"U 48","","",TRUE,"CV","p",737,"cv","U","8","v","v",TRUE,1
"1459","CVOE_B",1002,1,2,77,"E 01","","",FALSE,"CV","p",737,"cv","E","1","v","v",TRUE,1
"1460","CVOE_B",1002,1,2,78,"A 78","","",TRUE,"CV","p",870,"cv","A","8","v","v",TRUE,1
"1461","CVOE_B",1002,1,2,79,"P 60","","",FALSE,"CV","q",1243,"cv","P","0","c","c",TRUE,1
"1462","CVOE_B",1002,1,2,80,"E 43","","",FALSE,"CV","p",763,"cv","E","3","v","v",TRUE,1
"1463","CVOE_B",1002,1,2,81,"D 69","","",TRUE,"CV","q",1003,"cv","D","9","c","c",TRUE,1
"1464","CVOE_B",1002,1,2,82,"H 11","","",TRUE,"CV","q",1126,"cv","H","1","c","c",TRUE,1
"1465","CVOE_B",1002,1,2,83,"P 43","","",TRUE,"CV","q",1075,"cv","P","3","c","c",TRUE,1
"1466","CVOE_B",1002,1,2,84,"O 67","","",FALSE,"CV","p",645,"cv","O","7","v","v",TRUE,1
"1467","CVOE_B",1002,1,2,85,"S 91","","",FALSE,"CV","q",649,"cv","S","1","c","c",TRUE,1
"1468","CVOE_B",1002,1,2,86,"J 68","","",TRUE,"CV","q",693,"cv","J","8","c","c",TRUE,1
"1469","CVOE_B",1002,1,2,87,"S 47","","",FALSE,"CV","q",724,"cv","S","7","c","c",TRUE,1
"1470","CVOE_B",1002,1,2,88,"I 81","","",TRUE,"CV","p",762,"cv","I","1","v","v",TRUE,1
"1471","CVOE_B",1002,1,2,89,"J 39","","",FALSE,"CV","q",649,"cv","J","9","c","c",TRUE,1
"1472","CVOE_B",1002,1,2,90,"A 11","","",TRUE,"CV","p",656,"cv","A","1","v","v",TRUE,1
"1473","CVOE_B",1002,1,2,91,"O 76","","",FALSE,"CV","p",560,"cv","O","6","v","v",TRUE,1
"1474","CVOE_B",1002,1,2,92,"A 62","","",FALSE,"CV","p",608,"cv","A","2","v","v",TRUE,1
"1475","CVOE_B",1002,1,2,93,"O 27","","",TRUE,"CV","p",920,"cv","O","7","v","v",TRUE,1
"1476","CVOE_B",1002,1,2,94,"E 66","","",FALSE,"CV","p",657,"cv","E","6","v","v",TRUE,1
"1477","CVOE_B",1002,1,2,95,"J 62","","",TRUE,"CV","q",762,"cv","J","2","c","c",TRUE,1
"1478","CVOE_B",1002,1,2,96,"H 72","","",TRUE,"CV","q",610,"cv","H","2","c","c",TRUE,1
"1479","CVOE_B",1002,1,2,97,"E 49","","",TRUE,"CV","p",726,"cv","E","9","v","v",TRUE,1
"1480","CVOE_B",1002,1,2,98,"D 52","","",TRUE,"CV","q",607,"cv","D","2","c","c",TRUE,1
"1481","CVOE_B",1002,1,2,99,"H 62","","",TRUE,"CV","q",722,"cv","H","2","c","c",TRUE,1
"1482","CVOE_B",1002,1,2,100,"I 11","","",TRUE,"CV","p",738,"cv","I","1","v","v",TRUE,1
"1483","CVOE_B",1002,1,2,101,"A 98","","",FALSE,"CV","p",620,"cv","A","8","v","v",TRUE,1
"1484","CVOE_B",1002,1,2,102,"H 29","","",FALSE,"CV","q",697,"cv","H","9","c","c",TRUE,1
"1485","CVOE_B",1002,1,2,103,"E 83","","",TRUE,"CV","p",689,"cv","E","3","v","v",TRUE,1
"1486","CVOE_B",1002,1,2,104,"D 43","","",FALSE,"CV","q",817,"cv","D","3","c","c",TRUE,1
"1487","CVOE_B",1002,1,2,105,"P 45","","",TRUE,"CV","q",654,"cv","P","5","c","c",TRUE,1
"1488","CVOE_B",1002,1,2,106,"J 17","","",TRUE,"CV","q",699,"cv","J","7","c","c",TRUE,1
"1825","CVOE_B",2002,1,2,11,"A 71","","",FALSE,"CV","p",5270,"cv","A","1","v","v",TRUE,1
"1826","CVOE_B",2002,1,2,12,"I 66","","",TRUE,"CV","p",1304,"cv","I","6","v","v",TRUE,1
"1827","CVOE_B",2002,1,2,13,"S 30","","",FALSE,"CV","q",891,"cv","S","0","c","c",TRUE,1
"1828","CVOE_B",2002,1,2,14,"D 20","","",FALSE,"CV","q",1271,"cv","D","0","c","c",TRUE,1
"1829","CVOE_B",2002,1,2,15,"I 31","","",FALSE,"CV","p",618,"cv","I","1","v","v",TRUE,1
"1830","CVOE_B",2002,1,2,16,"P 16","","",FALSE,"CV","q",655,"cv","P","6","c","c",TRUE,1
"1831","CVOE_B",2002,1,2,17,"A 49","","",FALSE,"CV","p",738,"cv","A","9","v","v",TRUE,1
"1832","CVOE_B",2002,1,2,18,"O 64","","",TRUE,"CV","p",698,"cv","O","4","v","v",TRUE,1
"1833","CVOE_B",2002,1,2,19,"D 02","","",FALSE,"CV","q",809,"cv","D","2","c","c",TRUE,1
"1834","CVOE_B",2002,1,2,20,"P 81","","",TRUE,"CV","p",608,"cv","P","1","c","v",FALSE,0
"1835","CVOE_B",2002,1,2,21,"J 58","","",FALSE,"CV","p",489,"cv","J","8","c","v",FALSE,0
"1836","CVOE_B",2002,1,2,22,"A 22","","",TRUE,"CV","q",543,"cv","A","2","v","c",FALSE,0
"1837","CVOE_B",2002,1,2,23,"J 72","","",FALSE,"CV","q",2409,"cv","J","2","c","c",TRUE,1
"1838","CVOE_B",2002,1,2,24,"P 91","","",TRUE,"CV","q",1519,"cv","P","1","c","c",TRUE,1
"1839","CVOE_B",2002,1,2,25,"E 19","","",FALSE,"CV","p",615,"cv","E","9","v","v",TRUE,1
"1840","CVOE_B",2002,1,2,26,"I 30","","",TRUE,"CV","p",1827,"cv","I","0","v","v",TRUE,1
"1841","CVOE_B",2002,1,2,27,"D 91","","",TRUE,"CV","q",801,"cv","D","1","c","c",TRUE,1
"1842","CVOE_B",2002,1,2,28,"O 48","","",TRUE,"CV","p",655,"cv","O","8","v","v",TRUE,1
"1843","CVOE_B",2002,1,2,29,"A 89","","",FALSE,"CV","p",816,"cv","A","9","v","v",TRUE,1
"1844","CVOE_B",2002,1,2,30,"U 11","","",FALSE,"CV","p",653,"cv","U","1","v","v",TRUE,1
"1845","CVOE_B",2002,1,2,31,"I 76","","",TRUE,"CV","p",597,"cv","I","6","v","v",TRUE,1
"1846","CVOE_B",2002,1,2,32,"U 89","","",FALSE,"CV","p",573,"cv","U","9","v","v",TRUE,1
"1847","CVOE_B",2002,1,2,33,"D 63","","",TRUE,"CV","q",974,"cv","D","3","c","c",TRUE,1
"1848","CVOE_B",2002,1,2,34,"H 70","","",FALSE,"CV","q",896,"cv","H","0","c","c",TRUE,1
"1849","CVOE_B",2002,1,2,35,"D 48","","",FALSE,"CV","q",571,"cv","D","8","c","c",TRUE,1
"1850","CVOE_B",2002,1,2,36,"P 56","","",FALSE,"CV","q",659,"cv","P","6","c","c",TRUE,1
"1851","CVOE_B",2002,1,2,37,"O 77","","",FALSE,"CV","p",610,"cv","O","7","v","v",TRUE,1
"1852","CVOE_B",2002,1,2,38,"P 42","","",FALSE,"CV","q",648,"cv","P","2","c","c",TRUE,1
"1853","CVOE_B",2002,1,2,39,"H 22","","",FALSE,"CV","q",535,"cv","H","2","c","c",TRUE,1
"1854","CVOE_B",2002,1,2,40,"E 42","","",TRUE,"CV","p",617,"cv","E","2","v","v",TRUE,1
"1855","CVOE_B",2002,1,2,41,"J 28","","",FALSE,"CV","q",537,"cv","J","8","c","c",TRUE,1
"1856","CVOE_B",2002,1,2,42,"E 95","","",FALSE,"CV","p",542,"cv","E","5","v","v",TRUE,1
"1857","CVOE_B",2002,1,2,43,"S 63","","",TRUE,"CV","q",820,"cv","S","3","c","c",TRUE,1
"1858","CVOE_B",2002,1,2,44,"H 50","","",FALSE,"CV","q",539,"cv","H","0","c","c",TRUE,1
"1859","CVOE_B",2002,1,2,45,"S 33","","",TRUE,"CV","q",487,"cv","S","3","c","c",TRUE,1
"1860","CVOE_B",2002,1,2,46,"P 57","","",TRUE,"CV","q",502,"cv","P","7","c","c",TRUE,1
"1861","CVOE_B",2002,1,2,47,"E 23","","",FALSE,"CV","p",540,"cv","E","3","v","v",TRUE,1
"1862","CVOE_B",2002,1,2,48,"S 61","","",TRUE,"CV","q",528,"cv","S","1","c","c",TRUE,1
"1863","CVOE_B",2002,1,2,49,"U 67","","",FALSE,"CV","p",649,"cv","U","7","v","v",TRUE,1
"1864","CVOE_B",2002,1,2,50,"H 32","","",FALSE,"CV","q",1045,"cv","H","2","c","c",TRUE,1
"1865","CVOE_B",2002,1,2,51,"U 50","","",TRUE,"CV","p",570,"cv","U","0","v","v",TRUE,1
"1866","CVOE_B",2002,1,2,52,"O 49","","",FALSE,"CV","p",596,"cv","O","9","v","v",TRUE,1
"1867","CVOE_B",2002,1,2,53,"U 32","","",TRUE,"CV","p",573,"cv","U","2","v","v",TRUE,1
"1868","CVOE_B",2002,1,2,54,"J 78","","",FALSE,"CV","q",700,"cv","J","8","c","c",TRUE,1
"1869","CVOE_B",2002,1,2,55,"S 54","","",FALSE,"CV","q",615,"cv","S","4","c","c",TRUE,1
"1870","CVOE_B",2002,1,2,56,"J 27","","",TRUE,"CV","q",614,"cv","J","7","c","c",TRUE,1
"1871","CVOE_B",2002,1,2,57,"S 06","","",FALSE,"CV","q",769,"cv","S","6","c","c",TRUE,1
"1872","CVOE_B",2002,1,2,58,"D 67","","",TRUE,"CV","q",1792,"cv","D","7","c","c",TRUE,1
"1873","CVOE_B",2002,1,2,59,"A 79","","",FALSE,"CV","p",464,"cv","A","9","v","v",TRUE,1
"1874","CVOE_B",2002,1,2,60,"S 52","","",FALSE,"CV","q",847,"cv","S","2","c","c",TRUE,1
"1875","CVOE_B",2002,1,2,61,"U 16","","",TRUE,"CV","p",456,"cv","U","6","v","v",TRUE,1
"1876","CVOE_B",2002,1,2,62,"O 82","","",TRUE,"CV","p",661,"cv","O","2","v","v",TRUE,1
"1877","CVOE_B",2002,1,2,63,"H 87","","",TRUE,"CV","q",1041,"cv","H","7","c","c",TRUE,1
"1878","CVOE_B",2002,1,2,64,"I 32","","",TRUE,"CV","p",584,"cv","I","2","v","v",TRUE,1
"1879","CVOE_B",2002,1,2,65,"U 37","","",FALSE,"CV","p",499,"cv","U","7","v","v",TRUE,1
"1880","CVOE_B",2002,1,2,66,"I 42","","",TRUE,"CV","p",458,"cv","I","2","v","v",TRUE,1
"1881","CVOE_B",2002,1,2,67,"D 65","","",TRUE,"CV","q",685,"cv","D","5","c","c",TRUE,1
"1882","CVOE_B",2002,1,2,68,"U 77","","",FALSE,"CV","p",422,"cv","U","7","v","v",TRUE,1
"1883","CVOE_B",2002,1,2,69,"E 12","","",TRUE,"CV","p",621,"cv","E","2","v","v",TRUE,1
"1884","CVOE_B",2002,1,2,70,"I 60","","",TRUE,"CV","p",502,"cv","I","0","v","v",TRUE,1
"1885","CVOE_B",2002,1,2,71,"J 36","","",FALSE,"CV","q",618,"cv","J","6","c","c",TRUE,1
"1886","CVOE_B",2002,1,2,72,"H 75","","",TRUE,"CV","p",460,"cv","H","5","c","v",FALSE,0
"1887","CVOE_B",2002,1,2,73,"I 50","","",TRUE,"CV","q",1235,"cv","I","0","v","c",FALSE,0
"1888","CVOE_B",2002,1,2,74,"E 99","","",FALSE,"CV","p",733,"cv","E","9","v","v",TRUE,1
"1889","CVOE_B",2002,1,2,75,"A 86","","",TRUE,"CV","p",967,"cv","A","6","v","v",TRUE,1
"1890","CVOE_B",2002,1,2,76,"U 48","","",TRUE,"CV","p",615,"cv","U","8","v","v",TRUE,1
"1891","CVOE_B",2002,1,2,77,"E 01","","",FALSE,"CV","p",748,"cv","E","1","v","v",TRUE,1
"1892","CVOE_B",2002,1,2,78,"A 78","","",TRUE,"CV","p",1200,"cv","A","8","v","v",TRUE,1
"1893","CVOE_B",2002,1,2,79,"P 60","","",FALSE,"CV","q",731,"cv","P","0","c","c",TRUE,1
"1894","CVOE_B",2002,1,2,80,"E 43","","",FALSE,"CV","p",574,"cv","E","3","v","v",TRUE,1
"1895","CVOE_B",2002,1,2,81,"D 69","","",TRUE,"CV","q",645,"cv","D","9","c","c",TRUE,1
"1896","CVOE_B",2002,1,2,82,"H 11","","",TRUE,"CV","q",571,"cv","H","1","c","c",TRUE,1
"1897","CVOE_B",2002,1,2,83,"P 43","","",TRUE,"CV","q",581,"cv","P","3","c","c",TRUE,1
"1898","CVOE_B",2002,1,2,84,"O 67","","",FALSE,"CV","p",652,"cv","O","7","v","v",TRUE,1
"1899","CVOE_B",2002,1,2,85,"S 91","","",FALSE,"CV","q",735,"cv","S","1","c","c",TRUE,1
"1900","CVOE_B",2002,1,2,86,"J 68","","",TRUE,"CV","q",852,"cv","J","8","c","c",TRUE,1
"1901","CVOE_B",2002,1,2,87,"S 47","","",FALSE,"CV","q",538,"cv","S","7","c","c",TRUE,1
"1902","CVOE_B",2002,1,2,88,"I 81","","",TRUE,"CV","p",581,"cv","I","1","v","v",TRUE,1
"1903","CVOE_B",2002,1,2,89,"J 39","","",FALSE,"CV","q",614,"cv","J","9","c","c",TRUE,1
"1904","CVOE_B",2002,1,2,90,"A 11","","",TRUE,"CV","p",612,"cv","A","1","v","v",TRUE,1
"1905","CVOE_B",2002,1,2,91,"O 76","","",FALSE,"CV","p",1276,"cv","O","6","v","v",TRUE,1
"1906","CVOE_B",2002,1,2,92,"A 62","","",FALSE,"CV","p",841,"cv","A","2","v","v",TRUE,1
"1907","CVOE_B",2002,1,2,93,"O 27","","",TRUE,"CV","p",527,"cv","O","7","v","v",TRUE,1
"1908","CVOE_B",2002,1,2,94,"E 66","","",FALSE,"CV","p",573,"cv","E","6","v","v",TRUE,1
"1909","CVOE_B",2002,1,2,95,"J 62","","",TRUE,"CV","q",854,"cv","J","2","c","c",TRUE,1
"1910","CVOE_B",2002,1,2,96,"H 72","","",TRUE,"CV","q",1206,"cv","H","2","c","c",TRUE,1
"1911","CVOE_B",2002,1,2,97,"E 49","","",TRUE,"CV","p",1324,"cv","E","9","v","v",TRUE,1
"1912","CVOE_B",2002,1,2,98,"D 52","","",TRUE,"CV","q",895,"cv","D","2","c","c",TRUE,1
"1913","CVOE_B",2002,1,2,99,"H 62","","",TRUE,"CV","q",805,"cv","H","2","c","c",TRUE,1
"1914","CVOE_B",2002,1,2,100,"I 11","","",TRUE,"CV","p",620,"cv","I","1","v","v",TRUE,1
"1915","CVOE_B",2002,1,2,101,"A 98","","",FALSE,"CV","p",736,"cv","A","8","v","v",TRUE,1
"1916","CVOE_B",2002,1,2,102,"H 29","","",FALSE,"CV","q",735,"cv","H","9","c","c",TRUE,1
"1917","CVOE_B",2002,1,2,103,"E 83","","",TRUE,"CV","q",1009,"cv","E","3","v","c",FALSE,0
"1918","CVOE_B",2002,1,2,104,"D 43","","",FALSE,"CV","p",998,"cv","D","3","c","v",FALSE,0
"1919","CVOE_B",2002,1,2,105,"P 45","","",TRUE,"CV","q",2646,"cv","P","5","c","c",TRUE,1
"1920","CVOE_B",2002,1,2,106,"J 17","","",TRUE,"CV","q",1315,"cv","J","7","c","c",TRUE,1
"2257","CVOE_C",1003,1,2,11,"A 71","","",FALSE,"CV","q",7567,"cv","A","1","v","c",FALSE,0
"2258","CVOE_C",1003,1,2,12,"I 66","","",TRUE,"CV","p",3313,"cv","I","6","v","v",TRUE,1
"2259","CVOE_C",1003,1,2,13,"S 30","","",FALSE,"CV","q",1991,"cv","S","0","c","c",TRUE,1
"2260","CVOE_C",1003,1,2,14,"D 20","","",FALSE,"CV","q",3828,"cv","D","0","c","c",TRUE,1
"2261","CVOE_C",1003,1,2,15,"I 31","","",FALSE,"CV","p",1479,"cv","I","1","v","v",TRUE,1
"2262","CVOE_C",1003,1,2,16,"P 16","","",FALSE,"CV","q",1039,"cv","P","6","c","c",TRUE,1
"2263","CVOE_C",1003,1,2,17,"A 49","","",FALSE,"CV","p",1795,"cv","A","9","v","v",TRUE,1
"2264","CVOE_C",1003,1,2,18,"O 64","","",TRUE,"CV","p",724,"cv","O","4","v","v",TRUE,1
"2265","CVOE_C",1003,1,2,19,"D 02","","",FALSE,"CV","q",801,"cv","D","2","c","c",TRUE,1
"2266","CVOE_C",1003,1,2,20,"P 81","","",TRUE,"CV","q",1086,"cv","P","1","c","c",TRUE,1
"2267","CVOE_C",1003,1,2,21,"J 58","","",FALSE,"CV","q",813,"cv","J","8","c","c",TRUE,1
"2268","CVOE_C",1003,1,2,22,"A 22","","",TRUE,"CV","p",650,"cv","A","2","v","v",TRUE,1
"2269","CVOE_C",1003,1,2,23,"J 72","","",FALSE,"CV","q",1320,"cv","J","2","c","c",TRUE,1
"2270","CVOE_C",1003,1,2,24,"P 91","","",TRUE,"CV","q",1087,"cv","P","1","c","c",TRUE,1
"2271","CVOE_C",1003,1,2,25,"E 19","","",FALSE,"CV","p",657,"cv","E","9","v","v",TRUE,1
"2272","CVOE_C",1003,1,2,26,"I 30","","",TRUE,"CV","p",857,"cv","I","0","v","v",TRUE,1
"2273","CVOE_C",1003,1,2,27,"D 91","","",TRUE,"CV","q",857,"cv","D","1","c","c",TRUE,1
"2274","CVOE_C",1003,1,2,28,"O 48","","",TRUE,"CV","p",856,"cv","O","8","v","v",TRUE,1
"2275","CVOE_C",1003,1,2,29,"A 89","","",FALSE,"CV","p",2774,"cv","A","9","v","v",TRUE,1
"2276","CVOE_C",1003,1,2,30,"U 11","","",FALSE,"CV","p",969,"cv","U","1","v","v",TRUE,1
"2277","CVOE_C",1003,1,2,31,"I 76","","",TRUE,"CV","p",1243,"cv","I","6","v","v",TRUE,1
"2278","CVOE_C",1003,1,2,32,"U 89","","",FALSE,"CV","p",1076,"cv","U","9","v","v",TRUE,1
"2279","CVOE_C",1003,1,2,33,"D 63","","",TRUE,"CV","q",959,"cv","D","3","c","c",TRUE,1
"2280","CVOE_C",1003,1,2,34,"H 70","","",FALSE,"CV","q",685,"cv","H","0","c","c",TRUE,1
"2281","CVOE_C",1003,1,2,35,"D 48","","",FALSE,"CV","q",618,"cv","D","8","c","c",TRUE,1
"2282","CVOE_C",1003,1,2,36,"P 56","","",FALSE,"CV","q",930,"cv","P","6","c","c",TRUE,1
"2283","CVOE_C",1003,1,2,37,"O 77","","",FALSE,"CV","p",1003,"cv","O","7","v","v",TRUE,1
"2284","CVOE_C",1003,1,2,38,"P 42","","",FALSE,"CV","q",1634,"cv","P","2","c","c",TRUE,1
"2285","CVOE_C",1003,1,2,39,"H 22","","",FALSE,"CV","q",813,"cv","H","2","c","c",TRUE,1
"2286","CVOE_C",1003,1,2,40,"E 42","","",TRUE,"CV","p",766,"cv","E","2","v","v",TRUE,1
"2287","CVOE_C",1003,1,2,41,"J 28","","",FALSE,"CV","q",849,"cv","J","8","c","c",TRUE,1
"2288","CVOE_C",1003,1,2,42,"E 95","","",FALSE,"CV","p",653,"cv","E","5","v","v",TRUE,1
"2289","CVOE_C",1003,1,2,43,"S 63","","",TRUE,"CV","q",932,"cv","S","3","c","c",TRUE,1
"2290","CVOE_C",1003,1,2,44,"H 50","","",FALSE,"CV","q",653,"cv","H","0","c","c",TRUE,1
"2291","CVOE_C",1003,1,2,45,"S 33","","",TRUE,"CV","q",501,"cv","S","3","c","c",TRUE,1
"2292","CVOE_C",1003,1,2,46,"P 57","","",TRUE,"CV","q",577,"cv","P","7","c","c",TRUE,1
"2293","CVOE_C",1003,1,2,47,"E 23","","",FALSE,"CV","p",688,"cv","E","3","v","v",TRUE,1
"2294","CVOE_C",1003,1,2,48,"S 61","","",TRUE,"CV","q",581,"cv","S","1","c","c",TRUE,1
"2295","CVOE_C",1003,1,2,49,"U 67","","",FALSE,"CV","p",848,"cv","U","7","v","v",TRUE,1
"2296","CVOE_C",1003,1,2,50,"H 32","","",FALSE,"CV","q",772,"cv","H","2","c","c",TRUE,1
"2297","CVOE_C",1003,1,2,51,"U 50","","",TRUE,"CV","p",699,"cv","U","0","v","v",TRUE,1
"2298","CVOE_C",1003,1,2,52,"O 49","","",FALSE,"CV","p",770,"cv","O","9","v","v",TRUE,1
"2299","CVOE_C",1003,1,2,53,"U 32","","",TRUE,"CV","p",853,"cv","U","2","v","v",TRUE,1
"2300","CVOE_C",1003,1,2,54,"J 78","","",FALSE,"CV","q",735,"cv","J","8","c","c",TRUE,1
"2301","CVOE_C",1003,1,2,55,"S 54","","",FALSE,"CV","q",1949,"cv","S","4","c","c",TRUE,1
"2302","CVOE_C",1003,1,2,56,"J 27","","",TRUE,"CV","q",688,"cv","J","7","c","c",TRUE,1
"2303","CVOE_C",1003,1,2,57,"S 06","","",FALSE,"CV","q",662,"cv","S","6","c","c",TRUE,1
"2304","CVOE_C",1003,1,2,58,"D 67","","",TRUE,"CV","q",963,"cv","D","7","c","c",TRUE,1
"2305","CVOE_C",1003,1,2,59,"A 79","","",FALSE,"CV","p",610,"cv","A","9","v","v",TRUE,1
"2306","CVOE_C",1003,1,2,60,"S 52","","",FALSE,"CV","q",648,"cv","S","2","c","c",TRUE,1
"2307","CVOE_C",1003,1,2,61,"U 16","","",TRUE,"CV","p",731,"cv","U","6","v","v",TRUE,1
"2308","CVOE_C",1003,1,2,62,"O 82","","",TRUE,"CV","p",730,"cv","O","2","v","v",TRUE,1
"2309","CVOE_C",1003,1,2,63,"H 87","","",TRUE,"CV","q",809,"cv","H","7","c","c",TRUE,1
"2310","CVOE_C",1003,1,2,64,"I 32","","",TRUE,"CV","q",1193,"cv","I","2","v","c",FALSE,0
"2311","CVOE_C",1003,1,2,65,"U 37","","",FALSE,"CV","p",920,"cv","U","7","v","v",TRUE,1
"2312","CVOE_C",1003,1,2,66,"I 42","","",TRUE,"CV","p",736,"cv","I","2","v","v",TRUE,1
"2313","CVOE_C",1003,1,2,67,"D 65","","",TRUE,"CV","q",1323,"cv","D","5","c","c",TRUE,1
"2314","CVOE_C",1003,1,2,68,"U 77","","",FALSE,"CV","p",1167,"cv","U","7","v","v",TRUE,1
"2315","CVOE_C",1003,1,2,69,"E 12","","",TRUE,"CV","p",811,"cv","E","2","v","v",TRUE,1
"2316","CVOE_C",1003,1,2,70,"I 60","","",TRUE,"CV","p",687,"cv","I","0","v","v",TRUE,1
"2317","CVOE_C",1003,1,2,71,"J 36","","",FALSE,"CV","q",698,"cv","J","6","c","c",TRUE,1
"2318","CVOE_C",1003,1,2,72,"H 75","","",TRUE,"CV","q",1121,"cv","H","5","c","c",TRUE,1
"2319","CVOE_C",1003,1,2,73,"I 50","","",TRUE,"CV","p",619,"cv","I","0","v","v",TRUE,1
"2320","CVOE_C",1003,1,2,74,"E 99","","",FALSE,"CV","p",635,"cv","E","9","v","v",TRUE,1
"2321","CVOE_C",1003,1,2,75,"A 86","","",TRUE,"CV","q",1205,"cv","A","6","v","c",FALSE,0
"2322","CVOE_C",1003,1,2,76,"U 48","","",TRUE,"CV","p",1832,"cv","U","8","v","v",TRUE,1
"2323","CVOE_C",1003,1,2,77,"E 01","","",FALSE,"CV","p",902,"cv","E","1","v","v",TRUE,1
"2324","CVOE_C",1003,1,2,78,"A 78","","",TRUE,"CV","p",2026,"cv","A","8","v","v",TRUE,1
"2325","CVOE_C",1003,1,2,79,"P 60","","",FALSE,"CV","q",1247,"cv","P","0","c","c",TRUE,1
"2326","CVOE_C",1003,1,2,80,"E 43","","",FALSE,"CV","p",1511,"cv","E","3","v","v",TRUE,1
"2327","CVOE_C",1003,1,2,81,"D 69","","",TRUE,"CV","q",959,"cv","D","9","c","c",TRUE,1
"2328","CVOE_C",1003,1,2,82,"H 11","","",TRUE,"CV","q",686,"cv","H","1","c","c",TRUE,1
"2329","CVOE_C",1003,1,2,83,"P 43","","",TRUE,"CV","q",1126,"cv","P","3","c","c",TRUE,1
"2330","CVOE_C",1003,1,2,84,"O 67","","",FALSE,"CV","p",646,"cv","O","7","v","v",TRUE,1
"2331","CVOE_C",1003,1,2,85,"S 91","","",FALSE,"CV","q",729,"cv","S","1","c","c",TRUE,1
"2332","CVOE_C",1003,1,2,86,"J 68","","",TRUE,"CV","q",1394,"cv","J","8","c","c",TRUE,1
"2333","CVOE_C",1003,1,2,87,"S 47","","",FALSE,"CV","q",646,"cv","S","7","c","c",TRUE,1
"2334","CVOE_C",1003,1,2,88,"I 81","","",TRUE,"CV","q",533,"cv","I","1","v","c",FALSE,0
"2335","CVOE_C",1003,1,2,89,"J 39","","",FALSE,"CV","q",970,"cv","J","9","c","c",TRUE,1
"2336","CVOE_C",1003,1,2,90,"A 11","","",TRUE,"CV","p",891,"cv","A","1","v","v",TRUE,1
"2337","CVOE_C",1003,1,2,91,"O 76","","",FALSE,"CV","p",584,"cv","O","6","v","v",TRUE,1
"2338","CVOE_C",1003,1,2,92,"A 62","","",FALSE,"CV","p",1439,"cv","A","2","v","v",TRUE,1
"2339","CVOE_C",1003,1,2,93,"O 27","","",TRUE,"CV","p",579,"cv","O","7","v","v",TRUE,1
"2340","CVOE_C",1003,1,2,94,"E 66","","",FALSE,"CV","p",612,"cv","E","6","v","v",TRUE,1
"2341","CVOE_C",1003,1,2,95,"J 62","","",TRUE,"CV","q",611,"cv","J","2","c","c",TRUE,1
"2342","CVOE_C",1003,1,2,96,"H 72","","",TRUE,"CV","q",844,"cv","H","2","c","c",TRUE,1
"2343","CVOE_C",1003,1,2,97,"E 49","","",TRUE,"CV","p",649,"cv","E","9","v","v",TRUE,1
"2344","CVOE_C",1003,1,2,98,"D 52","","",TRUE,"CV","q",731,"cv","D","2","c","c",TRUE,1
"2345","CVOE_C",1003,1,2,99,"H 62","","",TRUE,"CV","q",1712,"cv","H","2","c","c",TRUE,1
"2346","CVOE_C",1003,1,2,100,"I 11","","",TRUE,"CV","p",568,"cv","I","1","v","v",TRUE,1
"2347","CVOE_C",1003,1,2,101,"A 98","","",FALSE,"CV","q",617,"cv","A","8","v","c",FALSE,0
"2348","CVOE_C",1003,1,2,102,"H 29","","",FALSE,"CV","q",1986,"cv","H","9","c","c",TRUE,1
"2349","CVOE_C",1003,1,2,103,"E 83","","",TRUE,"CV","p",1006,"cv","E","3","v","v",TRUE,1
"2350","CVOE_C",1003,1,2,104,"D 43","","",FALSE,"CV","q",620,"cv","D","3","c","c",TRUE,1
"2351","CVOE_C",1003,1,2,105,"P 45","","",TRUE,"CV","q",1207,"cv","P","5","c","c",TRUE,1
"2352","CVOE_C",1003,1,2,106,"J 17","","",TRUE,"CV","q",816,"cv","J","7","c","c",TRUE,1
"97","CVOE updated",1001,1,2,11,"A 24","","",TRUE,"OE","p",2238,"oe","A","4","e","e",TRUE,1
"98","CVOE updated",1001,1,2,12,"O 83","","",FALSE,"OE","q",818,"oe","O","3","o","o",TRUE,1
"99","CVOE updated",1001,1,2,13,"H 55","","",TRUE,"OE","q",701,"oe","H","5","o","o",TRUE,1
"100","CVOE updated",1001,1,2,14,"P 10","","",FALSE,"OE","p",653,"oe","P","0","e","e",TRUE,1
"101","CVOE updated",1001,1,2,15,"D 30","","",FALSE,"OE","p",599,"oe","D","0","e","e",TRUE,1
"102","CVOE updated",1001,1,2,16,"U 62","","",TRUE,"OE","p",611,"oe","U","2","e","e",TRUE,1
"103","CVOE updated",1001,1,2,17,"P 95","","",TRUE,"OE","q",734,"oe","P","5","o","o",TRUE,1
"104","CVOE updated",1001,1,2,18,"U 06","","",TRUE,"OE","p",757,"oe","U","6","e","e",TRUE,1
"105","CVOE updated",1001,1,2,19,"E 75","","",FALSE,"OE","q",659,"oe","E","5","o","o",TRUE,1
"106","CVOE updated",1001,1,2,20,"I 67","","",FALSE,"OE","q",589,"oe","I","7","o","o",TRUE,1
"107","CVOE updated",1001,1,2,21,"S 13","","",TRUE,"OE","q",649,"oe","S","3","o","o",TRUE,1
"108","CVOE updated",1001,1,2,22,"P 78","","",FALSE,"OE","p",787,"oe","P","8","e","e",TRUE,1
"109","CVOE updated",1001,1,2,23,"I 15","","",FALSE,"OE","q",672,"oe","I","5","o","o",TRUE,1
"110","CVOE updated",1001,1,2,24,"D 27","","",TRUE,"OE","q",673,"oe","D","7","o","o",TRUE,1
"111","CVOE updated",1001,1,2,25,"O 94","","",TRUE,"OE","p",714,"oe","O","4","e","e",TRUE,1
"112","CVOE updated",1001,1,2,26,"A 65","","",FALSE,"OE","q",690,"oe","A","5","o","o",TRUE,1
"113","CVOE updated",1001,1,2,27,"I 42","","",TRUE,"OE","p",546,"oe","I","2","e","e",TRUE,1
"114","CVOE updated",1001,1,2,28,"E 25","","",FALSE,"OE","q",680,"oe","E","5","o","o",TRUE,1
"115","CVOE updated",1001,1,2,29,"H 49","","",TRUE,"OE","q",745,"oe","H","9","o","o",TRUE,1
"116","CVOE updated",1001,1,2,30,"S 18","","",FALSE,"OE","p",1271,"oe","S","8","e","e",TRUE,1
"117","CVOE updated",1001,1,2,31,"H 51","","",TRUE,"OE","q",1393,"oe","H","1","o","o",TRUE,1
"118","CVOE updated",1001,1,2,32,"U 14","","",TRUE,"OE","p",677,"oe","U","4","e","e",TRUE,1
"119","CVOE updated",1001,1,2,33,"E 02","","",TRUE,"OE","p",526,"oe","E","2","e","e",TRUE,1
"120","CVOE updated",1001,1,2,34,"J 26","","",FALSE,"OE","p",532,"oe","J","6","e","e",TRUE,1
"121","CVOE updated",1001,1,2,35,"D 24","","",FALSE,"OE","p",515,"oe","D","4","e","e",TRUE,1
"122","CVOE updated",1001,1,2,36,"O 50","","",TRUE,"OE","p",618,"oe","O","0","e","e",TRUE,1
"123","CVOE updated",1001,1,2,37,"U 16","","",TRUE,"OE","p",605,"oe","U","6","e","e",TRUE,1
"124","CVOE updated",1001,1,2,38,"O 15","","",FALSE,"OE","q",801,"oe","O","5","o","o",TRUE,1
"125","CVOE updated",1001,1,2,39,"D 32","","",FALSE,"OE","p",941,"oe","D","2","e","e",TRUE,1
"126","CVOE updated",1001,1,2,40,"S 67","","",TRUE,"OE","q",620,"oe","S","7","o","o",TRUE,1
"127","CVOE updated",1001,1,2,41,"J 74","","",FALSE,"OE","p",1095,"oe","J","4","e","e",TRUE,1
"128","CVOE updated",1001,1,2,42,"D 92","","",FALSE,"OE","p",600,"oe","D","2","e","e",TRUE,1
"129","CVOE updated",1001,1,2,43,"A 65","","",FALSE,"OE","q",644,"oe","A","5","o","o",TRUE,1
"130","CVOE updated",1001,1,2,44,"I 87","","",FALSE,"OE","q",558,"oe","I","7","o","o",TRUE,1
"131","CVOE updated",1001,1,2,45,"H 61","","",TRUE,"OE","q",643,"oe","H","1","o","o",TRUE,1
"132","CVOE updated",1001,1,2,46,"E 59","","",FALSE,"OE","q",517,"oe","E","9","o","o",TRUE,1
"133","CVOE updated",1001,1,2,47,"I 33","","",FALSE,"OE","q",605,"oe","I","3","o","o",TRUE,1
"134","CVOE updated",1001,1,2,48,"O 90","","",TRUE,"OE","p",793,"oe","O","0","e","e",TRUE,1
"135","CVOE updated",1001,1,2,49,"U 51","","",FALSE,"OE","q",901,"oe","U","1","o","o",TRUE,1
"136","CVOE updated",1001,1,2,50,"A 10","","",TRUE,"OE","p",869,"oe","A","0","e","e",TRUE,1
"137","CVOE updated",1001,1,2,51,"E 50","","",TRUE,"OE","p",686,"oe","E","0","e","e",TRUE,1
"138","CVOE updated",1001,1,2,52,"D 92","","",FALSE,"OE","p",527,"oe","D","2","e","e",TRUE,1
"139","CVOE updated",1001,1,2,53,"E 60","","",TRUE,"OE","p",573,"oe","E","0","e","e",TRUE,1
"140","CVOE updated",1001,1,2,54,"A 95","","",FALSE,"OE","q",715,"oe","A","5","o","o",TRUE,1
"141","CVOE updated",1001,1,2,55,"E 64","","",TRUE,"OE","p",842,"oe","E","4","e","e",TRUE,1
"142","CVOE updated",1001,1,2,56,"P 20","","",FALSE,"OE","p",788,"oe","P","0","e","e",TRUE,1
"143","CVOE updated",1001,1,2,57,"S 06","","",FALSE,"OE","p",681,"oe","S","6","e","e",TRUE,1
"144","CVOE updated",1001,1,2,58,"P 64","","",FALSE,"OE","p",624,"oe","P","4","e","e",TRUE,1
"145","CVOE updated",1001,1,2,59,"U 70","","",TRUE,"OE","p",660,"oe","U","0","e","e",TRUE,1
"146","CVOE updated",1001,1,2,60,"S 16","","",FALSE,"OE","p",613,"oe","S","6","e","e",TRUE,1
"147","CVOE updated",1001,1,2,61,"E 35","","",FALSE,"OE","q",760,"oe","E","5","o","o",TRUE,1
"148","CVOE updated",1001,1,2,62,"I 93","","",FALSE,"OE","q",789,"oe","I","3","o","o",TRUE,1
"149","CVOE updated",1001,1,2,63,"D 63","","",TRUE,"OE","q",562,"oe","D","3","o","o",TRUE,1
"150","CVOE updated",1001,1,2,64,"U 89","","",FALSE,"OE","q",655,"oe","U","9","o","o",TRUE,1
"151","CVOE updated",1001,1,2,65,"E 91","","",FALSE,"OE","q",649,"oe","E","1","o","o",TRUE,1
"152","CVOE updated",1001,1,2,66,"A 12","","",TRUE,"OE","p",755,"oe","A","2","e","e",TRUE,1
"153","CVOE updated",1001,1,2,67,"P 56","","",FALSE,"OE","p",985,"oe","P","6","e","e",TRUE,1
"154","CVOE updated",1001,1,2,68,"S 65","","",TRUE,"OE","q",758,"oe","S","5","o","o",TRUE,1
"155","CVOE updated",1001,1,2,69,"P 07","","",TRUE,"OE","q",883,"oe","P","7","o","o",TRUE,1
"156","CVOE updated",1001,1,2,70,"I 77","","",FALSE,"OE","q",548,"oe","I","7","o","o",TRUE,1
"157","CVOE updated",1001,1,2,71,"J 19","","",TRUE,"OE","q",634,"oe","J","9","o","o",TRUE,1
"158","CVOE updated",1001,1,2,72,"O 59","","",FALSE,"OE","q",644,"oe","O","9","o","o",TRUE,1
"159","CVOE updated",1001,1,2,73,"J 15","","",TRUE,"OE","q",702,"oe","J","5","o","o",TRUE,1
"160","CVOE updated",1001,1,2,74,"I 89","","",FALSE,"OE","q",910,"oe","I","9","o","o",TRUE,1
"161","CVOE updated",1001,1,2,75,"O 97","","",FALSE,"OE","q",750,"oe","O","7","o","o",TRUE,1
"162","CVOE updated",1001,1,2,76,"A 92","","",TRUE,"OE","p",868,"oe","A","2","e","e",TRUE,1
"163","CVOE updated",1001,1,2,77,"J 90","","",FALSE,"OE","p",565,"oe","J","0","e","e",TRUE,1
"164","CVOE updated",1001,1,2,78,"H 65","","",TRUE,"OE","q",763,"oe","H","5","o","o",TRUE,1
"165","CVOE updated",1001,1,2,79,"H 17","","",TRUE,"OE","q",648,"oe","H","7","o","o",TRUE,1
"166","CVOE updated",1001,1,2,80,"S 26","","",FALSE,"OE","p",690,"oe","S","6","e","e",TRUE,1
"167","CVOE updated",1001,1,2,81,"D 56","","",FALSE,"OE","p",507,"oe","D","6","e","e",TRUE,1
"168","CVOE updated",1001,1,2,82,"I 91","","",FALSE,"OE","q",738,"oe","I","1","o","o",TRUE,1
"169","CVOE updated",1001,1,2,83,"J 11","","",TRUE,"OE","q",673,"oe","J","1","o","o",TRUE,1
"170","CVOE updated",1001,1,2,84,"O 28","","",TRUE,"OE","p",1050,"oe","O","8","e","e",TRUE,1
"171","CVOE updated",1001,1,2,85,"H 29","","",TRUE,"OE","q",685,"oe","H","9","o","o",TRUE,1
"172","CVOE updated",1001,1,2,86,"J 25","","",TRUE,"OE","q",813,"oe","J","5","o","o",TRUE,1
"173","CVOE updated",1001,1,2,87,"A 73","","",FALSE,"OE","q",521,"oe","A","3","o","o",TRUE,1
"174","CVOE updated",1001,1,2,88,"J 63","","",TRUE,"OE","q",552,"oe","J","3","o","o",TRUE,1
"175","CVOE updated",1001,1,2,89,"U 84","","",TRUE,"OE","p",758,"oe","U","4","e","e",TRUE,1
"176","CVOE updated",1001,1,2,90,"A 58","","",TRUE,"OE","p",547,"oe","A","8","e","e",TRUE,1
"177","CVOE updated",1001,1,2,91,"S 43","","",TRUE,"OE","q",681,"oe","S","3","o","o",TRUE,1
"178","CVOE updated",1001,1,2,92,"H 54","","",FALSE,"OE","p",794,"oe","H","4","e","e",TRUE,1
"179","CVOE updated",1001,1,2,93,"D 4","","",FALSE,"OE","p",798,"oe","D","","o","e",FALSE,0
"180","CVOE updated",1001,1,2,94,"J 75","","",TRUE,"OE","q",786,"oe","J","5","o","o",TRUE,1
"181","CVOE updated",1001,1,2,95,"D 19","","",TRUE,"OE","q",1327,"oe","D","9","o","o",TRUE,1
"182","CVOE updated",1001,1,2,96,"J 38","","",FALSE,"OE","p",1046,"oe","J","8","e","e",TRUE,1
"183","CVOE updated",1001,1,2,97,"I 56","","",TRUE,"OE","p",1232,"oe","I","6","e","e",TRUE,1
"184","CVOE updated",1001,1,2,98,"P 87","","",TRUE,"OE","q",763,"oe","P","7","o","o",TRUE,1
"185","CVOE updated",1001,1,2,99,"O 80","","",TRUE,"OE","p",1008,"oe","O","0","e","e",TRUE,1
"186","CVOE updated",1001,1,2,100,"U 60","","",TRUE,"OE","p",676,"oe","U","0","e","e",TRUE,1
"187","CVOE updated",1001,1,2,101,"P 48","","",FALSE,"OE","p",844,"oe","P","8","e","e",TRUE,1
"188","CVOE updated",1001,1,2,102,"H 64","","",FALSE,"OE","p",702,"oe","H","4","e","e",TRUE,1
"189","CVOE updated",1001,1,2,103,"A 13","","",FALSE,"OE","q",726,"oe","A","3","o","o",TRUE,1
"190","CVOE updated",1001,1,2,104,"H 68","","",FALSE,"OE","p",813,"oe","H","8","e","e",TRUE,1
"191","CVOE updated",1001,1,2,105,"E 16","","",TRUE,"OE","p",696,"oe","E","6","e","e",TRUE,1
"192","CVOE updated",1001,1,2,106,"S 71","","",TRUE,"OE","q",528,"oe","S","1","o","o",TRUE,1
"433","CVOE_C",2003,1,1,11,"A 24","","",TRUE,"OE","p",14365,"oe","A","4","e","e",TRUE,1
"434","CVOE_C",2003,1,1,12,"O 83","","",FALSE,"OE","q",4426,"oe","O","3","o","o",TRUE,1
"435","CVOE_C",2003,1,1,13,"H 55","","",TRUE,"OE","q",2678,"oe","H","5","o","o",TRUE,1
"436","CVOE_C",2003,1,1,14,"P 10","","",FALSE,"OE","p",2056,"oe","P","0","e","e",TRUE,1
"437","CVOE_C",2003,1,1,15,"D 30","","",FALSE,"OE","p",3555,"oe","D","0","e","e",TRUE,1
"438","CVOE_C",2003,1,1,16,"U 62","","",TRUE,"OE","p",4066,"oe","U","2","e","e",TRUE,1
"439","CVOE_C",2003,1,1,17,"P 95","","",TRUE,"OE","q",2062,"oe","P","5","o","o",TRUE,1
"440","CVOE_C",2003,1,1,18,"U 06","","",TRUE,"OE","p",5272,"oe","U","6","e","e",TRUE,1
"441","CVOE_C",2003,1,1,19,"E 75","","",FALSE,"OE","q",2956,"oe","E","5","o","o",TRUE,1
"442","CVOE_C",2003,1,1,20,"I 67","","",FALSE,"OE","q",2019,"oe","I","7","o","o",TRUE,1
"443","CVOE_C",2003,1,1,21,"S 13","","",TRUE,"OE","q",2351,"oe","S","3","o","o",TRUE,1
"444","CVOE_C",2003,1,1,22,"P 78","","",FALSE,"OE","p",4190,"oe","P","8","e","e",TRUE,1
"445","CVOE_C",2003,1,1,23,"I 15","","",FALSE,"OE","q",1340,"oe","I","5","o","o",TRUE,1
"446","CVOE_C",2003,1,1,24,"D 27","","",TRUE,"OE","q",1331,"oe","D","7","o","o",TRUE,1
"447","CVOE_C",2003,1,1,25,"O 94","","",TRUE,"OE","q",3250,"oe","O","4","e","o",FALSE,0
"448","CVOE_C",2003,1,1,26,"A 65","","",FALSE,"OE","q",2949,"oe","A","5","o","o",TRUE,1
"449","CVOE_C",2003,1,1,27,"I 42","","",TRUE,"OE","p",2188,"oe","I","2","e","e",TRUE,1
"450","CVOE_C",2003,1,1,28,"E 25","","",FALSE,"OE","q",1466,"oe","E","5","o","o",TRUE,1
"451","CVOE_C",2003,1,1,29,"H 49","","",TRUE,"OE","q",1643,"oe","H","9","o","o",TRUE,1
"452","CVOE_C",2003,1,1,30,"S 18","","",FALSE,"OE","p",3054,"oe","S","8","e","e",TRUE,1
"453","CVOE_C",2003,1,1,31,"H 51","","",TRUE,"OE","q",1369,"oe","H","1","o","o",TRUE,1
"454","CVOE_C",2003,1,1,32,"U 14","","",TRUE,"OE","p",1807,"oe","U","4","e","e",TRUE,1
"455","CVOE_C",2003,1,1,33,"E 02","","",TRUE,"OE","p",2388,"oe","E","2","e","e",TRUE,1
"456","CVOE_C",2003,1,1,34,"J 26","","",FALSE,"OE","p",1281,"oe","J","6","e","e",TRUE,1
"457","CVOE_C",2003,1,1,35,"D 24","","",FALSE,"OE","p",1154,"oe","D","4","e","e",TRUE,1
"458","CVOE_C",2003,1,1,36,"O 50","","",TRUE,"OE","p",2200,"oe","O","0","e","e",TRUE,1
"459","CVOE_C",2003,1,1,37,"U 16","","",TRUE,"OE","p",1741,"oe","U","6","e","e",TRUE,1
"460","CVOE_C",2003,1,1,38,"O 15","","",FALSE,"OE","q",1604,"oe","O","5","o","o",TRUE,1
"461","CVOE_C",2003,1,1,39,"D 32","","",FALSE,"OE","q",1488,"oe","D","2","e","o",FALSE,0
"462","CVOE_C",2003,1,1,40,"S 67","","",TRUE,"OE","q",9033,"oe","S","7","o","o",TRUE,1
"463","CVOE_C",2003,1,1,41,"J 74","","",FALSE,"OE","p",5256,"oe","J","4","e","e",TRUE,1
"464","CVOE_C",2003,1,1,42,"D 92","","",FALSE,"OE","p",7844,"oe","D","2","e","e",TRUE,1
"465","CVOE_C",2003,1,1,43,"A 65","","",FALSE,"OE","q",1874,"oe","A","5","o","o",TRUE,1
"466","CVOE_C",2003,1,1,44,"I 87","","",FALSE,"OE","q",2124,"oe","I","7","o","o",TRUE,1
"467","CVOE_C",2003,1,1,45,"H 61","","",TRUE,"OE","q",1636,"oe","H","1","o","o",TRUE,1
"468","CVOE_C",2003,1,1,46,"E 59","","",FALSE,"OE","q",1799,"oe","E","9","o","o",TRUE,1
"469","CVOE_C",2003,1,1,47,"I 33","","",FALSE,"OE","q",7483,"oe","I","3","o","o",TRUE,1
"470","CVOE_C",2003,1,1,48,"O 90","","",TRUE,"OE","p",5391,"oe","O","0","e","e",TRUE,1
"471","CVOE_C",2003,1,1,49,"U 51","","",FALSE,"OE","q",1493,"oe","U","1","o","o",TRUE,1
"472","CVOE_C",2003,1,1,50,"A 10","","",TRUE,"OE","p",1910,"oe","A","0","e","e",TRUE,1
"473","CVOE_C",2003,1,1,51,"E 50","","",TRUE,"OE","p",1350,"oe","E","0","e","e",TRUE,1
"474","CVOE_C",2003,1,1,52,"D 92","","",FALSE,"OE","q",2396,"oe","D","2","e","o",FALSE,0
"475","CVOE_C",2003,1,1,53,"E 60","","",TRUE,"OE","p",1697,"oe","E","0","e","e",TRUE,1
"476","CVOE_C",2003,1,1,54,"A 95","","",FALSE,"OE","q",2898,"oe","A","5","o","o",TRUE,1
"477","CVOE_C",2003,1,1,55,"E 64","","",TRUE,"OE","p",7619,"oe","E","4","e","e",TRUE,1
"478","CVOE_C",2003,1,1,56,"P 20","","",FALSE,"OE","p",1362,"oe","P","0","e","e",TRUE,1
"479","CVOE_C",2003,1,1,57,"S 06","","",FALSE,"OE","p",1376,"oe","S","6","e","e",TRUE,1
"480","CVOE_C",2003,1,1,58,"P 64","","",FALSE,"OE","p",1285,"oe","P","4","e","e",TRUE,1
"481","CVOE_C",2003,1,1,59,"U 70","","",TRUE,"OE","p",1342,"oe","U","0","e","e",TRUE,1
"482","CVOE_C",2003,1,1,60,"S 16","","",FALSE,"OE","p",1260,"oe","S","6","e","e",TRUE,1
"483","CVOE_C",2003,1,1,61,"E 35","","",FALSE,"OE","q",1902,"oe","E","5","o","o",TRUE,1
"484","CVOE_C",2003,1,1,62,"I 93","","",FALSE,"OE","q",2542,"oe","I","3","o","o",TRUE,1
"485","CVOE_C",2003,1,1,63,"D 63","","",TRUE,"OE","q",2077,"oe","D","3","o","o",TRUE,1
"486","CVOE_C",2003,1,1,64,"U 89","","",FALSE,"OE","q",2063,"oe","U","9","o","o",TRUE,1
"487","CVOE_C",2003,1,1,65,"E 91","","",FALSE,"OE","q",1513,"oe","E","1","o","o",TRUE,1
"488","CVOE_C",2003,1,1,66,"A 12","","",TRUE,"OE","p",1688,"oe","A","2","e","e",TRUE,1
"489","CVOE_C",2003,1,1,67,"P 56","","",FALSE,"OE","p",4426,"oe","P","6","e","e",TRUE,1
"490","CVOE_C",2003,1,1,68,"S 65","","",TRUE,"OE","q",1286,"oe","S","5","o","o",TRUE,1
"491","CVOE_C",2003,1,1,69,"P 07","","",TRUE,"OE","q",1455,"oe","P","7","o","o",TRUE,1
"492","CVOE_C",2003,1,1,70,"I 77","","",FALSE,"OE","q",1066,"oe","I","7","o","o",TRUE,1
"493","CVOE_C",2003,1,1,71,"J 19","","",TRUE,"OE","q",1715,"oe","J","9","o","o",TRUE,1
"494","CVOE_C",2003,1,1,72,"O 59","","",FALSE,"OE","q",1443,"oe","O","9","o","o",TRUE,1
"495","CVOE_C",2003,1,1,73,"J 15","","",TRUE,"OE","q",1126,"oe","J","5","o","o",TRUE,1
"496","CVOE_C",2003,1,1,74,"I 89","","",FALSE,"OE","q",1596,"oe","I","9","o","o",TRUE,1
"497","CVOE_C",2003,1,1,75,"O 97","","",FALSE,"OE","q",1225,"oe","O","7","o","o",TRUE,1
"498","CVOE_C",2003,1,1,76,"A 92","","",TRUE,"OE","q",2284,"oe","A","2","e","o",FALSE,0
"499","CVOE_C",2003,1,1,77,"J 90","","",FALSE,"OE","p",3853,"oe","J","0","e","e",TRUE,1
"500","CVOE_C",2003,1,1,78,"H 65","","",TRUE,"OE","q",1569,"oe","H","5","o","o",TRUE,1
"501","CVOE_C",2003,1,1,79,"H 17","","",TRUE,"OE","q",863,"oe","H","7","o","o",TRUE,1
"502","CVOE_C",2003,1,1,80,"S 26","","",FALSE,"OE","p",1752,"oe","S","6","e","e",TRUE,1
"503","CVOE_C",2003,1,1,81,"D 56","","",FALSE,"OE","q",3007,"oe","D","6","e","o",FALSE,0
"504","CVOE_C",2003,1,1,82,"I 91","","",FALSE,"OE","q",1948,"oe","I","1","o","o",TRUE,1
"505","CVOE_C",2003,1,1,83,"J 11","","",TRUE,"OE","q",1474,"oe","J","1","o","o",TRUE,1
"506","CVOE_C",2003,1,1,84,"O 28","","",TRUE,"OE","p",2235,"oe","O","8","e","e",TRUE,1
"507","CVOE_C",2003,1,1,85,"H 29","","",TRUE,"OE","q",1775,"oe","H","9","o","o",TRUE,1
"508","CVOE_C",2003,1,1,86,"J 25","","",TRUE,"OE","p",1956,"oe","J","5","o","e",FALSE,0
"509","CVOE_C",2003,1,1,87,"A 73","","",FALSE,"OE","q",1819,"oe","A","3","o","o",TRUE,1
"510","CVOE_C",2003,1,1,88,"J 63","","",TRUE,"OE","q",1679,"oe","J","3","o","o",TRUE,1
"511","CVOE_C",2003,1,1,89,"U 84","","",TRUE,"OE","p",1592,"oe","U","4","e","e",TRUE,1
"512","CVOE_C",2003,1,1,90,"A 58","","",TRUE,"OE","p",4252,"oe","A","8","e","e",TRUE,1
"513","CVOE_C",2003,1,1,91,"S 43","","",TRUE,"OE","q",1624,"oe","S","3","o","o",TRUE,1
"514","CVOE_C",2003,1,1,92,"H 54","","",FALSE,"OE","p",2587,"oe","H","4","e","e",TRUE,1
"515","CVOE_C",2003,1,1,93,"D 4","","",FALSE,"OE","p",729,"oe","D","","o","e",FALSE,0
"516","CVOE_C",2003,1,1,94,"J 75","","",TRUE,"OE","q",3568,"oe","J","5","o","o",TRUE,1
"517","CVOE_C",2003,1,1,95,"D 19","","",TRUE,"OE","q",2455,"oe","D","9","o","o",TRUE,1
"518","CVOE_C",2003,1,1,96,"J 38","","",FALSE,"OE","p",8202,"oe","J","8","e","e",TRUE,1
"519","CVOE_C",2003,1,1,97,"I 56","","",TRUE,"OE","q",4314,"oe","I","6","e","o",FALSE,0
"520","CVOE_C",2003,1,1,98,"P 87","","",TRUE,"OE","q",1819,"oe","P","7","o","o",TRUE,1
"521","CVOE_C",2003,1,1,99,"O 80","","",TRUE,"OE","p",2399,"oe","O","0","e","e",TRUE,1
"522","CVOE_C",2003,1,1,100,"U 60","","",TRUE,"OE","p",676,"oe","U","0","e","e",TRUE,1
"523","CVOE_C",2003,1,1,101,"P 48","","",FALSE,"OE","p",973,"oe","P","8","e","e",TRUE,1
"524","CVOE_C",2003,1,1,102,"H 64","","",FALSE,"OE","p",1210,"oe","H","4","e","e",TRUE,1
"525","CVOE_C",2003,1,1,103,"A 13","","",FALSE,"OE","q",1334,"oe","A","3","o","o",TRUE,1
"526","CVOE_C",2003,1,1,104,"H 68","","",FALSE,"OE","p",2245,"oe","H","8","e","e",TRUE,1
"527","CVOE_C",2003,1,1,105,"E 16","","",TRUE,"OE","p",927,"oe","E","6","e","e",TRUE,1
"528","CVOE_C",2003,1,1,106,"S 71","","",TRUE,"OE","q",1190,"oe","S","1","o","o",TRUE,1
"961","CVOE updated",2001,1,2,11,"A 24","","",TRUE,"OE","q",18535,"oe","A","4","e","o",FALSE,0
"962","CVOE updated",2001,1,2,12,"O 83","","",FALSE,"OE","p",5667,"oe","O","3","o","e",FALSE,0
"963","CVOE updated",2001,1,2,13,"H 55","","",TRUE,"OE","q",4456,"oe","H","5","o","o",TRUE,1
"964","CVOE updated",2001,1,2,14,"P 10","","",FALSE,"OE","q",13966,"oe","P","0","e","o",FALSE,0
"965","CVOE updated",2001,1,2,15,"D 30","","",FALSE,"OE","p",3037,"oe","D","0","e","e",TRUE,1
"966","CVOE updated",2001,1,2,16,"U 62","","",TRUE,"OE","q",4999,"oe","U","2","e","o",FALSE,0
"967","CVOE updated",2001,1,2,17,"P 95","","",TRUE,"OE","p",3282,"oe","P","5","o","e",FALSE,0
"968","CVOE updated",2001,1,2,18,"U 06","","",TRUE,"OE","q",1115,"oe","U","6","e","o",FALSE,0
"969","CVOE updated",2001,1,2,19,"E 75","","",FALSE,"OE","p",4726,"oe","E","5","o","e",FALSE,0
"970","CVOE updated",2001,1,2,20,"I 67","","",FALSE,"OE","q",3511,"oe","I","7","o","o",TRUE,1
"971","CVOE updated",2001,1,2,21,"S 13","","",TRUE,"OE","q",6809,"oe","S","3","o","o",TRUE,1
"972","CVOE updated",2001,1,2,22,"P 78","","",FALSE,"OE","q",5151,"oe","P","8","e","o",FALSE,0
"973","CVOE updated",2001,1,2,23,"I 15","","",FALSE,"OE","p",2070,"oe","I","5","o","e",FALSE,0
"974","CVOE updated",2001,1,2,24,"D 27","","",TRUE,"OE","p",4492,"oe","D","7","o","e",FALSE,0
"975","CVOE updated",2001,1,2,25,"O 94","","",TRUE,"OE","p",3355,"oe","O","4","e","e",TRUE,1
"976","CVOE updated",2001,1,2,26,"A 65","","",FALSE,"OE","q",1083,"oe","A","5","o","o",TRUE,1
"977","CVOE updated",2001,1,2,27,"I 42","","",TRUE,"OE","p",9625,"oe","I","2","e","e",TRUE,1
"978","CVOE updated",2001,1,2,28,"E 25","","",FALSE,"OE","q",5980,"oe","E","5","o","o",TRUE,1
"979","CVOE updated",2001,1,2,29,"H 49","","",TRUE,"OE","p",5900,"oe","H","9","o","e",FALSE,0
"980","CVOE updated",2001,1,2,30,"S 18","","",FALSE,"OE","p",3593,"oe","S","8","e","e",TRUE,1
"981","CVOE updated",2001,1,2,31,"H 51","","",TRUE,"OE","q",3359,"oe","H","1","o","o",TRUE,1
"982","CVOE updated",2001,1,2,32,"U 14","","",TRUE,"OE","q",4652,"oe","U","4","e","o",FALSE,0
"983","CVOE updated",2001,1,2,33,"E 02","","",TRUE,"OE","q",3990,"oe","E","2","e","o",FALSE,0
"984","CVOE updated",2001,1,2,34,"J 26","","",FALSE,"OE","p",5430,"oe","J","6","e","e",TRUE,1
"985","CVOE updated",2001,1,2,35,"D 24","","",FALSE,"OE","q",2965,"oe","D","4","e","o",FALSE,0
"986","CVOE updated",2001,1,2,36,"O 50","","",TRUE,"OE","q",2370,"oe","O","0","e","o",FALSE,0
"987","CVOE updated",2001,1,2,37,"U 16","","",TRUE,"OE","q",2807,"oe","U","6","e","o",FALSE,0
"988","CVOE updated",2001,1,2,38,"O 15","","",FALSE,"OE","q",2106,"oe","O","5","o","o",TRUE,1
"989","CVOE updated",2001,1,2,39,"D 32","","",FALSE,"OE","p",5395,"oe","D","2","e","e",TRUE,1
"990","CVOE updated",2001,1,2,40,"S 67","","",TRUE,"OE","p",5118,"oe","S","7","o","e",FALSE,0
"991","CVOE updated",2001,1,2,41,"J 74","","",FALSE,"OE","q",2893,"oe","J","4","e","o",FALSE,0
"992","CVOE updated",2001,1,2,42,"D 92","","",FALSE,"OE","p",3438,"oe","D","2","e","e",TRUE,1
"993","CVOE updated",2001,1,2,43,"A 65","","",FALSE,"OE","q",4529,"oe","A","5","o","o",TRUE,1
"994","CVOE updated",2001,1,2,44,"I 87","","",FALSE,"OE","q",1126,"oe","I","7","o","o",TRUE,1
"995","CVOE updated",2001,1,2,45,"H 61","","",TRUE,"OE","q",3937,"oe","H","1","o","o",TRUE,1
"996","CVOE updated",2001,1,2,46,"E 59","","",FALSE,"OE","q",1784,"oe","E","9","o","o",TRUE,1
"997","CVOE updated",2001,1,2,47,"I 33","","",FALSE,"OE","q",2456,"oe","I","3","o","o",TRUE,1
"998","CVOE updated",2001,1,2,48,"O 90","","",TRUE,"OE","q",2693,"oe","O","0","e","o",FALSE,0
"999","CVOE updated",2001,1,2,49,"U 51","","",FALSE,"OE","q",5476,"oe","U","1","o","o",TRUE,1
"1000","CVOE updated",2001,1,2,50,"A 10","","",TRUE,"OE","p",11813,"oe","A","0","e","e",TRUE,1
"1001","CVOE updated",2001,1,2,51,"E 50","","",TRUE,"OE","q",8524,"oe","E","0","e","o",FALSE,0
"1002","CVOE updated",2001,1,2,52,"D 92","","",FALSE,"OE","p",2888,"oe","D","2","e","e",TRUE,1
"1003","CVOE updated",2001,1,2,53,"E 60","","",TRUE,"OE","p",7821,"oe","E","0","e","e",TRUE,1
"1004","CVOE updated",2001,1,2,54,"A 95","","",FALSE,"OE","q",4829,"oe","A","5","o","o",TRUE,1
"1005","CVOE updated",2001,1,2,55,"E 64","","",TRUE,"OE","q",6725,"oe","E","4","e","o",FALSE,0
"1006","CVOE updated",2001,1,2,56,"P 20","","",FALSE,"OE","q",3661,"oe","P","0","e","o",FALSE,0
"1007","CVOE updated",2001,1,2,57,"S 06","","",FALSE,"OE","q",5084,"oe","S","6","e","o",FALSE,0
"1008","CVOE updated",2001,1,2,58,"P 64","","",FALSE,"OE","p",4537,"oe","P","4","e","e",TRUE,1
"1009","CVOE updated",2001,1,2,59,"U 70","","",TRUE,"OE","p",8167,"oe","U","0","e","e",TRUE,1
"1010","CVOE updated",2001,1,2,60,"S 16","","",FALSE,"OE","q",6956,"oe","S","6","e","o",FALSE,0
"1011","CVOE updated",2001,1,2,61,"E 35","","",FALSE,"OE","p",6220,"oe","E","5","o","e",FALSE,0
"1012","CVOE updated",2001,1,2,62,"I 93","","",FALSE,"OE","q",4928,"oe","I","3","o","o",TRUE,1
"1013","CVOE updated",2001,1,2,63,"D 63","","",TRUE,"OE","q",3943,"oe","D","3","o","o",TRUE,1
"1014","CVOE updated",2001,1,2,64,"U 89","","",FALSE,"OE","p",2144,"oe","U","9","o","e",FALSE,0
"1015","CVOE updated",2001,1,2,65,"E 91","","",FALSE,"OE","p",2189,"oe","E","1","o","e",FALSE,0
"1016","CVOE updated",2001,1,2,66,"A 12","","",TRUE,"OE","q",5335,"oe","A","2","e","o",FALSE,0
"1017","CVOE updated",2001,1,2,67,"P 56","","",FALSE,"OE","q",4928,"oe","P","6","e","o",FALSE,0
"1018","CVOE updated",2001,1,2,68,"S 65","","",TRUE,"OE","p",5746,"oe","S","5","o","e",FALSE,0
"1019","CVOE updated",2001,1,2,69,"P 07","","",TRUE,"OE","q",1631,"oe","P","7","o","o",TRUE,1
"1020","CVOE updated",2001,1,2,70,"I 77","","",FALSE,"OE","p",4450,"oe","I","7","o","e",FALSE,0
"1021","CVOE updated",2001,1,2,71,"J 19","","",TRUE,"OE","p",4068,"oe","J","9","o","e",FALSE,0
"1022","CVOE updated",2001,1,2,72,"O 59","","",FALSE,"OE","q",4327,"oe","O","9","o","o",TRUE,1
"1023","CVOE updated",2001,1,2,73,"J 15","","",TRUE,"OE","q",5903,"oe","J","5","o","o",TRUE,1
"1024","CVOE updated",2001,1,2,74,"I 89","","",FALSE,"OE","q",4537,"oe","I","9","o","o",TRUE,1
"1025","CVOE updated",2001,1,2,75,"O 97","","",FALSE,"OE","q",7502,"oe","O","7","o","o",TRUE,1
"1026","CVOE updated",2001,1,2,76,"A 92","","",TRUE,"OE","p",1398,"oe","A","2","e","e",TRUE,1
"1027","CVOE updated",2001,1,2,77,"J 90","","",FALSE,"OE","q",2452,"oe","J","0","e","o",FALSE,0
"1028","CVOE updated",2001,1,2,78,"H 65","","",TRUE,"OE","p",2023,"oe","H","5","o","e",FALSE,0
"1029","CVOE updated",2001,1,2,79,"H 17","","",TRUE,"OE","p",2694,"oe","H","7","o","e",FALSE,0
"1030","CVOE updated",2001,1,2,80,"S 26","","",FALSE,"OE","q",6104,"oe","S","6","e","o",FALSE,0
"1031","CVOE updated",2001,1,2,81,"D 56","","",FALSE,"OE","p",7788,"oe","D","6","e","e",TRUE,1
"1032","CVOE updated",2001,1,2,82,"I 91","","",FALSE,"OE","q",1752,"oe","I","1","o","o",TRUE,1
"1033","CVOE updated",2001,1,2,83,"J 11","","",TRUE,"OE","q",2103,"oe","J","1","o","o",TRUE,1
"1034","CVOE updated",2001,1,2,84,"O 28","","",TRUE,"OE","p",6412,"oe","O","8","e","e",TRUE,1
"1035","CVOE updated",2001,1,2,85,"H 29","","",TRUE,"OE","q",3157,"oe","H","9","o","o",TRUE,1
"1036","CVOE updated",2001,1,2,86,"J 25","","",TRUE,"OE","q",3043,"oe","J","5","o","o",TRUE,1
"1037","CVOE updated",2001,1,2,87,"A 73","","",FALSE,"OE","q",2657,"oe","A","3","o","o",TRUE,1
"1038","CVOE updated",2001,1,2,88,"J 63","","",TRUE,"OE","q",1597,"oe","J","3","o","o",TRUE,1
"1039","CVOE updated",2001,1,2,89,"U 84","","",TRUE,"OE","p",1902,"oe","U","4","e","e",TRUE,1
"1040","CVOE updated",2001,1,2,90,"A 58","","",TRUE,"OE","p",2887,"oe","A","8","e","e",TRUE,1
"1041","CVOE updated",2001,1,2,91,"S 43","","",TRUE,"OE","q",4412,"oe","S","3","o","o",TRUE,1
"1042","CVOE updated",2001,1,2,92,"H 54","","",FALSE,"OE","q",4259,"oe","H","4","e","o",FALSE,0
"1043","CVOE updated",2001,1,2,93,"D 4","","",FALSE,"OE","p",4688,"oe","D","","o","e",FALSE,0
"1044","CVOE updated",2001,1,2,94,"J 75","","",TRUE,"OE","p",6015,"oe","J","5","o","e",FALSE,0
"1045","CVOE updated",2001,1,2,95,"D 19","","",TRUE,"OE","q",2612,"oe","D","9","o","o",TRUE,1
"1046","CVOE updated",2001,1,2,96,"J 38","","",FALSE,"OE","q",4225,"oe","J","8","e","o",FALSE,0
"1047","CVOE updated",2001,1,2,97,"I 56","","",TRUE,"OE","p",3278,"oe","I","6","e","e",TRUE,1
"1048","CVOE updated",2001,1,2,98,"P 87","","",TRUE,"OE","q",2930,"oe","P","7","o","o",TRUE,1
"1049","CVOE updated",2001,1,2,99,"O 80","","",TRUE,"OE","p",4618,"oe","O","0","e","e",TRUE,1
"1050","CVOE updated",2001,1,2,100,"U 60","","",TRUE,"OE","p",9435,"oe","U","0","e","e",TRUE,1
"1051","CVOE updated",2001,1,2,101,"P 48","","",FALSE,"OE","p",4447,"oe","P","8","e","e",TRUE,1
"1052","CVOE updated",2001,1,2,102,"H 64","","",FALSE,"OE","p",4183,"oe","H","4","e","e",TRUE,1
"1053","CVOE updated",2001,1,2,103,"A 13","","",FALSE,"OE","q",3755,"oe","A","3","o","o",TRUE,1
"1054","CVOE updated",2001,1,2,104,"H 68","","",FALSE,"OE","p",7349,"oe","H","8","e","e",TRUE,1
"1055","CVOE updated",2001,1,2,105,"E 16","","",TRUE,"OE","p",3079,"oe","E","6","e","e",TRUE,1
"1056","CVOE updated",2001,1,2,106,"S 71","","",TRUE,"OE","q",3912,"oe","S","1","o","o",TRUE,1
"1297","CVOE_B",1002,1,1,11,"A 24","","",TRUE,"OE","p",8461,"oe","A","4","e","e",TRUE,1
"1298","CVOE_B",1002,1,1,12,"O 83","","",FALSE,"OE","q",1323,"oe","O","3","o","o",TRUE,1
"1299","CVOE_B",1002,1,1,13,"H 55","","",TRUE,"OE","p",1441,"oe","H","5","o","e",FALSE,0
"1300","CVOE_B",1002,1,1,14,"P 10","","",FALSE,"OE","p",1442,"oe","P","0","e","e",TRUE,1
"1301","CVOE_B",1002,1,1,15,"D 30","","",FALSE,"OE","p",1035,"oe","D","0","e","e",TRUE,1
"1302","CVOE_B",1002,1,1,16,"U 62","","",TRUE,"OE","p",929,"oe","U","2","e","e",TRUE,1
"1303","CVOE_B",1002,1,1,17,"P 95","","",TRUE,"OE","q",1235,"oe","P","5","o","o",TRUE,1
"1304","CVOE_B",1002,1,1,18,"U 06","","",TRUE,"OE","p",850,"oe","U","6","e","e",TRUE,1
"1305","CVOE_B",1002,1,1,19,"E 75","","",FALSE,"OE","q",849,"oe","E","5","o","o",TRUE,1
"1306","CVOE_B",1002,1,1,20,"I 67","","",FALSE,"OE","q",1005,"oe","I","7","o","o",TRUE,1
"1307","CVOE_B",1002,1,1,21,"S 13","","",TRUE,"OE","q",893,"oe","S","3","o","o",TRUE,1
"1308","CVOE_B",1002,1,1,22,"P 78","","",FALSE,"OE","p",998,"oe","P","8","e","e",TRUE,1
"1309","CVOE_B",1002,1,1,23,"I 15","","",FALSE,"OE","q",886,"oe","I","5","o","o",TRUE,1
"1310","CVOE_B",1002,1,1,24,"D 27","","",TRUE,"OE","q",1361,"oe","D","7","o","o",TRUE,1
"1311","CVOE_B",1002,1,1,25,"O 94","","",TRUE,"OE","p",881,"oe","O","4","e","e",TRUE,1
"1312","CVOE_B",1002,1,1,26,"A 65","","",FALSE,"OE","q",1004,"oe","A","5","o","o",TRUE,1
"1313","CVOE_B",1002,1,1,27,"I 42","","",TRUE,"OE","p",1047,"oe","I","2","e","e",TRUE,1
"1314","CVOE_B",1002,1,1,28,"E 25","","",FALSE,"OE","q",807,"oe","E","5","o","o",TRUE,1
"1315","CVOE_B",1002,1,1,29,"H 49","","",TRUE,"OE","q",1091,"oe","H","9","o","o",TRUE,1
"1316","CVOE_B",1002,1,1,30,"S 18","","",FALSE,"OE","p",1052,"oe","S","8","e","e",TRUE,1
"1317","CVOE_B",1002,1,1,31,"H 51","","",TRUE,"OE","q",694,"oe","H","1","o","o",TRUE,1
"1318","CVOE_B",1002,1,1,32,"U 14","","",TRUE,"OE","p",1079,"oe","U","4","e","e",TRUE,1
"1319","CVOE_B",1002,1,1,33,"E 02","","",TRUE,"OE","p",844,"oe","E","2","e","e",TRUE,1
"1320","CVOE_B",1002,1,1,34,"J 26","","",FALSE,"OE","p",843,"oe","J","6","e","e",TRUE,1
"1321","CVOE_B",1002,1,1,35,"D 24","","",FALSE,"OE","p",842,"oe","D","4","e","e",TRUE,1
"1322","CVOE_B",1002,1,1,36,"O 50","","",TRUE,"OE","p",997,"oe","O","0","e","e",TRUE,1
"1323","CVOE_B",1002,1,1,37,"U 16","","",TRUE,"OE","p",842,"oe","U","6","e","e",TRUE,1
"1324","CVOE_B",1002,1,1,38,"O 15","","",FALSE,"OE","q",1232,"oe","O","5","o","o",TRUE,1
"1325","CVOE_B",1002,1,1,39,"D 32","","",FALSE,"OE","p",847,"oe","D","2","e","e",TRUE,1
"1326","CVOE_B",1002,1,1,40,"S 67","","",TRUE,"OE","q",1042,"oe","S","7","o","o",TRUE,1
"1327","CVOE_B",1002,1,1,41,"J 74","","",FALSE,"OE","p",1232,"oe","J","4","e","e",TRUE,1
"1328","CVOE_B",1002,1,1,42,"D 92","","",FALSE,"OE","p",1669,"oe","D","2","e","e",TRUE,1
"1329","CVOE_B",1002,1,1,43,"A 65","","",FALSE,"OE","q",809,"oe","A","5","o","o",TRUE,1
"1330","CVOE_B",1002,1,1,44,"I 87","","",FALSE,"OE","q",1233,"oe","I","7","o","o",TRUE,1
"1331","CVOE_B",1002,1,1,45,"H 61","","",TRUE,"OE","q",769,"oe","H","1","o","o",TRUE,1
"1332","CVOE_B",1002,1,1,46,"E 59","","",FALSE,"OE","q",931,"oe","E","9","o","o",TRUE,1
"1333","CVOE_B",1002,1,1,47,"I 33","","",FALSE,"OE","q",924,"oe","I","3","o","o",TRUE,1
"1334","CVOE_B",1002,1,1,48,"O 90","","",TRUE,"OE","p",739,"oe","O","0","e","e",TRUE,1
"1335","CVOE_B",1002,1,1,49,"U 51","","",FALSE,"OE","q",699,"oe","U","1","o","o",TRUE,1
"1336","CVOE_B",1002,1,1,50,"A 10","","",TRUE,"OE","p",1164,"oe","A","0","e","e",TRUE,1
"1337","CVOE_B",1002,1,1,51,"E 50","","",TRUE,"OE","p",610,"oe","E","0","e","e",TRUE,1
"1338","CVOE_B",1002,1,1,52,"D 92","","",FALSE,"OE","p",608,"oe","D","2","e","e",TRUE,1
"1339","CVOE_B",1002,1,1,53,"E 60","","",TRUE,"OE","p",803,"oe","E","0","e","e",TRUE,1
"1340","CVOE_B",1002,1,1,54,"A 95","","",FALSE,"OE","q",1165,"oe","A","5","o","o",TRUE,1
"1341","CVOE_B",1002,1,1,55,"E 64","","",TRUE,"OE","p",808,"oe","E","4","e","e",TRUE,1
"1342","CVOE_B",1002,1,1,56,"P 20","","",FALSE,"OE","p",1075,"oe","P","0","e","e",TRUE,1
"1343","CVOE_B",1002,1,1,57,"S 06","","",FALSE,"OE","p",1036,"oe","S","6","e","e",TRUE,1
"1344","CVOE_B",1002,1,1,58,"P 64","","",FALSE,"OE","p",673,"oe","P","4","e","e",TRUE,1
"1345","CVOE_B",1002,1,1,59,"U 70","","",TRUE,"OE","p",778,"oe","U","0","e","e",TRUE,1
"1346","CVOE_B",1002,1,1,60,"S 16","","",FALSE,"OE","p",883,"oe","S","6","e","e",TRUE,1
"1347","CVOE_B",1002,1,1,61,"E 35","","",FALSE,"OE","q",732,"oe","E","5","o","o",TRUE,1
"1348","CVOE_B",1002,1,1,62,"I 93","","",FALSE,"OE","q",691,"oe","I","3","o","o",TRUE,1
"1349","CVOE_B",1002,1,1,63,"D 63","","",TRUE,"OE","q",763,"oe","D","3","o","o",TRUE,1
"1350","CVOE_B",1002,1,1,64,"U 89","","",FALSE,"OE","q",808,"oe","U","9","o","o",TRUE,1
"1351","CVOE_B",1002,1,1,65,"E 91","","",FALSE,"OE","q",762,"oe","E","1","o","o",TRUE,1
"1352","CVOE_B",1002,1,1,66,"A 12","","",TRUE,"OE","p",650,"oe","A","2","e","e",TRUE,1
"1353","CVOE_B",1002,1,1,67,"P 56","","",FALSE,"OE","p",1084,"oe","P","6","e","e",TRUE,1
"1354","CVOE_B",1002,1,1,68,"S 65","","",TRUE,"OE","q",771,"oe","S","5","o","o",TRUE,1
"1355","CVOE_B",1002,1,1,69,"P 07","","",TRUE,"OE","q",1637,"oe","P","7","o","o",TRUE,1
"1356","CVOE_B",1002,1,1,70,"I 77","","",FALSE,"OE","q",1045,"oe","I","7","o","o",TRUE,1
"1357","CVOE_B",1002,1,1,71,"J 19","","",TRUE,"OE","q",1392,"oe","J","9","o","o",TRUE,1
"1358","CVOE_B",1002,1,1,72,"O 59","","",FALSE,"OE","q",856,"oe","O","9","o","o",TRUE,1
"1359","CVOE_B",1002,1,1,73,"J 15","","",TRUE,"OE","q",894,"oe","J","5","o","o",TRUE,1
"1360","CVOE_B",1002,1,1,74,"I 89","","",FALSE,"OE","q",804,"oe","I","9","o","o",TRUE,1
"1361","CVOE_B",1002,1,1,75,"O 97","","",FALSE,"OE","q",657,"oe","O","7","o","o",TRUE,1
"1362","CVOE_B",1002,1,1,76,"A 92","","",TRUE,"OE","p",724,"oe","A","2","e","e",TRUE,1
"1363","CVOE_B",1002,1,1,77,"J 90","","",FALSE,"OE","p",699,"oe","J","0","e","e",TRUE,1
"1364","CVOE_B",1002,1,1,78,"H 65","","",TRUE,"OE","q",967,"oe","H","5","o","o",TRUE,1
"1365","CVOE_B",1002,1,1,79,"H 17","","",TRUE,"OE","q",849,"oe","H","7","o","o",TRUE,1
"1366","CVOE_B",1002,1,1,80,"S 26","","",FALSE,"OE","p",692,"oe","S","6","e","e",TRUE,1
"1367","CVOE_B",1002,1,1,81,"D 56","","",FALSE,"OE","p",858,"oe","D","6","e","e",TRUE,1
"1368","CVOE_B",1002,1,1,82,"I 91","","",FALSE,"OE","q",685,"oe","I","1","o","o",TRUE,1
"1369","CVOE_B",1002,1,1,83,"J 11","","",TRUE,"OE","q",733,"oe","J","1","o","o",TRUE,1
"1370","CVOE_B",1002,1,1,84,"O 28","","",TRUE,"OE","p",810,"oe","O","8","e","e",TRUE,1
"1371","CVOE_B",1002,1,1,85,"H 29","","",TRUE,"OE","q",843,"oe","H","9","o","o",TRUE,1
"1372","CVOE_B",1002,1,1,86,"J 25","","",TRUE,"OE","q",1077,"oe","J","5","o","o",TRUE,1
"1373","CVOE_B",1002,1,1,87,"A 73","","",FALSE,"OE","q",803,"oe","A","3","o","o",TRUE,1
"1374","CVOE_B",1002,1,1,88,"J 63","","",TRUE,"OE","q",775,"oe","J","3","o","o",TRUE,1
"1375","CVOE_B",1002,1,1,89,"U 84","","",TRUE,"OE","p",802,"oe","U","4","e","e",TRUE,1
"1376","CVOE_B",1002,1,1,90,"A 58","","",TRUE,"OE","p",711,"oe","A","8","e","e",TRUE,1
"1377","CVOE_B",1002,1,1,91,"S 43","","",TRUE,"OE","q",768,"oe","S","3","o","o",TRUE,1
"1378","CVOE_B",1002,1,1,92,"H 54","","",FALSE,"OE","p",1203,"oe","H","4","e","e",TRUE,1
"1379","CVOE_B",1002,1,1,93,"D 4","","",FALSE,"OE","p",695,"oe","D","","o","e",FALSE,0
"1380","CVOE_B",1002,1,1,94,"J 75","","",TRUE,"OE","q",727,"oe","J","5","o","o",TRUE,1
"1381","CVOE_B",1002,1,1,95,"D 19","","",TRUE,"OE","q",765,"oe","D","9","o","o",TRUE,1
"1382","CVOE_B",1002,1,1,96,"J 38","","",FALSE,"OE","p",770,"oe","J","8","e","e",TRUE,1
"1383","CVOE_B",1002,1,1,97,"I 56","","",TRUE,"OE","p",1439,"oe","I","6","e","e",TRUE,1
"1384","CVOE_B",1002,1,1,98,"P 87","","",TRUE,"OE","q",774,"oe","P","7","o","o",TRUE,1
"1385","CVOE_B",1002,1,1,99,"O 80","","",TRUE,"OE","p",1859,"oe","O","0","e","e",TRUE,1
"1386","CVOE_B",1002,1,1,100,"U 60","","",TRUE,"OE","p",816,"oe","U","0","e","e",TRUE,1
"1387","CVOE_B",1002,1,1,101,"P 48","","",FALSE,"OE","p",769,"oe","P","8","e","e",TRUE,1
"1388","CVOE_B",1002,1,1,102,"H 64","","",FALSE,"OE","p",813,"oe","H","4","e","e",TRUE,1
"1389","CVOE_B",1002,1,1,103,"A 13","","",FALSE,"OE","q",651,"oe","A","3","o","o",TRUE,1
"1390","CVOE_B",1002,1,1,104,"H 68","","",FALSE,"OE","p",696,"oe","H","8","e","e",TRUE,1
"1391","CVOE_B",1002,1,1,105,"E 16","","",TRUE,"OE","p",1276,"oe","E","6","e","e",TRUE,1
"1392","CVOE_B",1002,1,1,106,"S 71","","",TRUE,"OE","q",762,"oe","S","1","o","o",TRUE,1
"1729","CVOE_B",2002,1,1,11,"A 24","","",TRUE,"OE","p",10781,"oe","A","4","e","e",TRUE,1
"1730","CVOE_B",2002,1,1,12,"O 83","","",FALSE,"OE","q",1594,"oe","O","3","o","o",TRUE,1
"1731","CVOE_B",2002,1,1,13,"H 55","","",TRUE,"OE","q",3698,"oe","H","5","o","o",TRUE,1
"1732","CVOE_B",2002,1,1,14,"P 10","","",FALSE,"OE","p",879,"oe","P","0","e","e",TRUE,1
"1733","CVOE_B",2002,1,1,15,"D 30","","",FALSE,"OE","p",962,"oe","D","0","e","e",TRUE,1
"1734","CVOE_B",2002,1,1,16,"U 62","","",TRUE,"OE","p",1745,"oe","U","2","e","e",TRUE,1
"1735","CVOE_B",2002,1,1,17,"P 95","","",TRUE,"OE","q",1037,"oe","P","5","o","o",TRUE,1
"1736","CVOE_B",2002,1,1,18,"U 06","","",TRUE,"OE","p",852,"oe","U","6","e","e",TRUE,1
"1737","CVOE_B",2002,1,1,19,"E 75","","",FALSE,"OE","q",852,"oe","E","5","o","o",TRUE,1
"1738","CVOE_B",2002,1,1,20,"I 67","","",FALSE,"OE","q",1282,"oe","I","7","o","o",TRUE,1
"1739","CVOE_B",2002,1,1,21,"S 13","","",TRUE,"OE","q",964,"oe","S","3","o","o",TRUE,1
"1740","CVOE_B",2002,1,1,22,"P 78","","",FALSE,"OE","p",885,"oe","P","8","e","e",TRUE,1
"1741","CVOE_B",2002,1,1,23,"I 15","","",FALSE,"OE","p",1282,"oe","I","5","o","e",FALSE,0
"1742","CVOE_B",2002,1,1,24,"D 27","","",TRUE,"OE","p",2413,"oe","D","7","o","e",FALSE,0
"1743","CVOE_B",2002,1,1,25,"O 94","","",TRUE,"OE","q",1428,"oe","O","4","e","o",FALSE,0
"1744","CVOE_B",2002,1,1,26,"A 65","","",FALSE,"OE","q",1469,"oe","A","5","o","o",TRUE,1
"1745","CVOE_B",2002,1,1,27,"I 42","","",TRUE,"OE","p",1554,"oe","I","2","e","e",TRUE,1
"1746","CVOE_B",2002,1,1,28,"E 25","","",FALSE,"OE","p",2064,"oe","E","5","o","e",FALSE,0
"1747","CVOE_B",2002,1,1,29,"H 49","","",TRUE,"OE","q",1355,"oe","H","9","o","o",TRUE,1
"1748","CVOE_B",2002,1,1,30,"S 18","","",FALSE,"OE","p",2458,"oe","S","8","e","e",TRUE,1
"1749","CVOE_B",2002,1,1,31,"H 51","","",TRUE,"OE","p",1087,"oe","H","1","o","e",FALSE,0
"1750","CVOE_B",2002,1,1,32,"U 14","","",TRUE,"OE","p",1165,"oe","U","4","e","e",TRUE,1
"1751","CVOE_B",2002,1,1,33,"E 02","","",TRUE,"OE","p",1395,"oe","E","2","e","e",TRUE,1
"1752","CVOE_B",2002,1,1,34,"J 26","","",FALSE,"OE","p",1157,"oe","J","6","e","e",TRUE,1
"1753","CVOE_B",2002,1,1,35,"D 24","","",FALSE,"OE","p",1559,"oe","D","4","e","e",TRUE,1
"1754","CVOE_B",2002,1,1,36,"O 50","","",TRUE,"OE","p",1348,"oe","O","0","e","e",TRUE,1
"1755","CVOE_B",2002,1,1,37,"U 16","","",TRUE,"OE","p",1590,"oe","U","6","e","e",TRUE,1
"1756","CVOE_B",2002,1,1,38,"O 15","","",FALSE,"OE","p",1951,"oe","O","5","o","e",FALSE,0
"1757","CVOE_B",2002,1,1,39,"D 32","","",FALSE,"OE","p",1865,"oe","D","2","e","e",TRUE,1
"1758","CVOE_B",2002,1,1,40,"S 67","","",TRUE,"OE","q",1001,"oe","S","7","o","o",TRUE,1
"1759","CVOE_B",2002,1,1,41,"J 74","","",FALSE,"OE","q",1437,"oe","J","4","e","o",FALSE,0
"1760","CVOE_B",2002,1,1,42,"D 92","","",FALSE,"OE","q",1010,"oe","D","2","e","o",FALSE,0
"1761","CVOE_B",2002,1,1,43,"A 65","","",FALSE,"OE","q",999,"oe","A","5","o","o",TRUE,1
"1762","CVOE_B",2002,1,1,44,"I 87","","",FALSE,"OE","q",1161,"oe","I","7","o","o",TRUE,1
"1763","CVOE_B",2002,1,1,45,"H 61","","",TRUE,"OE","q",999,"oe","H","1","o","o",TRUE,1
"1764","CVOE_B",2002,1,1,46,"E 59","","",FALSE,"OE","q",1357,"oe","E","9","o","o",TRUE,1
"1765","CVOE_B",2002,1,1,47,"I 33","","",FALSE,"OE","q",3399,"oe","I","3","o","o",TRUE,1
"1766","CVOE_B",2002,1,1,48,"O 90","","",TRUE,"OE","p",765,"oe","O","0","e","e",TRUE,1
"1767","CVOE_B",2002,1,1,49,"U 51","","",FALSE,"OE","q",887,"oe","U","1","o","o",TRUE,1
"1768","CVOE_B",2002,1,1,50,"A 10","","",TRUE,"OE","p",853,"oe","A","0","e","e",TRUE,1
"1769","CVOE_B",2002,1,1,51,"E 50","","",TRUE,"OE","p",735,"oe","E","0","e","e",TRUE,1
"1770","CVOE_B",2002,1,1,52,"D 92","","",FALSE,"OE","q",1556,"oe","D","2","e","o",FALSE,0
"1771","CVOE_B",2002,1,1,53,"E 60","","",TRUE,"OE","p",618,"oe","E","0","e","e",TRUE,1
"1772","CVOE_B",2002,1,1,54,"A 95","","",FALSE,"OE","q",773,"oe","A","5","o","o",TRUE,1
"1773","CVOE_B",2002,1,1,55,"E 64","","",TRUE,"OE","p",762,"oe","E","4","e","e",TRUE,1
"1774","CVOE_B",2002,1,1,56,"P 20","","",FALSE,"OE","p",1080,"oe","P","0","e","e",TRUE,1
"1775","CVOE_B",2002,1,1,57,"S 06","","",FALSE,"OE","p",727,"oe","S","6","e","e",TRUE,1
"1776","CVOE_B",2002,1,1,58,"P 64","","",FALSE,"OE","p",962,"oe","P","4","e","e",TRUE,1
"1777","CVOE_B",2002,1,1,59,"U 70","","",TRUE,"OE","q",766,"oe","U","0","e","o",FALSE,0
"1778","CVOE_B",2002,1,1,60,"S 16","","",FALSE,"OE","p",771,"oe","S","6","e","e",TRUE,1
"1779","CVOE_B",2002,1,1,61,"E 35","","",FALSE,"OE","p",2067,"oe","E","5","o","e",FALSE,0
"1780","CVOE_B",2002,1,1,62,"I 93","","",FALSE,"OE","q",1316,"oe","I","3","o","o",TRUE,1
"1781","CVOE_B",2002,1,1,63,"D 63","","",TRUE,"OE","q",1280,"oe","D","3","o","o",TRUE,1
"1782","CVOE_B",2002,1,1,64,"U 89","","",FALSE,"OE","q",884,"oe","U","9","o","o",TRUE,1
"1783","CVOE_B",2002,1,1,65,"E 91","","",FALSE,"OE","q",890,"oe","E","1","o","o",TRUE,1
"1784","CVOE_B",2002,1,1,66,"A 12","","",TRUE,"OE","p",739,"oe","A","2","e","e",TRUE,1
"1785","CVOE_B",2002,1,1,67,"P 56","","",FALSE,"OE","q",1638,"oe","P","6","e","o",FALSE,0
"1786","CVOE_B",2002,1,1,68,"S 65","","",TRUE,"OE","q",1673,"oe","S","5","o","o",TRUE,1
"1787","CVOE_B",2002,1,1,69,"P 07","","",TRUE,"OE","q",736,"oe","P","7","o","o",TRUE,1
"1788","CVOE_B",2002,1,1,70,"I 77","","",FALSE,"OE","q",1323,"oe","I","7","o","o",TRUE,1
"1789","CVOE_B",2002,1,1,71,"J 19","","",TRUE,"OE","q",776,"oe","J","9","o","o",TRUE,1
"1790","CVOE_B",2002,1,1,72,"O 59","","",FALSE,"OE","q",842,"oe","O","9","o","o",TRUE,1
"1791","CVOE_B",2002,1,1,73,"J 15","","",TRUE,"OE","p",763,"oe","J","5","o","e",FALSE,0
"1792","CVOE_B",2002,1,1,74,"I 89","","",FALSE,"OE","q",925,"oe","I","9","o","o",TRUE,1
"1793","CVOE_B",2002,1,1,75,"O 97","","",FALSE,"OE","q",801,"oe","O","7","o","o",TRUE,1
"1794","CVOE_B",2002,1,1,76,"A 92","","",TRUE,"OE","q",890,"oe","A","2","e","o",FALSE,0
"1795","CVOE_B",2002,1,1,77,"J 90","","",FALSE,"OE","p",738,"oe","J","0","e","e",TRUE,1
"1796","CVOE_B",2002,1,1,78,"H 65","","",TRUE,"OE","p",894,"oe","H","5","o","e",FALSE,0
"1797","CVOE_B",2002,1,1,79,"H 17","","",TRUE,"OE","q",922,"oe","H","7","o","o",TRUE,1
"1798","CVOE_B",2002,1,1,80,"S 26","","",FALSE,"OE","p",776,"oe","S","6","e","e",TRUE,1
"1799","CVOE_B",2002,1,1,81,"D 56","","",FALSE,"OE","p",960,"oe","D","6","e","e",TRUE,1
"1800","CVOE_B",2002,1,1,82,"I 91","","",FALSE,"OE","p",1038,"oe","I","1","o","e",FALSE,0
"1801","CVOE_B",2002,1,1,83,"J 11","","",TRUE,"OE","q",1167,"oe","J","1","o","o",TRUE,1
"1802","CVOE_B",2002,1,1,84,"O 28","","",TRUE,"OE","p",770,"oe","O","8","e","e",TRUE,1
"1803","CVOE_B",2002,1,1,85,"H 29","","",TRUE,"OE","q",1754,"oe","H","9","o","o",TRUE,1
"1804","CVOE_B",2002,1,1,86,"J 25","","",TRUE,"OE","p",812,"oe","J","5","o","e",FALSE,0
"1805","CVOE_B",2002,1,1,87,"A 73","","",FALSE,"OE","q",727,"oe","A","3","o","o",TRUE,1
"1806","CVOE_B",2002,1,1,88,"J 63","","",TRUE,"OE","p",1117,"oe","J","3","o","e",FALSE,0
"1807","CVOE_B",2002,1,1,89,"U 84","","",TRUE,"OE","p",888,"oe","U","4","e","e",TRUE,1
"1808","CVOE_B",2002,1,1,90,"A 58","","",TRUE,"OE","q",972,"oe","A","8","e","o",FALSE,0
"1809","CVOE_B",2002,1,1,91,"S 43","","",TRUE,"OE","q",1676,"oe","S","3","o","o",TRUE,1
"1810","CVOE_B",2002,1,1,92,"H 54","","",FALSE,"OE","q",1036,"oe","H","4","e","o",FALSE,0
"1811","CVOE_B",2002,1,1,93,"D 4","","",FALSE,"OE","p",734,"oe","D","","o","e",FALSE,0
"1812","CVOE_B",2002,1,1,94,"J 75","","",TRUE,"OE","p",1320,"oe","J","5","o","e",FALSE,0
"1813","CVOE_B",2002,1,1,95,"D 19","","",TRUE,"OE","q",734,"oe","D","9","o","o",TRUE,1
"1814","CVOE_B",2002,1,1,96,"J 38","","",FALSE,"OE","q",1461,"oe","J","8","e","o",FALSE,0
"1815","CVOE_B",2002,1,1,97,"I 56","","",TRUE,"OE","p",841,"oe","I","6","e","e",TRUE,1
"1816","CVOE_B",2002,1,1,98,"P 87","","",TRUE,"OE","q",919,"oe","P","7","o","o",TRUE,1
"1817","CVOE_B",2002,1,1,99,"O 80","","",TRUE,"OE","p",774,"oe","O","0","e","e",TRUE,1
"1818","CVOE_B",2002,1,1,100,"U 60","","",TRUE,"OE","p",779,"oe","U","0","e","e",TRUE,1
"1819","CVOE_B",2002,1,1,101,"P 48","","",FALSE,"OE","p",845,"oe","P","8","e","e",TRUE,1
"1820","CVOE_B",2002,1,1,102,"H 64","","",FALSE,"OE","p",844,"oe","H","4","e","e",TRUE,1
"1821","CVOE_B",2002,1,1,103,"A 13","","",FALSE,"OE","q",704,"oe","A","3","o","o",TRUE,1
"1822","CVOE_B",2002,1,1,104,"H 68","","",FALSE,"OE","p",779,"oe","H","8","e","e",TRUE,1
"1823","CVOE_B",2002,1,1,105,"E 16","","",TRUE,"OE","p",806,"oe","E","6","e","e",TRUE,1
"1824","CVOE_B",2002,1,1,106,"S 71","","",TRUE,"OE","q",816,"oe","S","1","o","o",TRUE,1
"2161","CVOE_C",1003,1,1,11,"A 24","","",TRUE,"OE","p",2056,"oe","A","4","e","e",TRUE,1
"2162","CVOE_C",1003,1,1,12,"O 83","","",FALSE,"OE","q",970,"oe","O","3","o","o",TRUE,1
"2163","CVOE_C",1003,1,1,13,"H 55","","",TRUE,"OE","q",931,"oe","H","5","o","o",TRUE,1
"2164","CVOE_C",1003,1,1,14,"P 10","","",FALSE,"OE","p",689,"oe","P","0","e","e",TRUE,1
"2165","CVOE_C",1003,1,1,15,"D 30","","",FALSE,"OE","p",1679,"oe","D","0","e","e",TRUE,1
"2166","CVOE_C",1003,1,1,16,"U 62","","",TRUE,"OE","p",1155,"oe","U","2","e","e",TRUE,1
"2167","CVOE_C",1003,1,1,17,"P 95","","",TRUE,"OE","q",1010,"oe","P","5","o","o",TRUE,1
"2168","CVOE_C",1003,1,1,18,"U 06","","",TRUE,"OE","p",765,"oe","U","6","e","e",TRUE,1
"2169","CVOE_C",1003,1,1,19,"E 75","","",FALSE,"OE","q",889,"oe","E","5","o","o",TRUE,1
"2170","CVOE_C",1003,1,1,20,"I 67","","",FALSE,"OE","q",1325,"oe","I","7","o","o",TRUE,1
"2171","CVOE_C",1003,1,1,21,"S 13","","",TRUE,"OE","q",881,"oe","S","3","o","o",TRUE,1
"2172","CVOE_C",1003,1,1,22,"P 78","","",FALSE,"OE","p",652,"oe","P","8","e","e",TRUE,1
"2173","CVOE_C",1003,1,1,23,"I 15","","",FALSE,"OE","q",774,"oe","I","5","o","o",TRUE,1
"2174","CVOE_C",1003,1,1,24,"D 27","","",TRUE,"OE","q",879,"oe","D","7","o","o",TRUE,1
"2175","CVOE_C",1003,1,1,25,"O 94","","",TRUE,"OE","p",963,"oe","O","4","e","e",TRUE,1
"2176","CVOE_C",1003,1,1,26,"A 65","","",FALSE,"OE","q",767,"oe","A","5","o","o",TRUE,1
"2177","CVOE_C",1003,1,1,27,"I 42","","",TRUE,"OE","p",1712,"oe","I","2","e","e",TRUE,1
"2178","CVOE_C",1003,1,1,28,"E 25","","",FALSE,"OE","q",921,"oe","E","5","o","o",TRUE,1
"2179","CVOE_C",1003,1,1,29,"H 49","","",TRUE,"OE","q",892,"oe","H","9","o","o",TRUE,1
"2180","CVOE_C",1003,1,1,30,"S 18","","",FALSE,"OE","p",585,"oe","S","8","e","e",TRUE,1
"2181","CVOE_C",1003,1,1,31,"H 51","","",TRUE,"OE","q",970,"oe","H","1","o","o",TRUE,1
"2182","CVOE_C",1003,1,1,32,"U 14","","",TRUE,"OE","p",852,"oe","U","4","e","e",TRUE,1
"2183","CVOE_C",1003,1,1,33,"E 02","","",TRUE,"OE","q",1165,"oe","E","2","e","o",FALSE,0
"2184","CVOE_C",1003,1,1,34,"J 26","","",FALSE,"OE","p",3822,"oe","J","6","e","e",TRUE,1
"2185","CVOE_C",1003,1,1,35,"D 24","","",FALSE,"OE","p",1746,"oe","D","4","e","e",TRUE,1
"2186","CVOE_C",1003,1,1,36,"O 50","","",TRUE,"OE","p",569,"oe","O","0","e","e",TRUE,1
"2187","CVOE_C",1003,1,1,37,"U 16","","",TRUE,"OE","p",696,"oe","U","6","e","e",TRUE,1
"2188","CVOE_C",1003,1,1,38,"O 15","","",FALSE,"OE","q",651,"oe","O","5","o","o",TRUE,1
"2189","CVOE_C",1003,1,1,39,"D 32","","",FALSE,"OE","p",890,"oe","D","2","e","e",TRUE,1
"2190","CVOE_C",1003,1,1,40,"S 67","","",TRUE,"OE","q",856,"oe","S","7","o","o",TRUE,1
"2191","CVOE_C",1003,1,1,41,"J 74","","",FALSE,"OE","p",934,"oe","J","4","e","e",TRUE,1
"2192","CVOE_C",1003,1,1,42,"D 92","","",FALSE,"OE","p",889,"oe","D","2","e","e",TRUE,1
"2193","CVOE_C",1003,1,1,43,"A 65","","",FALSE,"OE","q",738,"oe","A","5","o","o",TRUE,1
"2194","CVOE_C",1003,1,1,44,"I 87","","",FALSE,"OE","q",698,"oe","I","7","o","o",TRUE,1
"2195","CVOE_C",1003,1,1,45,"H 61","","",TRUE,"OE","q",691,"oe","H","1","o","o",TRUE,1
"2196","CVOE_C",1003,1,1,46,"E 59","","",FALSE,"OE","q",802,"oe","E","9","o","o",TRUE,1
"2197","CVOE_C",1003,1,1,47,"I 33","","",FALSE,"OE","q",894,"oe","I","3","o","o",TRUE,1
"2198","CVOE_C",1003,1,1,48,"O 90","","",TRUE,"OE","p",765,"oe","O","0","e","e",TRUE,1
"2199","CVOE_C",1003,1,1,49,"U 51","","",FALSE,"OE","q",691,"oe","U","1","o","o",TRUE,1
"2200","CVOE_C",1003,1,1,50,"A 10","","",TRUE,"OE","p",1548,"oe","A","0","e","e",TRUE,1
"2201","CVOE_C",1003,1,1,51,"E 50","","",TRUE,"OE","p",649,"oe","E","0","e","e",TRUE,1
"2202","CVOE_C",1003,1,1,52,"D 92","","",FALSE,"OE","p",2024,"oe","D","2","e","e",TRUE,1
"2203","CVOE_C",1003,1,1,53,"E 60","","",TRUE,"OE","p",814,"oe","E","0","e","e",TRUE,1
"2204","CVOE_C",1003,1,1,54,"A 95","","",FALSE,"OE","q",748,"oe","A","5","o","o",TRUE,1
"2205","CVOE_C",1003,1,1,55,"E 64","","",TRUE,"OE","p",730,"oe","E","4","e","e",TRUE,1
"2206","CVOE_C",1003,1,1,56,"P 20","","",FALSE,"OE","p",669,"oe","P","0","e","e",TRUE,1
"2207","CVOE_C",1003,1,1,57,"S 06","","",FALSE,"OE","p",735,"oe","S","6","e","e",TRUE,1
"2208","CVOE_C",1003,1,1,58,"P 64","","",FALSE,"OE","p",616,"oe","P","4","e","e",TRUE,1
"2209","CVOE_C",1003,1,1,59,"U 70","","",TRUE,"OE","p",575,"oe","U","0","e","e",TRUE,1
"2210","CVOE_C",1003,1,1,60,"S 16","","",FALSE,"OE","p",608,"oe","S","6","e","e",TRUE,1
"2211","CVOE_C",1003,1,1,61,"E 35","","",FALSE,"OE","q",646,"oe","E","5","o","o",TRUE,1
"2212","CVOE_C",1003,1,1,62,"I 93","","",FALSE,"OE","q",650,"oe","I","3","o","o",TRUE,1
"2213","CVOE_C",1003,1,1,63,"D 63","","",TRUE,"OE","q",579,"oe","D","3","o","o",TRUE,1
"2214","CVOE_C",1003,1,1,64,"U 89","","",FALSE,"OE","q",767,"oe","U","9","o","o",TRUE,1
"2215","CVOE_C",1003,1,1,65,"E 91","","",FALSE,"OE","q",733,"oe","E","1","o","o",TRUE,1
"2216","CVOE_C",1003,1,1,66,"A 12","","",TRUE,"OE","p",810,"oe","A","2","e","e",TRUE,1
"2217","CVOE_C",1003,1,1,67,"P 56","","",FALSE,"OE","p",805,"oe","P","6","e","e",TRUE,1
