"ExperimentName","Subject","Group","Block","Trial","STIM","TASK","Switch","Congruent","CVOE","Response","RT","block_type","letter","number","key2","response2","match2","score2","zRT"
"CVOE updated",1001,1,1,11,"A 71","","",FALSE,"CV","p",4811,"cv","A",1,"v","v",TRUE,1,1.74153563815418
"CVOE updated",1001,1,1,12,"I 66","","",TRUE,"CV","p",1960,"cv","I",6,"v","v",TRUE,1,0.137448999372276
"CVOE updated",1001,1,1,13,"S 30","","",FALSE,"CV","q",918,"cv","S",0,"c","c",TRUE,1,-0.448821880182529
"CVOE updated",1001,1,1,14,"D 20","","",FALSE,"CV","q",790,"cv","D",0,"c","c",TRUE,1,-0.52083980012784
"CVOE updated",1001,1,1,15,"I 31","","",FALSE,"CV","p",874,"cv","I",1,"v","v",TRUE,1,-0.47357804016373
"CVOE updated",1001,1,1,16,"P 16","","",FALSE,"CV","q",700,"cv","P",6,"c","c",TRUE,1,-0.571477400089388
"CVOE updated",1001,1,1,17,"A 49","","",FALSE,"CV","p",1100,"cv","A",9,"v","v",TRUE,1,-0.346421400260288
"CVOE updated",1001,1,1,18,"O 64","","",TRUE,"CV","p",1100,"cv","O",4,"v","v",TRUE,1,-0.346421400260288
"CVOE updated",1001,1,1,19,"D 02","","",FALSE,"CV","q",892,"cv","D",2,"c","c",TRUE,1,-0.46345052017142
"CVOE updated",1001,1,1,20,"P 81","","",TRUE,"CV","q",1116,"cv","P",1,"c","c",TRUE,1,-0.337419160267124
"CVOE updated",1001,1,1,21,"J 58","","",FALSE,"CV","q",828,"cv","J",8,"c","c",TRUE,1,-0.499459480144076
"CVOE updated",1001,1,1,22,"A 22","","",TRUE,"CV","p",679,"cv","A",2,"v","v",TRUE,1,-0.583292840080416
"CVOE updated",1001,1,1,23,"J 72","","",FALSE,"CV","q",999,"cv","J",2,"c","c",TRUE,1,-0.403248040217136
"CVOE updated",1001,1,1,24,"P 91","","",TRUE,"CV","q",1027,"cv","P",1,"c","c",TRUE,1,-0.387494120229099
"CVOE updated",1001,1,1,25,"E 19","","",FALSE,"CV","p",622,"cv","E",9,"v","v",TRUE,1,-0.615363320056062
"CVOE updated",1001,1,1,26,"I 30","","",TRUE,"CV","p",618,"cv","I",0,"v","v",TRUE,1,-0.617613880054353
"CVOE updated",1001,1,1,27,"D 91","","",TRUE,"CV","q",717,"cv","D",1,"c","c",TRUE,1,-0.561912520096651
"CVOE updated",1001,1,1,28,"O 48","","",TRUE,"CV","p",636,"cv","O",8,"v","v",TRUE,1,-0.607486360062044
"CVOE updated",1001,1,1,29,"A 89","","",FALSE,"CV","p",1127,"cv","A",9,"v","v",TRUE,1,-0.331230120271824
"CVOE updated",1001,1,1,30,"U 11","","",FALSE,"CV","p",886,"cv","U",1,"v","v",TRUE,1,-0.466826360168857
"CVOE updated",1001,1,1,31,"I 76","","",TRUE,"CV","p",726,"cv","I",6,"v","v",TRUE,1,-0.556848760100496
"CVOE updated",1001,1,1,32,"U 89","","",FALSE,"CV","p",669,"cv","U",9,"v","v",TRUE,1,-0.588919240076143
"CVOE updated",1001,1,1,33,"D 63","","",TRUE,"CV","q",758,"cv","D",3,"c","c",TRUE,1,-0.538844280114169
"CVOE updated",1001,1,1,34,"H 70","","",FALSE,"CV","q",1052,"cv","H",0,"c","c",TRUE,1,-0.37342812023978
"CVOE updated",1001,1,1,35,"D 48","","",FALSE,"CV","q",591,"cv","D",8,"c","c",TRUE,1,-0.632805160042818
"CVOE updated",1001,1,1,36,"P 56","","",FALSE,"CV","q",635,"cv","P",6,"c","c",TRUE,1,-0.608049000061617
"CVOE updated",1001,1,1,37,"O 77","","",FALSE,"CV","p",645,"cv","O",7,"v","v",TRUE,1,-0.602422600065889
"CVOE updated",1001,1,1,38,"P 42","","",FALSE,"CV","q",776,"cv","P",2,"c","c",TRUE,1,-0.528716760121859
"CVOE updated",1001,1,1,39,"H 22","","",FALSE,"CV","q",668,"cv","H",2,"c","c",TRUE,1,-0.589481880075716
"CVOE updated",1001,1,1,40,"E 42","","",TRUE,"CV","p",574,"cv","E",2,"v","v",TRUE,1,-0.642370040035554
"CVOE updated",1001,1,1,41,"J 28","","",FALSE,"CV","q",690,"cv","J",8,"c","c",TRUE,1,-0.577103800085115
"CVOE updated",1001,1,1,42,"E 95","","",FALSE,"CV","p",787,"cv","E",5,"v","v",TRUE,1,-0.522527720126559
"CVOE updated",1001,1,1,43,"S 63","","",TRUE,"CV","q",1031,"cv","S",3,"c","c",TRUE,1,-0.385243560230808
"CVOE updated",1001,1,1,44,"H 50","","",FALSE,"CV","q",602,"cv","H",0,"c","c",TRUE,1,-0.626616120047517
"CVOE updated",1001,1,1,45,"S 33","","",TRUE,"CV","q",646,"cv","S",3,"c","c",TRUE,1,-0.601859960066316
"CVOE updated",1001,1,1,46,"P 57","","",TRUE,"CV","q",632,"cv","P",7,"c","c",TRUE,1,-0.609736920060335
"CVOE updated",1001,1,1,47,"E 23","","",FALSE,"CV","p",699,"cv","E",3,"v","v",TRUE,1,-0.572040040088961
"CVOE updated",1001,1,1,48,"S 61","","",TRUE,"CV","q",763,"cv","S",1,"c","c",TRUE,1,-0.536031080116305
"CVOE updated",1001,1,1,49,"U 67","","",FALSE,"CV","p",560,"cv","U",7,"v","v",TRUE,1,-0.650247000029573
"CVOE updated",1001,1,1,50,"H 32","","",FALSE,"CV","q",685,"cv","H",2,"c","c",TRUE,1,-0.579917000082979
"CVOE updated",1001,1,1,51,"U 50","","",TRUE,"CV","p",502,"cv","U",0,"v","v",TRUE,1,-0.682880120004792
"CVOE updated",1001,1,1,52,"O 49","","",FALSE,"CV","p",630,"cv","O",9,"v","v",TRUE,1,-0.61086220005948
"CVOE updated",1001,1,1,53,"U 32","","",TRUE,"CV","p",609,"cv","U",2,"v","v",TRUE,1,-0.622677640050508
"CVOE updated",1001,1,1,54,"J 78","","",FALSE,"CV","q",716,"cv","J",8,"c","c",TRUE,1,-0.562475160096224
"CVOE updated",1001,1,1,55,"S 54","","",FALSE,"CV","q",635,"cv","S",4,"c","c",TRUE,1,-0.608049000061617
"CVOE updated",1001,1,1,56,"J 27","","",TRUE,"CV","q",566,"cv","J",7,"c","c",TRUE,1,-0.646871160032136
"CVOE updated",1001,1,1,57,"S 06","","",FALSE,"CV","q",635,"cv","S",6,"c","c",TRUE,1,-0.608049000061617
"CVOE updated",1001,1,1,58,"D 67","","",TRUE,"CV","q",766,"cv","D",7,"c","c",TRUE,1,-0.534343160117587
"CVOE updated",1001,1,1,59,"A 79","","",FALSE,"CV","p",771,"cv","A",9,"v","v",TRUE,1,-0.531529960119723
"CVOE updated",1001,1,1,60,"S 52","","",FALSE,"CV","q",768,"cv","S",2,"c","c",TRUE,1,-0.533217880118441
"CVOE updated",1001,1,1,61,"U 16","","",TRUE,"CV","p",702,"cv","U",6,"v","v",TRUE,1,-0.570352120090242
"CVOE updated",1001,1,1,62,"O 82","","",TRUE,"CV","p",590,"cv","O",2,"v","v",TRUE,1,-0.63336780004239
"CVOE updated",1001,1,1,63,"H 87","","",TRUE,"CV","q",722,"cv","H",7,"c","c",TRUE,1,-0.559099320098787
"CVOE updated",1001,1,1,64,"I 32","","",TRUE,"CV","p",1330,"cv","I",2,"v","v",TRUE,1,-0.217014200358556
"CVOE updated",1001,1,1,65,"U 37","","",FALSE,"CV","p",833,"cv","U",7,"v","v",TRUE,1,-0.496646280146212
"CVOE updated",1001,1,1,66,"I 42","","",TRUE,"CV","p",620,"cv","I",2,"v","v",TRUE,1,-0.616488600055208
"CVOE updated",1001,1,1,67,"D 65","","",TRUE,"CV","q",679,"cv","D",5,"c","c",TRUE,1,-0.583292840080416
"CVOE updated",1001,1,1,68,"U 77","","",FALSE,"CV","p",743,"cv","U",7,"v","v",TRUE,1,-0.54728388010776
"CVOE updated",1001,1,1,69,"E 12","","",TRUE,"CV","p",1326,"cv","E",2,"v","v",TRUE,1,-0.219264760356847
"CVOE updated",1001,1,1,70,"I 60","","",TRUE,"CV","p",565,"cv","I",0,"v","v",TRUE,1,-0.647433800031709
"CVOE updated",1001,1,1,71,"J 36","","",FALSE,"CV","q",698,"cv","J",6,"c","c",TRUE,1,-0.572602680088533
"CVOE updated",1001,1,1,72,"H 75","","",TRUE,"CV","q",778,"cv","H",5,"c","c",TRUE,1,-0.527591480122714
"CVOE updated",1001,1,1,73,"I 50","","",TRUE,"CV","p",742,"cv","I",0,"v","v",TRUE,1,-0.547846520107332
"CVOE updated",1001,1,1,74,"E 99","","",FALSE,"CV","p",725,"cv","E",9,"v","v",TRUE,1,-0.557411400100069
"CVOE updated",1001,1,1,75,"A 86","","",TRUE,"CV","p",1019,"cv","A",6,"v","v",TRUE,1,-0.391995240225681
"CVOE updated",1001,1,1,76,"U 48","","",TRUE,"CV","p",631,"cv","U",8,"v","v",TRUE,1,-0.610299560059908
"CVOE updated",1001,1,1,77,"E 01","","",FALSE,"CV","p",649,"cv","E",1,"v","v",TRUE,1,-0.600172040067598
"CVOE updated",1001,1,1,78,"A 78","","",TRUE,"CV","p",699,"cv","A",8,"v","v",TRUE,1,-0.572040040088961
"CVOE updated",1001,1,1,79,"P 60","","",FALSE,"CV","q",803,"cv","P",0,"c","c",TRUE,1,-0.513525480133395
"CVOE updated",1001,1,1,80,"E 43","","",FALSE,"CV","p",975,"cv","E",3,"v","v",TRUE,1,-0.416751400206882
"CVOE updated",1001,1,1,81,"D 69","","",TRUE,"CV","q",924,"cv","D",9,"c","c",TRUE,1,-0.445446040185092
"CVOE updated",1001,1,1,82,"H 11","","",TRUE,"CV","q",612,"cv","H",1,"c","c",TRUE,1,-0.62098972005179
"CVOE updated",1001,1,1,83,"P 43","","",TRUE,"CV","q",543,"cv","P",3,"c","c",TRUE,1,-0.65981188002231
"CVOE updated",1001,1,1,84,"O 67","","",FALSE,"CV","p",613,"cv","O",7,"v","v",TRUE,1,-0.620427080052217
"CVOE updated",1001,1,1,85,"S 91","","",FALSE,"CV","q",728,"cv","S",1,"c","c",TRUE,1,-0.555723480101351
"CVOE updated",1001,1,1,86,"J 68","","",TRUE,"CV","q",671,"cv","J",8,"c","c",TRUE,1,-0.587793960076998
"CVOE updated",1001,1,1,87,"S 47","","",FALSE,"CV","q",624,"cv","S",7,"c","c",TRUE,1,-0.614238040056917
"CVOE updated",1001,1,1,88,"I 81","","",TRUE,"CV","p",659,"cv","I",1,"v","v",TRUE,1,-0.594545640071871
"CVOE updated",1001,1,1,89,"J 39","","",FALSE,"CV","q",805,"cv","J",9,"c","c",TRUE,1,-0.512400200134249
"CVOE updated",1001,1,1,90,"A 11","","",TRUE,"CV","p",793,"cv","A",1,"v","v",TRUE,1,-0.519151880129122
"CVOE updated",1001,1,1,91,"O 76","","",FALSE,"CV","p",541,"cv","O",6,"v","v",TRUE,1,-0.660937160021455
"CVOE updated",1001,1,1,92,"A 62","","",FALSE,"CV","p",547,"cv","A",2,"v","v",TRUE,1,-0.657561320024019
"CVOE updated",1001,1,1,93,"O 27","","",TRUE,"CV","p",545,"cv","O",7,"v","v",TRUE,1,-0.658686600023164
"CVOE updated",1001,1,1,94,"E 66","","",FALSE,"CV","p",607,"cv","E",6,"v","v",TRUE,1,-0.623802920049654
"CVOE updated",1001,1,1,95,"J 62","","",TRUE,"CV","q",531,"cv","J",2,"c","c",TRUE,1,-0.666563560017183
"CVOE updated",1001,1,1,96,"H 72","","",TRUE,"CV","q",546,"cv","H",2,"c","c",TRUE,1,-0.658123960023591
"CVOE updated",1001,1,1,97,"E 49","","",TRUE,"CV","p",680,"cv","E",9,"v","v",TRUE,1,-0.582730200080843
"CVOE updated",1001,1,1,98,"D 52","","",TRUE,"CV","q",800,"cv","D",2,"c","c",TRUE,1,-0.515213400132113
"CVOE updated",1001,1,1,99,"H 62","","",TRUE,"CV","q",516,"cv","H",2,"c","c",TRUE,1,-0.675003160010774
"CVOE updated",1001,1,1,100,"I 11","","",TRUE,"CV","p",660,"cv","I",1,"v","v",TRUE,1,-0.593983000072298
"CVOE updated",1001,1,1,101,"A 98","","",FALSE,"CV","p",1221,"cv","A",8,"v","v",TRUE,1,-0.278341960311985
"CVOE updated",1001,1,1,102,"H 29","","",FALSE,"CV","q",776,"cv","H",9,"c","c",TRUE,1,-0.528716760121859
"CVOE updated",1001,1,1,103,"E 83","","",TRUE,"CV","p",773,"cv","E",3,"v","v",TRUE,1,-0.530404680120577
"CVOE updated",1001,1,1,104,"D 43","","",FALSE,"CV","q",627,"cv","D",3,"c","c",TRUE,1,-0.612550120058199
"CVOE updated",1001,1,1,105,"P 45","","",TRUE,"CV","q",1253,"cv","P",5,"c","c",TRUE,1,-0.260337480325658
"CVOE updated",1001,1,1,106,"J 17","","",TRUE,"CV","q",1015,"cv","J",7,"c","c",TRUE,1,-0.394245800223972
"CVOE_C",2003,1,2,14,"D 20","","",FALSE,"CV","q",6059,"cv","D",0,"c","c",TRUE,1,2.44371035762098
"CVOE_C",2003,1,2,16,"P 16","","",FALSE,"CV","q",3365,"cv","P",6,"c","c",TRUE,1,0.927958198771989
"CVOE_C",2003,1,2,17,"A 49","","",FALSE,"CV","p",4379,"cv","A",9,"v","v",TRUE,1,1.49847515833876
"CVOE_C",2003,1,2,19,"D 02","","",FALSE,"CV","q",4660,"cv","D",2,"c","c",TRUE,1,1.6565769982187
"CVOE_C",2003,1,2,21,"J 58","","",FALSE,"CV","q",1930,"cv","J",8,"c","c",TRUE,1,0.120569799385094
"CVOE_C",2003,1,2,22,"A 22","","",TRUE,"CV","p",1737,"cv","A",2,"v","v",TRUE,1,0.0119802794675532
"CVOE_C",2003,1,2,23,"J 72","","",FALSE,"CV","q",1793,"cv","J",2,"c","c",TRUE,1,0.0434881194436271
"CVOE_C",2003,1,2,24,"P 91","","",TRUE,"CV","q",1853,"cv","P",1,"c","c",TRUE,1,0.0772465194179921
"CVOE_C",2003,1,2,25,"E 19","","",FALSE,"CV","p",4512,"cv","E",9,"v","v",TRUE,1,1.57330627828193
"CVOE_C",2003,1,2,27,"D 91","","",TRUE,"CV","q",1259,"cv","D",1,"c","c",TRUE,1,-0.256961640328221
"CVOE_C",2003,1,2,28,"O 48","","",TRUE,"CV","p",3972,"cv","O",8,"v","v",TRUE,1,1.26948067851265
"CVOE_C",2003,1,2,29,"A 89","","",FALSE,"CV","p",1315,"cv","A",9,"v","v",TRUE,1,-0.225453800352147
"CVOE_C",2003,1,2,30,"U 11","","",FALSE,"CV","p",2275,"cv","U",1,"v","v",TRUE,1,0.314680599237692
"CVOE_C",2003,1,2,31,"I 76","","",TRUE,"CV","p",6389,"cv","I",6,"v","v",TRUE,1,2.62938155747998
"CVOE_C",2003,1,2,32,"U 89","","",FALSE,"CV","q",2796,"cv","U",9,"v","c",FALSE,0,0.607816039015095
"CVOE_C",2003,1,2,33,"D 63","","",TRUE,"CV","q",2449,"cv","D",3,"c","c",TRUE,1,0.412579959163351
"CVOE_C",2003,1,2,34,"H 70","","",FALSE,"CV","q",1572,"cv","H",0,"c","c",TRUE,1,-0.0808553204619505
"CVOE_C",2003,1,2,35,"D 48","","",FALSE,"CV","q",1426,"cv","D",8,"c","c",TRUE,1,-0.163000760399572
"CVOE_C",2003,1,2,36,"P 56","","",FALSE,"CV","q",2693,"cv","P",6,"c","c",TRUE,1,0.549864119059102
"CVOE_C",2003,1,2,37,"O 77","","",FALSE,"CV","p",2982,"cv","O",7,"v","v",TRUE,1,0.712467078935626
"CVOE_C",2003,1,2,38,"P 42","","",FALSE,"CV","q",1972,"cv","P",2,"c","c",TRUE,1,0.144200679367149
"CVOE_C",2003,1,2,40,"E 42","","",TRUE,"CV","p",2898,"cv","E",2,"v","v",TRUE,1,0.665205318971515
"CVOE_C",2003,1,2,41,"J 28","","",FALSE,"CV","q",3203,"cv","J",8,"c","c",TRUE,1,0.836810518841204
"CVOE_C",2003,1,2,42,"E 95","","",FALSE,"CV","p",4152,"cv","E",5,"v","v",TRUE,1,1.37075587843574
"CVOE_C",2003,1,2,43,"S 63","","",TRUE,"CV","q",1904,"cv","S",3,"c","c",TRUE,1,0.105941159396202
"CVOE_C",2003,1,2,44,"H 50","","",FALSE,"CV","q",1361,"cv","H",0,"c","c",TRUE,1,-0.199572360371801
"CVOE_C",2003,1,2,45,"S 33","","",TRUE,"CV","q",1086,"cv","S",3,"c","c",TRUE,1,-0.354298360254307
"CVOE_C",2003,1,2,46,"P 57","","",TRUE,"CV","q",1287,"cv","P",7,"c","c",TRUE,1,-0.241207720340184
"CVOE_C",2003,1,2,47,"E 23","","",FALSE,"CV","p",2384,"cv","E",3,"v","v",TRUE,1,0.376008359191122
"CVOE_C",2003,1,2,48,"S 61","","",TRUE,"CV","q",2086,"cv","S",1,"c","c",TRUE,1,0.208341639318443
"CVOE_C",2003,1,2,49,"U 67","","",FALSE,"CV","p",2423,"cv","U",7,"v","v",TRUE,1,0.397951319174459
"CVOE_C",2003,1,2,50,"H 32","","",FALSE,"CV","q",2699,"cv","H",2,"c","c",TRUE,1,0.553239959056538
"CVOE_C",2003,1,2,51,"U 50","","",TRUE,"CV","q",1813,"cv","U",0,"v","c",FALSE,0,0.0547409194350821
"CVOE_C",2003,1,2,52,"O 49","","",FALSE,"CV","p",5305,"cv","O",9,"v","v",TRUE,1,2.01947979794312
"CVOE_C",2003,1,2,54,"J 78","","",FALSE,"CV","q",1864,"cv","J",8,"c","c",TRUE,1,0.0834355594132923
"CVOE_C",2003,1,2,55,"S 54","","",FALSE,"CV","q",1978,"cv","S",4,"c","c",TRUE,1,0.147576519364586
"CVOE_C",2003,1,2,56,"J 27","","",TRUE,"CV","q",1615,"cv","J",7,"c","c",TRUE,1,-0.0566618004803223
"CVOE_C",2003,1,2,57,"S 06","","",FALSE,"CV","q",1483,"cv","S",6,"c","c",TRUE,1,-0.130930280423925
"CVOE_C",2003,1,2,58,"D 67","","",TRUE,"CV","q",1660,"cv","D",7,"c","c",TRUE,1,-0.0313430004995485
"CVOE_C",2003,1,2,59,"A 79","","",FALSE,"CV","p",1798,"cv","A",9,"v","v",TRUE,1,0.0463013194414909
"CVOE_C",2003,1,2,60,"S 52","","",FALSE,"CV","q",1283,"cv","S",2,"c","c",TRUE,1,-0.243458280338475
"CVOE_C",2003,1,2,61,"U 16","","",TRUE,"CV","q",1883,"cv","U",6,"v","c",FALSE,0,0.0941257194051746
"CVOE_C",2003,1,2,62,"O 82","","",TRUE,"CV","p",2933,"cv","O",2,"v","v",TRUE,1,0.684897718956561
"CVOE_C",2003,1,2,63,"H 87","","",TRUE,"CV","q",1741,"cv","H",7,"c","c",TRUE,1,0.0142308394658442
"CVOE_C",2003,1,2,65,"U 37","","",FALSE,"CV","q",2141,"cv","U",7,"v","c",FALSE,0,0.239286839294944
"CVOE_C",2003,1,2,66,"I 42","","",TRUE,"CV","p",2524,"cv","I",2,"v","v",TRUE,1,0.454777959131307
"CVOE_C",2003,1,2,67,"D 65","","",TRUE,"CV","q",3244,"cv","D",5,"c","c",TRUE,1,0.859878758823686
"CVOE_C",2003,1,2,68,"U 77","","",FALSE,"CV","p",2288,"cv","U",7,"v","v",TRUE,1,0.321994919232138
"CVOE_C",2003,1,2,71,"J 36","","",FALSE,"CV","q",2132,"cv","J",6,"c","c",TRUE,1,0.234223079298789
"CVOE_C",2003,1,2,72,"H 75","","",TRUE,"CV","q",1979,"cv","H",5,"c","c",TRUE,1,0.148139159364159
"CVOE_C",2003,1,2,73,"I 50","","",TRUE,"CV","p",2232,"cv","I",0,"v","v",TRUE,1,0.290487079256064
"CVOE_C",2003,1,2,74,"E 99","","",FALSE,"CV","p",6068,"cv","E",9,"v","v",TRUE,1,2.44877411761713
"CVOE_C",2003,1,2,75,"A 86","","",TRUE,"CV","p",2272,"cv","A",6,"v","v",TRUE,1,0.312992679238974
"CVOE_C",2003,1,2,76,"U 48","","",TRUE,"CV","p",3234,"cv","U",8,"v","v",TRUE,1,0.854252358827959
"CVOE_C",2003,1,2,77,"E 01","","",FALSE,"CV","p",6230,"cv","E",1,"v","v",TRUE,1,2.53992179754792
"CVOE_C",2003,1,2,78,"A 78","","",TRUE,"CV","p",2644,"cv","A",8,"v","v",TRUE,1,0.522294759080037
"CVOE_C",2003,1,2,79,"P 60","","",FALSE,"CV","q",4191,"cv","P",0,"c","c",TRUE,1,1.39269883841908
"CVOE_C",2003,1,2,80,"E 43","","",FALSE,"CV","p",4877,"cv","E",3,"v","v",TRUE,1,1.77866987812599
"CVOE_C",2003,1,2,81,"D 69","","",TRUE,"CV","q",3680,"cv","D",9,"c","c",TRUE,1,1.10518979863741
"CVOE_C",2003,1,2,82,"H 11","","",TRUE,"CV","q",1386,"cv","H",1,"c","c",TRUE,1,-0.185506360382482
"CVOE_C",2003,1,2,83,"P 43","","",TRUE,"CV","q",1351,"cv","P",3,"c","c",TRUE,1,-0.205198760367528
"CVOE_C",2003,1,2,84,"O 67","","",FALSE,"CV","p",3565,"cv","O",7,"v","v",TRUE,1,1.04048619868654
"CVOE_C",2003,1,2,85,"S 91","","",FALSE,"CV","q",1756,"cv","S",1,"c","c",TRUE,1,0.0226704394594354
"CVOE_C",2003,1,2,86,"J 68","","",TRUE,"CV","q",1259,"cv","J",8,"c","c",TRUE,1,-0.256961640328221
"CVOE_C",2003,1,2,87,"S 47","","",FALSE,"CV","q",1452,"cv","S",7,"c","c",TRUE,1,-0.14837212041068
"CVOE_C",2003,1,2,88,"I 81","","",TRUE,"CV","p",2511,"cv","I",1,"v","v",TRUE,1,0.447463639136861
"CVOE_C",2003,1,2,89,"J 39","","",FALSE,"CV","q",2263,"cv","J",9,"c","c",TRUE,1,0.307928919242819
"CVOE_C",2003,1,2,90,"A 11","","",TRUE,"CV","p",3945,"cv","A",1,"v","v",TRUE,1,1.25428939852418
"CVOE_C",2003,1,2,91,"O 76","","",FALSE,"CV","p",3041,"cv","O",6,"v","v",TRUE,1,0.745662838910418
"CVOE_C",2003,1,2,92,"A 62","","",FALSE,"CV","p",4052,"cv","A",2,"v","v",TRUE,1,1.31449187847847
"CVOE_C",2003,1,2,93,"O 27","","",TRUE,"CV","p",5488,"cv","O",7,"v","v",TRUE,1,2.12244291786494
"CVOE_C",2003,1,2,94,"E 66","","",FALSE,"CV","p",4084,"cv","E",6,"v","v",TRUE,1,1.3324963584648
"CVOE_C",2003,1,2,95,"J 62","","",TRUE,"CV","q",1814,"cv","J",2,"c","c",TRUE,1,0.0553035594346549
"CVOE_C",2003,1,2,96,"H 72","","",TRUE,"CV","q",1730,"cv","H",2,"c","c",TRUE,1,0.00804179947054392
"CVOE_C",2003,1,2,97,"E 49","","",TRUE,"CV","p",2281,"cv","E",9,"v","v",TRUE,1,0.318056439235129
"CVOE_C",2003,1,2,98,"D 52","","",TRUE,"CV","q",1955,"cv","D",2,"c","c",TRUE,1,0.134635799374413
"CVOE_C",2003,1,2,99,"H 62","","",TRUE,"CV","q",1697,"cv","H",2,"c","c",TRUE,1,-0.0105253205153568
"CVOE_C",2003,1,2,100,"I 11","","",TRUE,"CV","p",2418,"cv","I",1,"v","v",TRUE,1,0.395138119176595
"CVOE_C",2003,1,2,101,"A 98","","",FALSE,"CV","p",2798,"cv","A",8,"v","v",TRUE,1,0.60894131901424
"CVOE_C",2003,1,2,102,"H 29","","",FALSE,"CV","q",4971,"cv","H",9,"c","c",TRUE,1,1.83155803808582
"CVOE_C",2003,1,2,103,"E 83","","",TRUE,"CV","p",3643,"cv","E",3,"v","v",TRUE,1,1.08437211865321
"CVOE_C",2003,1,2,104,"D 43","","",FALSE,"CV","q",2207,"cv","D",3,"c","c",TRUE,1,0.276421079266745
"CVOE_C",2003,1,2,105,"P 45","","",TRUE,"CV","q",1323,"cv","P",5,"c","c",TRUE,1,-0.220952680355565
"CVOE_C",2003,1,2,106,"J 17","","",TRUE,"CV","q",1619,"cv","J",7,"c","c",TRUE,1,-0.0544112404820313
"CVOE updated",2001,1,1,11,"A 71","","",FALSE,"CV","p",4796,"cv","A",1,"v","v",TRUE,1,1.73309603816059
"CVOE updated",2001,1,1,12,"I 66","","",TRUE,"CV","p",1007,"cv","I",6,"v","v",TRUE,1,-0.398746920220554
"CVOE updated",2001,1,1,13,"S 30","","",FALSE,"CV","q",1346,"cv","S",0,"c","c",TRUE,1,-0.208011960365392
"CVOE updated",2001,1,1,14,"D 20","","",FALSE,"CV","q",1432,"cv","D",0,"c","c",TRUE,1,-0.159624920402135
"CVOE updated",2001,1,1,15,"I 31","","",FALSE,"CV","p",1395,"cv","I",1,"v","v",TRUE,1,-0.180442600386327
"CVOE updated",2001,1,1,16,"P 16","","",FALSE,"CV","q",1118,"cv","P",6,"c","c",TRUE,1,-0.336293880267979
"CVOE updated",2001,1,1,17,"A 49","","",FALSE,"CV","p",1321,"cv","A",9,"v","v",TRUE,1,-0.222077960354711
"CVOE updated",2001,1,1,18,"O 64","","",TRUE,"CV","p",1105,"cv","O",4,"v","v",TRUE,1,-0.343608200262424
"CVOE updated",2001,1,1,19,"D 02","","",FALSE,"CV","q",932,"cv","D",2,"c","c",TRUE,1,-0.44094492018851
"CVOE updated",2001,1,1,20,"P 81","","",TRUE,"CV","q",1202,"cv","P",1,"c","c",TRUE,1,-0.289032120303868
"CVOE updated",2001,1,1,21,"J 58","","",FALSE,"CV","q",1125,"cv","J",8,"c","c",TRUE,1,-0.332355400270969
"CVOE updated",2001,1,1,22,"A 22","","",TRUE,"CV","p",1484,"cv","A",2,"v","v",TRUE,1,-0.130367640424352
"CVOE updated",2001,1,1,23,"J 72","","",FALSE,"CV","q",2416,"cv","J",2,"c","c",TRUE,1,0.39401283917745
"CVOE updated",2001,1,1,24,"P 91","","",TRUE,"CV","q",1316,"cv","P",1,"c","c",TRUE,1,-0.224891160352574
"CVOE updated",2001,1,1,25,"E 19","","",FALSE,"CV","p",1122,"cv","E",9,"v","v",TRUE,1,-0.334043320269688
"CVOE updated",2001,1,1,26,"I 30","","",TRUE,"CV","p",1207,"cv","I",0,"v","v",TRUE,1,-0.286218920306004
"CVOE updated",2001,1,1,27,"D 91","","",TRUE,"CV","q",974,"cv","D",1,"c","c",TRUE,1,-0.417314040206455
"CVOE updated",2001,1,1,28,"O 48","","",TRUE,"CV","p",1406,"cv","O",8,"v","v",TRUE,1,-0.174253560391027
"CVOE updated",2001,1,1,29,"A 89","","",FALSE,"CV","p",1363,"cv","A",9,"v","v",TRUE,1,-0.198447080372655
"CVOE updated",2001,1,1,30,"U 11","","",FALSE,"CV","p",1158,"cv","U",1,"v","v",TRUE,1,-0.313788280285069
"CVOE updated",2001,1,1,31,"I 76","","",TRUE,"CV","p",1014,"cv","I",6,"v","v",TRUE,1,-0.394808440223545
"CVOE updated",2001,1,1,32,"U 89","","",FALSE,"CV","p",768,"cv","U",9,"v","v",TRUE,1,-0.533217880118441
"CVOE updated",2001,1,1,33,"D 63","","",TRUE,"CV","q",948,"cv","D",3,"c","c",TRUE,1,-0.431942680195346
"CVOE updated",2001,1,1,34,"H 70","","",FALSE,"CV","q",967,"cv","H",0,"c","c",TRUE,1,-0.421252520203464
"CVOE updated",2001,1,1,35,"D 48","","",FALSE,"CV","q",1163,"cv","D",8,"c","c",TRUE,1,-0.310975080287205
"CVOE updated",2001,1,1,36,"P 56","","",FALSE,"CV","q",1590,"cv","P",6,"c","c",TRUE,1,-0.070727800469641
"CVOE updated",2001,1,1,37,"O 77","","",FALSE,"CV","p",972,"cv","O",7,"v","v",TRUE,1,-0.4184393202056
"CVOE updated",2001,1,1,38,"P 42","","",FALSE,"CV","q",1130,"cv","P",2,"c","c",TRUE,1,-0.329542200273106
"CVOE updated",2001,1,1,39,"H 22","","",FALSE,"CV","q",1120,"cv","H",2,"c","c",TRUE,1,-0.335168600268833
"CVOE updated",2001,1,1,40,"E 42","","",TRUE,"CV","p",1126,"cv","E",2,"v","v",TRUE,1,-0.331792760271397
"CVOE updated",2001,1,1,41,"J 28","","",FALSE,"CV","q",1312,"cv","J",8,"c","c",TRUE,1,-0.227141720350865
"CVOE updated",2001,1,1,42,"E 95","","",FALSE,"CV","p",1354,"cv","E",5,"v","v",TRUE,1,-0.20351084036881
"CVOE updated",2001,1,1,43,"S 63","","",TRUE,"CV","q",969,"cv","S",3,"c","c",TRUE,1,-0.420127240204318
"CVOE updated",2001,1,1,44,"H 50","","",FALSE,"CV","q",1009,"cv","H",0,"c","c",TRUE,1,-0.397621640221408
"CVOE updated",2001,1,1,45,"S 33","","",TRUE,"CV","q",1155,"cv","S",3,"c","c",TRUE,1,-0.315476200283787
"CVOE updated",2001,1,1,46,"P 57","","",TRUE,"CV","q",1247,"cv","P",7,"c","c",TRUE,1,-0.263713320323094
"CVOE updated",2001,1,1,47,"E 23","","",FALSE,"CV","p",1002,"cv","E",3,"v","v",TRUE,1,-0.401560120218418
"CVOE updated",2001,1,1,48,"S 61","","",TRUE,"CV","q",929,"cv","S",1,"c","c",TRUE,1,-0.442632840187228
"CVOE updated",2001,1,1,49,"U 67","","",FALSE,"CV","p",1199,"cv","U",7,"v","v",TRUE,1,-0.290720040302586
"CVOE updated",2001,1,1,50,"H 32","","",FALSE,"CV","q",848,"cv","H",2,"c","c",TRUE,1,-0.488206680152621
"CVOE updated",2001,1,1,51,"U 50","","",TRUE,"CV","p",1083,"cv","U",0,"v","v",TRUE,1,-0.355986280253025
"CVOE updated",2001,1,1,52,"O 49","","",FALSE,"CV","p",967,"cv","O",9,"v","v",TRUE,1,-0.421252520203464
"CVOE updated",2001,1,1,53,"U 32","","",TRUE,"CV","p",889,"cv","U",2,"v","v",TRUE,1,-0.465138440170138
"CVOE updated",2001,1,1,54,"J 78","","",FALSE,"CV","q",1639,"cv","J",8,"c","c",TRUE,1,-0.0431584404905763
"CVOE updated",2001,1,1,55,"S 54","","",FALSE,"CV","p",1284,"cv","S",4,"c","v",FALSE,0,-0.242895640338902
"CVOE updated",2001,1,1,56,"J 27","","",TRUE,"CV","q",4611,"cv","J",7,"c","c",TRUE,1,1.62900763823963
"CVOE updated",2001,1,1,57,"S 06","","",FALSE,"CV","q",1201,"cv","S",6,"c","c",TRUE,1,-0.289594760303441
"CVOE updated",2001,1,1,58,"D 67","","",TRUE,"CV","q",969,"cv","D",7,"c","c",TRUE,1,-0.420127240204318
"CVOE updated",2001,1,1,59,"A 79","","",FALSE,"CV","p",1087,"cv","A",9,"v","v",TRUE,1,-0.353735720254734
"CVOE updated",2001,1,1,60,"S 52","","",FALSE,"CV","q",853,"cv","S",2,"c","c",TRUE,1,-0.485393480154757
"CVOE updated",2001,1,1,61,"U 16","","",TRUE,"CV","p",1009,"cv","U",6,"v","v",TRUE,1,-0.397621640221408
"CVOE updated",2001,1,1,62,"O 82","","",TRUE,"CV","p",898,"cv","O",2,"v","v",TRUE,1,-0.460074680173984
"CVOE updated",2001,1,1,63,"H 87","","",TRUE,"CV","q",809,"cv","H",7,"c","c",TRUE,1,-0.510149640135958
"CVOE updated",2001,1,1,64,"I 32","","",TRUE,"CV","p",961,"cv","I",2,"v","v",TRUE,1,-0.4246283602009
"CVOE updated",2001,1,1,65,"U 37","","",FALSE,"CV","p",1157,"cv","U",7,"v","v",TRUE,1,-0.314350920284641
"CVOE updated",2001,1,1,66,"I 42","","",TRUE,"CV","p",895,"cv","I",2,"v","v",TRUE,1,-0.461762600172702
"CVOE updated",2001,1,1,67,"D 65","","",TRUE,"CV","p",1002,"cv","D",5,"c","v",FALSE,0,-0.401560120218418
"CVOE updated",2001,1,1,68,"U 77","","",FALSE,"CV","q",264,"cv","U",7,"v","c",FALSE,0,-0.816788439903107
"CVOE updated",2001,1,1,69,"E 12","","",TRUE,"CV","q",1358,"cv","E",2,"v","c",FALSE,0,-0.201260280370519
"CVOE updated",2001,1,1,70,"I 60","","",TRUE,"CV","p",1601,"cv","I",0,"v","v",TRUE,1,-0.0645387604743407
"CVOE updated",2001,1,1,71,"J 36","","",FALSE,"CV","p",4726,"cv","J",6,"c","v",FALSE,0,1.6937112381905
"CVOE updated",2001,1,1,72,"H 75","","",TRUE,"CV","q",1122,"cv","H",5,"c","c",TRUE,1,-0.334043320269688
"CVOE updated",2001,1,1,73,"I 50","","",TRUE,"CV","p",1051,"cv","I",0,"v","v",TRUE,1,-0.373990760239353
"CVOE updated",2001,1,1,74,"E 99","","",FALSE,"CV","p",1198,"cv","E",9,"v","v",TRUE,1,-0.291282680302159
"CVOE updated",2001,1,1,75,"A 86","","",TRUE,"CV","p",1160,"cv","A",6,"v","v",TRUE,1,-0.312663000285923
"CVOE updated",2001,1,1,76,"U 48","","",TRUE,"CV","p",921,"cv","U",8,"v","v",TRUE,1,-0.44713396018381
"CVOE updated",2001,1,1,77,"E 01","","",FALSE,"CV","p",1207,"cv","E",1,"v","v",TRUE,1,-0.286218920306004
"CVOE updated",2001,1,1,78,"A 78","","",TRUE,"CV","p",777,"cv","A",8,"v","v",TRUE,1,-0.528154120122286
"CVOE updated",2001,1,1,79,"P 60","","",FALSE,"CV","q",1041,"cv","P",0,"c","c",TRUE,1,-0.37961716023508
"CVOE updated",2001,1,1,80,"E 43","","",FALSE,"CV","p",974,"cv","E",3,"v","v",TRUE,1,-0.417314040206455
"CVOE updated",2001,1,1,81,"D 69","","",TRUE,"CV","q",1036,"cv","D",9,"c","c",TRUE,1,-0.382430360232944
"CVOE updated",2001,1,1,82,"H 11","","",TRUE,"CV","q",1010,"cv","H",1,"c","c",TRUE,1,-0.397059000221836
"CVOE updated",2001,1,1,83,"P 43","","",TRUE,"CV","q",960,"cv","P",3,"c","c",TRUE,1,-0.425191000200473
"CVOE updated",2001,1,1,84,"O 67","","",FALSE,"CV","p",843,"cv","O",7,"v","v",TRUE,1,-0.491019880150485
"CVOE updated",2001,1,1,85,"S 91","","",FALSE,"CV","q",806,"cv","S",1,"c","c",TRUE,1,-0.511837560134677
"CVOE updated",2001,1,1,86,"J 68","","",TRUE,"CV","q",1520,"cv","J",8,"c","c",TRUE,1,-0.110112600439733
"CVOE updated",2001,1,1,87,"S 47","","",FALSE,"CV","q",1008,"cv","S",7,"c","c",TRUE,1,-0.398184280220981
"CVOE updated",2001,1,1,88,"I 81","","",TRUE,"CV","p",998,"cv","I",1,"v","v",TRUE,1,-0.403810680216709
"CVOE updated",2001,1,1,89,"J 39","","",FALSE,"CV","q",1553,"cv","J",9,"c","c",TRUE,1,-0.0915454804538327
"CVOE updated",2001,1,1,90,"A 11","","",TRUE,"CV","p",1142,"cv","A",1,"v","v",TRUE,1,-0.322790520278233
"CVOE updated",2001,1,1,91,"O 76","","",FALSE,"CV","p",1076,"cv","O",6,"v","v",TRUE,1,-0.359924760250034
"CVOE updated",2001,1,1,92,"A 62","","",FALSE,"CV","p",999,"cv","A",2,"v","v",TRUE,1,-0.403248040217136
"CVOE updated",2001,1,1,93,"O 27","","",TRUE,"CV","p",809,"cv","O",7,"v","v",TRUE,1,-0.510149640135958
"CVOE updated",2001,1,1,94,"E 66","","",FALSE,"CV","p",1196,"cv","E",6,"v","v",TRUE,1,-0.292407960301304
"CVOE updated",2001,1,1,95,"J 62","","",TRUE,"CV","q",1197,"cv","J",2,"c","c",TRUE,1,-0.291845320301731
"CVOE updated",2001,1,1,96,"H 72","","",TRUE,"CV","q",1238,"cv","H",2,"c","c",TRUE,1,-0.268777080319249
"CVOE updated",2001,1,1,97,"E 49","","",TRUE,"CV","p",932,"cv","E",9,"v","v",TRUE,1,-0.44094492018851
"CVOE updated",2001,1,1,98,"D 52","","",TRUE,"CV","q",887,"cv","D",2,"c","c",TRUE,1,-0.466263720169284
"CVOE updated",2001,1,1,99,"H 62","","",TRUE,"CV","q",1050,"cv","H",2,"c","c",TRUE,1,-0.374553400238926
"CVOE updated",2001,1,1,100,"I 11","","",TRUE,"CV","p",928,"cv","I",1,"v","v",TRUE,1,-0.443195480186801
"CVOE updated",2001,1,1,101,"A 98","","",FALSE,"CV","p",1079,"cv","A",8,"v","v",TRUE,1,-0.358236840251316
"CVOE updated",2001,1,1,102,"H 29","","",FALSE,"CV","q",1119,"cv","H",9,"c","c",TRUE,1,-0.335731240268406
"CVOE updated",2001,1,1,103,"E 83","","",TRUE,"CV","p",1244,"cv","E",3,"v","v",TRUE,1,-0.265401240321812
"CVOE updated",2001,1,1,104,"D 43","","",FALSE,"CV","q",843,"cv","D",3,"c","c",TRUE,1,-0.491019880150485
"CVOE updated",2001,1,1,105,"P 45","","",TRUE,"CV","p",1039,"cv","P",5,"c","v",FALSE,0,-0.380742440234226
"CVOE updated",2001,1,1,106,"J 17","","",TRUE,"CV","q",2383,"cv","J",7,"c","c",TRUE,1,0.375445719191549
"CVOE_B",1002,1,2,11,"A 71","","",FALSE,"CV","p",4490,"cv","A",1,"v","v",TRUE,1,1.56092819829133
"CVOE_B",1002,1,2,12,"I 66","","",TRUE,"CV","p",1197,"cv","I",6,"v","v",TRUE,1,-0.291845320301731
"CVOE_B",1002,1,2,13,"S 30","","",FALSE,"CV","q",1276,"cv","S",0,"c","c",TRUE,1,-0.247396760335484
"CVOE_B",1002,1,2,14,"D 20","","",FALSE,"CV","q",1076,"cv","D",0,"c","c",TRUE,1,-0.359924760250034
"CVOE_B",1002,1,2,15,"I 31","","",FALSE,"CV","p",921,"cv","I",1,"v","v",TRUE,1,-0.44713396018381
"CVOE_B",1002,1,2,16,"P 16","","",FALSE,"CV","q",931,"cv","P",6,"c","c",TRUE,1,-0.441507560188083
"CVOE_B",1002,1,2,17,"A 49","","",FALSE,"CV","p",886,"cv","A",9,"v","v",TRUE,1,-0.466826360168857
"CVOE_B",1002,1,2,18,"O 64","","",TRUE,"CV","p",734,"cv","O",4,"v","v",TRUE,1,-0.552347640103914
"CVOE_B",1002,1,2,19,"D 02","","",FALSE,"CV","q",812,"cv","D",2,"c","c",TRUE,1,-0.50846172013724
"CVOE_B",1002,1,2,20,"P 81","","",TRUE,"CV","q",1079,"cv","P",1,"c","c",TRUE,1,-0.358236840251316
"CVOE_B",1002,1,2,21,"J 58","","",FALSE,"CV","q",1119,"cv","J",8,"c","c",TRUE,1,-0.335731240268406
"CVOE_B",1002,1,2,22,"A 22","","",TRUE,"CV","p",928,"cv","A",2,"v","v",TRUE,1,-0.443195480186801
"CVOE_B",1002,1,2,23,"J 72","","",FALSE,"CV","q",883,"cv","J",2,"c","c",TRUE,1,-0.468514280167575
"CVOE_B",1002,1,2,24,"P 91","","",TRUE,"CV","q",966,"cv","P",1,"c","c",TRUE,1,-0.421815160203037
"CVOE_B",1002,1,2,25,"E 19","","",FALSE,"CV","p",811,"cv","E",9,"v","v",TRUE,1,-0.509024360136813
"CVOE_B",1002,1,2,26,"I 30","","",TRUE,"CV","p",883,"cv","I",0,"v","v",TRUE,1,-0.468514280167575
"CVOE_B",1002,1,2,27,"D 91","","",TRUE,"CV","q",927,"cv","D",1,"c","c",TRUE,1,-0.443758120186374
"CVOE_B",1002,1,2,28,"O 48","","",TRUE,"CV","p",726,"cv","O",8,"v","v",TRUE,1,-0.556848760100496
"CVOE_B",1002,1,2,29,"A 89","","",FALSE,"CV","p",802,"cv","A",9,"v","v",TRUE,1,-0.514088120132967
"CVOE_B",1002,1,2,30,"U 11","","",FALSE,"CV","q",773,"cv","U",1,"v","c",FALSE,0,-0.530404680120577
"CVOE_B",1002,1,2,31,"I 76","","",TRUE,"CV","p",1857,"cv","I",6,"v","v",TRUE,1,0.0794970794162831
"CVOE_B",1002,1,2,32,"U 89","","",FALSE,"CV","p",1167,"cv","U",9,"v","v",TRUE,1,-0.308724520288914
"CVOE_B",1002,1,2,33,"D 63","","",TRUE,"CV","q",965,"cv","D",3,"c","c",TRUE,1,-0.422377800202609
"CVOE_B",1002,1,2,34,"H 70","","",FALSE,"CV","q",1982,"cv","H",0,"c","c",TRUE,1,0.149827079362877
"CVOE_B",1002,1,2,35,"D 48","","",FALSE,"CV","q",1354,"cv","D",8,"c","c",TRUE,1,-0.20351084036881
"CVOE_B",1002,1,2,36,"P 56","","",FALSE,"CV","q",891,"cv","P",6,"c","c",TRUE,1,-0.464013160170993
"CVOE_B",1002,1,2,37,"O 77","","",FALSE,"CV","p",723,"cv","O",7,"v","v",TRUE,1,-0.558536680099215
"CVOE_B",1002,1,2,38,"P 42","","",FALSE,"CV","q",660,"cv","P",2,"c","c",TRUE,1,-0.593983000072298
"CVOE_B",1002,1,2,39,"H 22","","",FALSE,"CV","q",843,"cv","H",2,"c","c",TRUE,1,-0.491019880150485
"CVOE_B",1002,1,2,40,"E 42","","",TRUE,"CV","p",725,"cv","E",2,"v","v",TRUE,1,-0.557411400100069
"CVOE_B",1002,1,2,41,"J 28","","",FALSE,"CV","q",997,"cv","J",8,"c","c",TRUE,1,-0.404373320216281
"CVOE_B",1002,1,2,42,"E 95","","",FALSE,"CV","p",690,"cv","E",5,"v","v",TRUE,1,-0.577103800085115
"CVOE_B",1002,1,2,43,"S 63","","",TRUE,"CV","q",817,"cv","S",3,"c","c",TRUE,1,-0.505648520139376
"CVOE_B",1002,1,2,44,"H 50","","",FALSE,"CV","q",889,"cv","H",0,"c","c",TRUE,1,-0.465138440170138
"CVOE_B",1002,1,2,45,"S 33","","",TRUE,"CV","q",1285,"cv","S",3,"c","c",TRUE,1,-0.24233300033933
"CVOE_B",1002,1,2,46,"P 57","","",TRUE,"CV","q",1632,"cv","P",7,"c","c",TRUE,1,-0.0470969204875855
"CVOE_B",1002,1,2,47,"E 23","","",FALSE,"CV","p",728,"cv","E",3,"v","v",TRUE,1,-0.555723480101351
"CVOE_B",1002,1,2,48,"S 61","","",TRUE,"CV","q",649,"cv","S",1,"c","c",TRUE,1,-0.600172040067598
"CVOE_B",1002,1,2,49,"U 67","","",FALSE,"CV","p",614,"cv","U",7,"v","v",TRUE,1,-0.619864440052644
"CVOE_B",1002,1,2,50,"H 32","","",FALSE,"CV","q",690,"cv","H",2,"c","c",TRUE,1,-0.577103800085115
"CVOE_B",1002,1,2,51,"U 50","","",TRUE,"CV","p",645,"cv","U",0,"v","v",TRUE,1,-0.602422600065889
"CVOE_B",1002,1,2,52,"O 49","","",FALSE,"CV","p",766,"cv","O",9,"v","v",TRUE,1,-0.534343160117587
"CVOE_B",1002,1,2,53,"U 32","","",TRUE,"CV","p",631,"cv","U",2,"v","v",TRUE,1,-0.610299560059908
"CVOE_B",1002,1,2,54,"J 78","","",FALSE,"CV","q",848,"cv","J",8,"c","c",TRUE,1,-0.488206680152621
"CVOE_B",1002,1,2,55,"S 54","","",FALSE,"CV","q",886,"cv","S",4,"c","c",TRUE,1,-0.466826360168857
"CVOE_B",1002,1,2,56,"J 27","","",TRUE,"CV","q",1400,"cv","J",7,"c","c",TRUE,1,-0.177629400388463
"CVOE_B",1002,1,2,57,"S 06","","",FALSE,"CV","q",651,"cv","S",6,"c","c",TRUE,1,-0.599046760068453
"CVOE_B",1002,1,2,58,"D 67","","",TRUE,"CV","q",736,"cv","D",7,"c","c",TRUE,1,-0.551222360104769
"CVOE_B",1002,1,2,59,"A 79","","",FALSE,"CV","p",735,"cv","A",9,"v","v",TRUE,1,-0.551785000104342
"CVOE_B",1002,1,2,60,"S 52","","",FALSE,"CV","q",812,"cv","S",2,"c","c",TRUE,1,-0.50846172013724
"CVOE_B",1002,1,2,61,"U 16","","",TRUE,"CV","p",649,"cv","U",6,"v","v",TRUE,1,-0.600172040067598
"CVOE_B",1002,1,2,62,"O 82","","",TRUE,"CV","p",614,"cv","O",2,"v","v",TRUE,1,-0.619864440052644
"CVOE_B",1002,1,2,63,"H 87","","",TRUE,"CV","q",730,"cv","H",7,"c","c",TRUE,1,-0.554598200102206
"CVOE_B",1002,1,2,64,"I 32","","",TRUE,"CV","p",807,"cv","I",2,"v","v",TRUE,1,-0.511274920135104
"CVOE_B",1002,1,2,65,"U 37","","",FALSE,"CV","p",762,"cv","U",7,"v","v",TRUE,1,-0.536593720115877
"CVOE_B",1002,1,2,66,"I 42","","",TRUE,"CV","p",766,"cv","I",2,"v","v",TRUE,1,-0.534343160117587
"CVOE_B",1002,1,2,67,"D 65","","",TRUE,"CV","q",693,"cv","D",5,"c","c",TRUE,1,-0.575415880086397
"CVOE_B",1002,1,2,68,"U 77","","",FALSE,"CV","p",646,"cv","U",7,"v","v",TRUE,1,-0.601859960066316
"CVOE_B",1002,1,2,69,"E 12","","",TRUE,"CV","p",611,"cv","E",2,"v","v",TRUE,1,-0.621552360051363
"CVOE_B",1002,1,2,70,"I 60","","",TRUE,"CV","p",727,"cv","I",0,"v","v",TRUE,1,-0.556286120100924
"CVOE_B",1002,1,2,71,"J 36","","",FALSE,"CV","q",687,"cv","J",6,"c","c",TRUE,1,-0.578791720083834
"CVOE_B",1002,1,2,72,"H 75","","",TRUE,"CV","q",814,"cv","H",5,"c","c",TRUE,1,-0.507336440138095
"CVOE_B",1002,1,2,73,"I 50","","",TRUE,"CV","p",769,"cv","I",0,"v","v",TRUE,1,-0.532655240118868
"CVOE_B",1002,1,2,74,"E 99","","",FALSE,"CV","p",734,"cv","E",9,"v","v",TRUE,1,-0.552347640103914
"CVOE_B",1002,1,2,75,"A 86","","",TRUE,"CV","p",772,"cv","A",6,"v","v",TRUE,1,-0.53096732012015
"CVOE_B",1002,1,2,76,"U 48","","",TRUE,"CV","p",737,"cv","U",8,"v","v",TRUE,1,-0.550659720105196
"CVOE_B",1002,1,2,77,"E 01","","",FALSE,"CV","p",737,"cv","E",1,"v","v",TRUE,1,-0.550659720105196
"CVOE_B",1002,1,2,78,"A 78","","",TRUE,"CV","p",870,"cv","A",8,"v","v",TRUE,1,-0.475828600162021
"CVOE_B",1002,1,2,79,"P 60","","",FALSE,"CV","q",1243,"cv","P",0,"c","c",TRUE,1,-0.265963880321385
"CVOE_B",1002,1,2,80,"E 43","","",FALSE,"CV","p",763,"cv","E",3,"v","v",TRUE,1,-0.536031080116305
"CVOE_B",1002,1,2,81,"D 69","","",TRUE,"CV","q",1003,"cv","D",9,"c","c",TRUE,1,-0.400997480218845
"CVOE_B",1002,1,2,82,"H 11","","",TRUE,"CV","q",1126,"cv","H",1,"c","c",TRUE,1,-0.331792760271397
"CVOE_B",1002,1,2,83,"P 43","","",TRUE,"CV","q",1075,"cv","P",3,"c","c",TRUE,1,-0.360487400249607
"CVOE_B",1002,1,2,84,"O 67","","",FALSE,"CV","p",645,"cv","O",7,"v","v",TRUE,1,-0.602422600065889
"CVOE_B",1002,1,2,85,"S 91","","",FALSE,"CV","q",649,"cv","S",1,"c","c",TRUE,1,-0.600172040067598
"CVOE_B",1002,1,2,86,"J 68","","",TRUE,"CV","q",693,"cv","J",8,"c","c",TRUE,1,-0.575415880086397
"CVOE_B",1002,1,2,87,"S 47","","",FALSE,"CV","q",724,"cv","S",7,"c","c",TRUE,1,-0.557974040099642
"CVOE_B",1002,1,2,88,"I 81","","",TRUE,"CV","p",762,"cv","I",1,"v","v",TRUE,1,-0.536593720115877
"CVOE_B",1002,1,2,89,"J 39","","",FALSE,"CV","q",649,"cv","J",9,"c","c",TRUE,1,-0.600172040067598
"CVOE_B",1002,1,2,90,"A 11","","",TRUE,"CV","p",656,"cv","A",1,"v","v",TRUE,1,-0.596233560070589
"CVOE_B",1002,1,2,91,"O 76","","",FALSE,"CV","p",560,"cv","O",6,"v","v",TRUE,1,-0.650247000029573
"CVOE_B",1002,1,2,92,"A 62","","",FALSE,"CV","p",608,"cv","A",2,"v","v",TRUE,1,-0.623240280050081
"CVOE_B",1002,1,2,93,"O 27","","",TRUE,"CV","p",920,"cv","O",7,"v","v",TRUE,1,-0.447696600183383
"CVOE_B",1002,1,2,94,"E 66","","",FALSE,"CV","p",657,"cv","E",6,"v","v",TRUE,1,-0.595670920071016
"CVOE_B",1002,1,2,95,"J 62","","",TRUE,"CV","q",762,"cv","J",2,"c","c",TRUE,1,-0.536593720115877
"CVOE_B",1002,1,2,96,"H 72","","",TRUE,"CV","q",610,"cv","H",2,"c","c",TRUE,1,-0.622115000050935
"CVOE_B",1002,1,2,97,"E 49","","",TRUE,"CV","p",726,"cv","E",9,"v","v",TRUE,1,-0.556848760100496
"CVOE_B",1002,1,2,98,"D 52","","",TRUE,"CV","q",607,"cv","D",2,"c","c",TRUE,1,-0.623802920049654
"CVOE_B",1002,1,2,99,"H 62","","",TRUE,"CV","q",722,"cv","H",2,"c","c",TRUE,1,-0.559099320098787
"CVOE_B",1002,1,2,100,"I 11","","",TRUE,"CV","p",738,"cv","I",1,"v","v",TRUE,1,-0.550097080105623
"CVOE_B",1002,1,2,101,"A 98","","",FALSE,"CV","p",620,"cv","A",8,"v","v",TRUE,1,-0.616488600055208
"CVOE_B",1002,1,2,102,"H 29","","",FALSE,"CV","q",697,"cv","H",9,"c","c",TRUE,1,-0.573165320088106
"CVOE_B",1002,1,2,103,"E 83","","",TRUE,"CV","p",689,"cv","E",3,"v","v",TRUE,1,-0.577666440084688
"CVOE_B",1002,1,2,104,"D 43","","",FALSE,"CV","q",817,"cv","D",3,"c","c",TRUE,1,-0.505648520139376
"CVOE_B",1002,1,2,105,"P 45","","",TRUE,"CV","q",654,"cv","P",5,"c","c",TRUE,1,-0.597358840069734
"CVOE_B",1002,1,2,106,"J 17","","",TRUE,"CV","q",699,"cv","J",7,"c","c",TRUE,1,-0.572040040088961
"CVOE_B",2002,1,2,11,"A 71","","",FALSE,"CV","p",5270,"cv","A",1,"v","v",TRUE,1,1.99978739795808
"CVOE_B",2002,1,2,12,"I 66","","",TRUE,"CV","p",1304,"cv","I",6,"v","v",TRUE,1,-0.231642840347447
"CVOE_B",2002,1,2,13,"S 30","","",FALSE,"CV","q",891,"cv","S",0,"c","c",TRUE,1,-0.464013160170993
"CVOE_B",2002,1,2,14,"D 20","","",FALSE,"CV","q",1271,"cv","D",0,"c","c",TRUE,1,-0.250209960333348
"CVOE_B",2002,1,2,15,"I 31","","",FALSE,"CV","p",618,"cv","I",1,"v","v",TRUE,1,-0.617613880054353
"CVOE_B",2002,1,2,16,"P 16","","",FALSE,"CV","q",655,"cv","P",6,"c","c",TRUE,1,-0.596796200070162
"CVOE_B",2002,1,2,17,"A 49","","",FALSE,"CV","p",738,"cv","A",9,"v","v",TRUE,1,-0.550097080105623
"CVOE_B",2002,1,2,18,"O 64","","",TRUE,"CV","p",698,"cv","O",4,"v","v",TRUE,1,-0.572602680088533
"CVOE_B",2002,1,2,19,"D 02","","",FALSE,"CV","q",809,"cv","D",2,"c","c",TRUE,1,-0.510149640135958
"CVOE_B",2002,1,2,20,"P 81","","",TRUE,"CV","p",608,"cv","P",1,"c","v",FALSE,0,-0.623240280050081
"CVOE_B",2002,1,2,21,"J 58","","",FALSE,"CV","p",489,"cv","J",8,"c","v",FALSE,0,-0.690194439999238
"CVOE_B",2002,1,2,22,"A 22","","",TRUE,"CV","q",543,"cv","A",2,"v","c",FALSE,0,-0.65981188002231
"CVOE_B",2002,1,2,23,"J 72","","",FALSE,"CV","q",2409,"cv","J",2,"c","c",TRUE,1,0.390074359180441
"CVOE_B",2002,1,2,24,"P 91","","",TRUE,"CV","q",1519,"cv","P",1,"c","c",TRUE,1,-0.110675240439306
"CVOE_B",2002,1,2,25,"E 19","","",FALSE,"CV","p",615,"cv","E",9,"v","v",TRUE,1,-0.619301800053072
"CVOE_B",2002,1,2,26,"I 30","","",TRUE,"CV","p",1827,"cv","I",0,"v","v",TRUE,1,0.0626178794291006
"CVOE_B",2002,1,2,27,"D 91","","",TRUE,"CV","q",801,"cv","D",1,"c","c",TRUE,1,-0.51465076013254
"CVOE_B",2002,1,2,28,"O 48","","",TRUE,"CV","p",655,"cv","O",8,"v","v",TRUE,1,-0.596796200070162
"CVOE_B",2002,1,2,29,"A 89","","",FALSE,"CV","p",816,"cv","A",9,"v","v",TRUE,1,-0.506211160138949
"CVOE_B",2002,1,2,30,"U 11","","",FALSE,"CV","p",653,"cv","U",1,"v","v",TRUE,1,-0.597921480069307
"CVOE_B",2002,1,2,31,"I 76","","",TRUE,"CV","p",597,"cv","I",6,"v","v",TRUE,1,-0.629429320045381
"CVOE_B",2002,1,2,32,"U 89","","",FALSE,"CV","p",573,"cv","U",9,"v","v",TRUE,1,-0.642932680035127
"CVOE_B",2002,1,2,33,"D 63","","",TRUE,"CV","q",974,"cv","D",3,"c","c",TRUE,1,-0.417314040206455
"CVOE_B",2002,1,2,34,"H 70","","",FALSE,"CV","q",896,"cv","H",0,"c","c",TRUE,1,-0.461199960173129
"CVOE_B",2002,1,2,35,"D 48","","",FALSE,"CV","q",571,"cv","D",8,"c","c",TRUE,1,-0.644057960034273
"CVOE_B",2002,1,2,36,"P 56","","",FALSE,"CV","q",659,"cv","P",6,"c","c",TRUE,1,-0.594545640071871
"CVOE_B",2002,1,2,37,"O 77","","",FALSE,"CV","p",610,"cv","O",7,"v","v",TRUE,1,-0.622115000050935
"CVOE_B",2002,1,2,38,"P 42","","",FALSE,"CV","q",648,"cv","P",2,"c","c",TRUE,1,-0.600734680067171
"CVOE_B",2002,1,2,39,"H 22","","",FALSE,"CV","q",535,"cv","H",2,"c","c",TRUE,1,-0.664313000018892
"CVOE_B",2002,1,2,40,"E 42","","",TRUE,"CV","p",617,"cv","E",2,"v","v",TRUE,1,-0.618176520053926
"CVOE_B",2002,1,2,41,"J 28","","",FALSE,"CV","q",537,"cv","J",8,"c","c",TRUE,1,-0.663187720019746
"CVOE_B",2002,1,2,42,"E 95","","",FALSE,"CV","p",542,"cv","E",5,"v","v",TRUE,1,-0.660374520021882
"CVOE_B",2002,1,2,43,"S 63","","",TRUE,"CV","q",820,"cv","S",3,"c","c",TRUE,1,-0.503960600140658
"CVOE_B",2002,1,2,44,"H 50","","",FALSE,"CV","q",539,"cv","H",0,"c","c",TRUE,1,-0.662062440020601
"CVOE_B",2002,1,2,45,"S 33","","",TRUE,"CV","q",487,"cv","S",3,"c","c",TRUE,1,-0.691319719998384
"CVOE_B",2002,1,2,46,"P 57","","",TRUE,"CV","q",502,"cv","P",7,"c","c",TRUE,1,-0.682880120004792
"CVOE_B",2002,1,2,47,"E 23","","",FALSE,"CV","p",540,"cv","E",3,"v","v",TRUE,1,-0.661499800021028
"CVOE_B",2002,1,2,48,"S 61","","",TRUE,"CV","q",528,"cv","S",1,"c","c",TRUE,1,-0.668251480015901
"CVOE_B",2002,1,2,49,"U 67","","",FALSE,"CV","p",649,"cv","U",7,"v","v",TRUE,1,-0.600172040067598
"CVOE_B",2002,1,2,50,"H 32","","",FALSE,"CV","q",1045,"cv","H",2,"c","c",TRUE,1,-0.377366600236789
"CVOE_B",2002,1,2,51,"U 50","","",TRUE,"CV","p",570,"cv","U",0,"v","v",TRUE,1,-0.644620600033845
"CVOE_B",2002,1,2,52,"O 49","","",FALSE,"CV","p",596,"cv","O",9,"v","v",TRUE,1,-0.629991960044954
"CVOE_B",2002,1,2,53,"U 32","","",TRUE,"CV","p",573,"cv","U",2,"v","v",TRUE,1,-0.642932680035127
"CVOE_B",2002,1,2,54,"J 78","","",FALSE,"CV","q",700,"cv","J",8,"c","c",TRUE,1,-0.571477400089388
"CVOE_B",2002,1,2,55,"S 54","","",FALSE,"CV","q",615,"cv","S",4,"c","c",TRUE,1,-0.619301800053072
"CVOE_B",2002,1,2,56,"J 27","","",TRUE,"CV","q",614,"cv","J",7,"c","c",TRUE,1,-0.619864440052644
"CVOE_B",2002,1,2,57,"S 06","","",FALSE,"CV","q",769,"cv","S",6,"c","c",TRUE,1,-0.532655240118868
"CVOE_B",2002,1,2,58,"D 67","","",TRUE,"CV","q",1792,"cv","D",7,"c","c",TRUE,1,0.0429254794440544
"CVOE_B",2002,1,2,59,"A 79","","",FALSE,"CV","p",464,"cv","A",9,"v","v",TRUE,1,-0.704260439988557
"CVOE_B",2002,1,2,60,"S 52","","",FALSE,"CV","q",847,"cv","S",2,"c","c",TRUE,1,-0.488769320152194
"CVOE_B",2002,1,2,61,"U 16","","",TRUE,"CV","p",456,"cv","U",6,"v","v",TRUE,1,-0.708761559985139
"CVOE_B",2002,1,2,62,"O 82","","",TRUE,"CV","p",661,"cv","O",2,"v","v",TRUE,1,-0.593420360072725
"CVOE_B",2002,1,2,63,"H 87","","",TRUE,"CV","q",1041,"cv","H",7,"c","c",TRUE,1,-0.37961716023508
"CVOE_B",2002,1,2,64,"I 32","","",TRUE,"CV","p",584,"cv","I",2,"v","v",TRUE,1,-0.636743640039827
"CVOE_B",2002,1,2,65,"U 37","","",FALSE,"CV","p",499,"cv","U",7,"v","v",TRUE,1,-0.684568040003511
"CVOE_B",2002,1,2,66,"I 42","","",TRUE,"CV","p",458,"cv","I",2,"v","v",TRUE,1,-0.707636279985993
"CVOE_B",2002,1,2,67,"D 65","","",TRUE,"CV","q",685,"cv","D",5,"c","c",TRUE,1,-0.579917000082979
"CVOE_B",2002,1,2,68,"U 77","","",FALSE,"CV","p",422,"cv","U",7,"v","v",TRUE,1,-0.727891319970612
"CVOE_B",2002,1,2,69,"E 12","","",TRUE,"CV","p",621,"cv","E",2,"v","v",TRUE,1,-0.615925960055635
"CVOE_B",2002,1,2,70,"I 60","","",TRUE,"CV","p",502,"cv","I",0,"v","v",TRUE,1,-0.682880120004792
"CVOE_B",2002,1,2,71,"J 36","","",FALSE,"CV","q",618,"cv","J",6,"c","c",TRUE,1,-0.617613880054353
"CVOE_B",2002,1,2,72,"H 75","","",TRUE,"CV","p",460,"cv","H",5,"c","v",FALSE,0,-0.706510999986848
"CVOE_B",2002,1,2,73,"I 50","","",TRUE,"CV","q",1235,"cv","I",0,"v","c",FALSE,0,-0.270465000317967
"CVOE_B",2002,1,2,74,"E 99","","",FALSE,"CV","p",733,"cv","E",9,"v","v",TRUE,1,-0.552910280103487
"CVOE_B",2002,1,2,75,"A 86","","",TRUE,"CV","p",967,"cv","A",6,"v","v",TRUE,1,-0.421252520203464
"CVOE_B",2002,1,2,76,"U 48","","",TRUE,"CV","p",615,"cv","U",8,"v","v",TRUE,1,-0.619301800053072
"CVOE_B",2002,1,2,77,"E 01","","",FALSE,"CV","p",748,"cv","E",1,"v","v",TRUE,1,-0.544470680109896
"CVOE_B",2002,1,2,78,"A 78","","",TRUE,"CV","p",1200,"cv","A",8,"v","v",TRUE,1,-0.290157400303013
"CVOE_B",2002,1,2,79,"P 60","","",FALSE,"CV","q",731,"cv","P",0,"c","c",TRUE,1,-0.554035560102633
"CVOE_B",2002,1,2,80,"E 43","","",FALSE,"CV","p",574,"cv","E",3,"v","v",TRUE,1,-0.642370040035554
"CVOE_B",2002,1,2,81,"D 69","","",TRUE,"CV","q",645,"cv","D",9,"c","c",TRUE,1,-0.602422600065889
"CVOE_B",2002,1,2,82,"H 11","","",TRUE,"CV","q",571,"cv","H",1,"c","c",TRUE,1,-0.644057960034273
"CVOE_B",2002,1,2,83,"P 43","","",TRUE,"CV","q",581,"cv","P",3,"c","c",TRUE,1,-0.638431560038545
"CVOE_B",2002,1,2,84,"O 67","","",FALSE,"CV","p",652,"cv","O",7,"v","v",TRUE,1,-0.59848412006888
"CVOE_B",2002,1,2,85,"S 91","","",FALSE,"CV","q",735,"cv","S",1,"c","c",TRUE,1,-0.551785000104342
"CVOE_B",2002,1,2,86,"J 68","","",TRUE,"CV","q",852,"cv","J",8,"c","c",TRUE,1,-0.48595612015433
"CVOE_B",2002,1,2,87,"S 47","","",FALSE,"CV","q",538,"cv","S",7,"c","c",TRUE,1,-0.662625080020173
"CVOE_B",2002,1,2,88,"I 81","","",TRUE,"CV","p",581,"cv","I",1,"v","v",TRUE,1,-0.638431560038545
"CVOE_B",2002,1,2,89,"J 39","","",FALSE,"CV","q",614,"cv","J",9,"c","c",TRUE,1,-0.619864440052644
"CVOE_B",2002,1,2,90,"A 11","","",TRUE,"CV","p",612,"cv","A",1,"v","v",TRUE,1,-0.62098972005179
"CVOE_B",2002,1,2,91,"O 76","","",FALSE,"CV","p",1276,"cv","O",6,"v","v",TRUE,1,-0.247396760335484
"CVOE_B",2002,1,2,92,"A 62","","",FALSE,"CV","p",841,"cv","A",2,"v","v",TRUE,1,-0.49214516014963
"CVOE_B",2002,1,2,93,"O 27","","",TRUE,"CV","p",527,"cv","O",7,"v","v",TRUE,1,-0.668814120015474
"CVOE_B",2002,1,2,94,"E 66","","",FALSE,"CV","p",573,"cv","E",6,"v","v",TRUE,1,-0.642932680035127
"CVOE_B",2002,1,2,95,"J 62","","",TRUE,"CV","q",854,"cv","J",2,"c","c",TRUE,1,-0.484830840155185
"CVOE_B",2002,1,2,96,"H 72","","",TRUE,"CV","q",1206,"cv","H",2,"c","c",TRUE,1,-0.286781560305577
"CVOE_B",2002,1,2,97,"E 49","","",TRUE,"CV","p",1324,"cv","E",9,"v","v",TRUE,1,-0.220390040355992
"CVOE_B",2002,1,2,98,"D 52","","",TRUE,"CV","q",895,"cv","D",2,"c","c",TRUE,1,-0.461762600172702
"CVOE_B",2002,1,2,99,"H 62","","",TRUE,"CV","q",805,"cv","H",2,"c","c",TRUE,1,-0.512400200134249
"CVOE_B",2002,1,2,100,"I 11","","",TRUE,"CV","p",620,"cv","I",1,"v","v",TRUE,1,-0.616488600055208
"CVOE_B",2002,1,2,101,"A 98","","",FALSE,"CV","p",736,"cv","A",8,"v","v",TRUE,1,-0.551222360104769
"CVOE_B",2002,1,2,102,"H 29","","",FALSE,"CV","q",735,"cv","H",9,"c","c",TRUE,1,-0.551785000104342
"CVOE_B",2002,1,2,103,"E 83","","",TRUE,"CV","q",1009,"cv","E",3,"v","c",FALSE,0,-0.397621640221408
"CVOE_B",2002,1,2,104,"D 43","","",FALSE,"CV","p",998,"cv","D",3,"c","v",FALSE,0,-0.403810680216709
"CVOE_B",2002,1,2,105,"P 45","","",TRUE,"CV","q",2646,"cv","P",5,"c","c",TRUE,1,0.523420039079182
"CVOE_B",2002,1,2,106,"J 17","","",TRUE,"CV","q",1315,"cv","J",7,"c","c",TRUE,1,-0.225453800352147
"CVOE_C",1003,1,2,12,"I 66","","",TRUE,"CV","p",3313,"cv","I",6,"v","v",TRUE,1,0.898700918794206
"CVOE_C",1003,1,2,13,"S 30","","",FALSE,"CV","q",1991,"cv","S",0,"c","c",TRUE,1,0.154890839359032
"CVOE_C",1003,1,2,14,"D 20","","",FALSE,"CV","q",3828,"cv","D",0,"c","c",TRUE,1,1.18846051857417
"CVOE_C",1003,1,2,15,"I 31","","",FALSE,"CV","p",1479,"cv","I",1,"v","v",TRUE,1,-0.133180840422216
"CVOE_C",1003,1,2,16,"P 16","","",FALSE,"CV","q",1039,"cv","P",6,"c","c",TRUE,1,-0.380742440234226
"CVOE_C",1003,1,2,17,"A 49","","",FALSE,"CV","p",1795,"cv","A",9,"v","v",TRUE,1,0.0446133994427726
"CVOE_C",1003,1,2,18,"O 64","","",TRUE,"CV","p",724,"cv","O",4,"v","v",TRUE,1,-0.557974040099642
"CVOE_C",1003,1,2,19,"D 02","","",FALSE,"CV","q",801,"cv","D",2,"c","c",TRUE,1,-0.51465076013254
"CVOE_C",1003,1,2,20,"P 81","","",TRUE,"CV","q",1086,"cv","P",1,"c","c",TRUE,1,-0.354298360254307
"CVOE_C",1003,1,2,21,"J 58","","",FALSE,"CV","q",813,"cv","J",8,"c","c",TRUE,1,-0.507899080137667
"CVOE_C",1003,1,2,22,"A 22","","",TRUE,"CV","p",650,"cv","A",2,"v","v",TRUE,1,-0.599609400068025
"CVOE_C",1003,1,2,23,"J 72","","",FALSE,"CV","q",1320,"cv","J",2,"c","c",TRUE,1,-0.222640600354283
"CVOE_C",1003,1,2,24,"P 91","","",TRUE,"CV","q",1087,"cv","P",1,"c","c",TRUE,1,-0.353735720254734
"CVOE_C",1003,1,2,25,"E 19","","",FALSE,"CV","p",657,"cv","E",9,"v","v",TRUE,1,-0.595670920071016
"CVOE_C",1003,1,2,26,"I 30","","",TRUE,"CV","p",857,"cv","I",0,"v","v",TRUE,1,-0.483142920156466
"CVOE_C",1003,1,2,27,"D 91","","",TRUE,"CV","q",857,"cv","D",1,"c","c",TRUE,1,-0.483142920156466
"CVOE_C",1003,1,2,28,"O 48","","",TRUE,"CV","p",856,"cv","O",8,"v","v",TRUE,1,-0.483705560156039
"CVOE_C",1003,1,2,29,"A 89","","",FALSE,"CV","p",2774,"cv","A",9,"v","v",TRUE,1,0.595437959024494
"CVOE_C",1003,1,2,30,"U 11","","",FALSE,"CV","p",969,"cv","U",1,"v","v",TRUE,1,-0.420127240204318
"CVOE_C",1003,1,2,31,"I 76","","",TRUE,"CV","p",1243,"cv","I",6,"v","v",TRUE,1,-0.265963880321385
"CVOE_C",1003,1,2,32,"U 89","","",FALSE,"CV","p",1076,"cv","U",9,"v","v",TRUE,1,-0.359924760250034
"CVOE_C",1003,1,2,33,"D 63","","",TRUE,"CV","q",959,"cv","D",3,"c","c",TRUE,1,-0.425753640200046
"CVOE_C",1003,1,2,34,"H 70","","",FALSE,"CV","q",685,"cv","H",0,"c","c",TRUE,1,-0.579917000082979
"CVOE_C",1003,1,2,35,"D 48","","",FALSE,"CV","q",618,"cv","D",8,"c","c",TRUE,1,-0.617613880054353
"CVOE_C",1003,1,2,36,"P 56","","",FALSE,"CV","q",930,"cv","P",6,"c","c",TRUE,1,-0.442070200187656
"CVOE_C",1003,1,2,37,"O 77","","",FALSE,"CV","p",1003,"cv","O",7,"v","v",TRUE,1,-0.400997480218845
"CVOE_C",1003,1,2,38,"P 42","","",FALSE,"CV","q",1634,"cv","P",2,"c","c",TRUE,1,-0.04597164048844
"CVOE_C",1003,1,2,39,"H 22","","",FALSE,"CV","q",813,"cv","H",2,"c","c",TRUE,1,-0.507899080137667
"CVOE_C",1003,1,2,40,"E 42","","",TRUE,"CV","p",766,"cv","E",2,"v","v",TRUE,1,-0.534343160117587
"CVOE_C",1003,1,2,41,"J 28","","",FALSE,"CV","q",849,"cv","J",8,"c","c",TRUE,1,-0.487644040153048
"CVOE_C",1003,1,2,42,"E 95","","",FALSE,"CV","p",653,"cv","E",5,"v","v",TRUE,1,-0.597921480069307
"CVOE_C",1003,1,2,43,"S 63","","",TRUE,"CV","q",932,"cv","S",3,"c","c",TRUE,1,-0.44094492018851
"CVOE_C",1003,1,2,44,"H 50","","",FALSE,"CV","q",653,"cv","H",0,"c","c",TRUE,1,-0.597921480069307
"CVOE_C",1003,1,2,45,"S 33","","",TRUE,"CV","q",501,"cv","S",3,"c","c",TRUE,1,-0.683442760004365
"CVOE_C",1003,1,2,46,"P 57","","",TRUE,"CV","q",577,"cv","P",7,"c","c",TRUE,1,-0.640682120036836
"CVOE_C",1003,1,2,47,"E 23","","",FALSE,"CV","p",688,"cv","E",3,"v","v",TRUE,1,-0.578229080084261
"CVOE_C",1003,1,2,48,"S 61","","",TRUE,"CV","q",581,"cv","S",1,"c","c",TRUE,1,-0.638431560038545
"CVOE_C",1003,1,2,49,"U 67","","",FALSE,"CV","p",848,"cv","U",7,"v","v",TRUE,1,-0.488206680152621
"CVOE_C",1003,1,2,50,"H 32","","",FALSE,"CV","q",772,"cv","H",2,"c","c",TRUE,1,-0.53096732012015
"CVOE_C",1003,1,2,51,"U 50","","",TRUE,"CV","p",699,"cv","U",0,"v","v",TRUE,1,-0.572040040088961
"CVOE_C",1003,1,2,52,"O 49","","",FALSE,"CV","p",770,"cv","O",9,"v","v",TRUE,1,-0.532092600119295
"CVOE_C",1003,1,2,53,"U 32","","",TRUE,"CV","p",853,"cv","U",2,"v","v",TRUE,1,-0.485393480154757
"CVOE_C",1003,1,2,54,"J 78","","",FALSE,"CV","q",735,"cv","J",8,"c","c",TRUE,1,-0.551785000104342
"CVOE_C",1003,1,2,55,"S 54","","",FALSE,"CV","q",1949,"cv","S",4,"c","c",TRUE,1,0.131259959376976
"CVOE_C",1003,1,2,56,"J 27","","",TRUE,"CV","q",688,"cv","J",7,"c","c",TRUE,1,-0.578229080084261
"CVOE_C",1003,1,2,57,"S 06","","",FALSE,"CV","q",662,"cv","S",6,"c","c",TRUE,1,-0.592857720073152
"CVOE_C",1003,1,2,58,"D 67","","",TRUE,"CV","q",963,"cv","D",7,"c","c",TRUE,1,-0.423503080201755
"CVOE_C",1003,1,2,59,"A 79","","",FALSE,"CV","p",610,"cv","A",9,"v","v",TRUE,1,-0.622115000050935
"CVOE_C",1003,1,2,60,"S 52","","",FALSE,"CV","q",648,"cv","S",2,"c","c",TRUE,1,-0.600734680067171
"CVOE_C",1003,1,2,61,"U 16","","",TRUE,"CV","p",731,"cv","U",6,"v","v",TRUE,1,-0.554035560102633
"CVOE_C",1003,1,2,62,"O 82","","",TRUE,"CV","p",730,"cv","O",2,"v","v",TRUE,1,-0.554598200102206
"CVOE_C",1003,1,2,63,"H 87","","",TRUE,"CV","q",809,"cv","H",7,"c","c",TRUE,1,-0.510149640135958
"CVOE_C",1003,1,2,64,"I 32","","",TRUE,"CV","q",1193,"cv","I",2,"v","c",FALSE,0,-0.294095880300022
"CVOE_C",1003,1,2,65,"U 37","","",FALSE,"CV","p",920,"cv","U",7,"v","v",TRUE,1,-0.447696600183383
"CVOE_C",1003,1,2,66,"I 42","","",TRUE,"CV","p",736,"cv","I",2,"v","v",TRUE,1,-0.551222360104769
"CVOE_C",1003,1,2,67,"D 65","","",TRUE,"CV","q",1323,"cv","D",5,"c","c",TRUE,1,-0.220952680355565
"CVOE_C",1003,1,2,68,"U 77","","",FALSE,"CV","p",1167,"cv","U",7,"v","v",TRUE,1,-0.308724520288914
"CVOE_C",1003,1,2,69,"E 12","","",TRUE,"CV","p",811,"cv","E",2,"v","v",TRUE,1,-0.509024360136813
"CVOE_C",1003,1,2,70,"I 60","","",TRUE,"CV","p",687,"cv","I",0,"v","v",TRUE,1,-0.578791720083834
"CVOE_C",1003,1,2,71,"J 36","","",FALSE,"CV","q",698,"cv","J",6,"c","c",TRUE,1,-0.572602680088533
"CVOE_C",1003,1,2,72,"H 75","","",TRUE,"CV","q",1121,"cv","H",5,"c","c",TRUE,1,-0.33460596026926
"CVOE_C",1003,1,2,73,"I 50","","",TRUE,"CV","p",619,"cv","I",0,"v","v",TRUE,1,-0.617051240054781
"CVOE_C",1003,1,2,74,"E 99","","",FALSE,"CV","p",635,"cv","E",9,"v","v",TRUE,1,-0.608049000061617
"CVOE_C",1003,1,2,75,"A 86","","",TRUE,"CV","q",1205,"cv","A",6,"v","c",FALSE,0,-0.28734420030515
"CVOE_C",1003,1,2,76,"U 48","","",TRUE,"CV","p",1832,"cv","U",8,"v","v",TRUE,1,0.0654310794269644
"CVOE_C",1003,1,2,77,"E 01","","",FALSE,"CV","p",902,"cv","E",1,"v","v",TRUE,1,-0.457824120175693
"CVOE_C",1003,1,2,78,"A 78","","",TRUE,"CV","p",2026,"cv","A",8,"v","v",TRUE,1,0.174583239344078
"CVOE_C",1003,1,2,79,"P 60","","",FALSE,"CV","q",1247,"cv","P",0,"c","c",TRUE,1,-0.263713320323094
"CVOE_C",1003,1,2,80,"E 43","","",FALSE,"CV","p",1511,"cv","E",3,"v","v",TRUE,1,-0.115176360435888
"CVOE_C",1003,1,2,81,"D 69","","",TRUE,"CV","q",959,"cv","D",9,"c","c",TRUE,1,-0.425753640200046
"CVOE_C",1003,1,2,82,"H 11","","",TRUE,"CV","q",686,"cv","H",1,"c","c",TRUE,1,-0.579354360083406
"CVOE_C",1003,1,2,83,"P 43","","",TRUE,"CV","q",1126,"cv","P",3,"c","c",TRUE,1,-0.331792760271397
"CVOE_C",1003,1,2,84,"O 67","","",FALSE,"CV","p",646,"cv","O",7,"v","v",TRUE,1,-0.601859960066316
"CVOE_C",1003,1,2,85,"S 91","","",FALSE,"CV","q",729,"cv","S",1,"c","c",TRUE,1,-0.555160840101778
"CVOE_C",1003,1,2,86,"J 68","","",TRUE,"CV","q",1394,"cv","J",8,"c","c",TRUE,1,-0.1810052403859
"CVOE_C",1003,1,2,87,"S 47","","",FALSE,"CV","q",646,"cv","S",7,"c","c",TRUE,1,-0.601859960066316
"CVOE_C",1003,1,2,88,"I 81","","",TRUE,"CV","q",533,"cv","I",1,"v","c",FALSE,0,-0.665438280018037
"CVOE_C",1003,1,2,89,"J 39","","",FALSE,"CV","q",970,"cv","J",9,"c","c",TRUE,1,-0.419564600204746
"CVOE_C",1003,1,2,90,"A 11","","",TRUE,"CV","p",891,"cv","A",1,"v","v",TRUE,1,-0.464013160170993
"CVOE_C",1003,1,2,91,"O 76","","",FALSE,"CV","p",584,"cv","O",6,"v","v",TRUE,1,-0.636743640039827
"CVOE_C",1003,1,2,92,"A 62","","",FALSE,"CV","p",1439,"cv","A",2,"v","v",TRUE,1,-0.155686440405126
"CVOE_C",1003,1,2,93,"O 27","","",TRUE,"CV","p",579,"cv","O",7,"v","v",TRUE,1,-0.639556840037691
"CVOE_C",1003,1,2,94,"E 66","","",FALSE,"CV","p",612,"cv","E",6,"v","v",TRUE,1,-0.62098972005179
"CVOE_C",1003,1,2,95,"J 62","","",TRUE,"CV","q",611,"cv","J",2,"c","c",TRUE,1,-0.621552360051363
"CVOE_C",1003,1,2,96,"H 72","","",TRUE,"CV","q",844,"cv","H",2,"c","c",TRUE,1,-0.490457240150912
"CVOE_C",1003,1,2,97,"E 49","","",TRUE,"CV","p",649,"cv","E",9,"v","v",TRUE,1,-0.600172040067598
"CVOE_C",1003,1,2,98,"D 52","","",TRUE,"CV","q",731,"cv","D",2,"c","c",TRUE,1,-0.554035560102633
"CVOE_C",1003,1,2,99,"H 62","","",TRUE,"CV","q",1712,"cv","H",2,"c","c",TRUE,1,-0.00208572052176557
"CVOE_C",1003,1,2,100,"I 11","","",TRUE,"CV","p",568,"cv","I",1,"v","v",TRUE,1,-0.645745880032991
"CVOE_C",1003,1,2,101,"A 98","","",FALSE,"CV","q",617,"cv","A",8,"v","c",FALSE,0,-0.618176520053926
"CVOE_C",1003,1,2,102,"H 29","","",FALSE,"CV","q",1986,"cv","H",9,"c","c",TRUE,1,0.152077639361168
"CVOE_C",1003,1,2,103,"E 83","","",TRUE,"CV","p",1006,"cv","E",3,"v","v",TRUE,1,-0.399309560220127
"CVOE_C",1003,1,2,104,"D 43","","",FALSE,"CV","q",620,"cv","D",3,"c","c",TRUE,1,-0.616488600055208
"CVOE_C",1003,1,2,105,"P 45","","",TRUE,"CV","q",1207,"cv","P",5,"c","c",TRUE,1,-0.286218920306004
"CVOE_C",1003,1,2,106,"J 17","","",TRUE,"CV","q",816,"cv","J",7,"c","c",TRUE,1,-0.506211160138949
"CVOE updated",1009,1,1,11,"A 71","","",FALSE,"CV","p",5184,"cv","A",1,"v","v",TRUE,1,1.95140035799482
"CVOE updated",1009,1,1,12,"I 66","","",TRUE,"CV","p",1673,"cv","I",6,"v","v",TRUE,1,-0.0240286805051028
"CVOE updated",1009,1,1,13,"S 30","","",FALSE,"CV","q",1752,"cv","S",0,"c","c",TRUE,1,0.0204198794611444
"CVOE updated",1009,1,1,14,"D 20","","",FALSE,"CV","q",3618,"cv","D",0,"c","c",TRUE,1,1.07030611866389
"CVOE updated",1009,1,1,15,"I 31","","",FALSE,"CV","p",2675,"cv","I",1,"v","v",TRUE,1,0.539736599066792
"CVOE updated",1009,1,1,16,"P 16","","",FALSE,"CV","q",1694,"cv","P",6,"c","c",TRUE,1,-0.0122132405140751
"CVOE updated",1009,1,1,17,"A 49","","",FALSE,"CV","p",2006,"cv","A",9,"v","v",TRUE,1,0.163330439352623
"CVOE updated",1009,1,1,18,"O 64","","",TRUE,"CV","p",1859,"cv","O",4,"v","v",TRUE,1,0.0806223594154286
"CVOE updated",1009,1,1,19,"D 02","","",FALSE,"CV","q",2697,"cv","D",2,"c","c",TRUE,1,0.552114679057393
"CVOE updated",1009,1,1,20,"P 81","","",TRUE,"CV","q",2068,"cv","P",1,"c","c",TRUE,1,0.198214119326133
"CVOE updated",1009,1,1,21,"J 58","","",FALSE,"CV","q",2107,"cv","J",8,"c","c",TRUE,1,0.22015707930947
"CVOE updated",1009,1,1,22,"A 22","","",TRUE,"CV","p",2681,"cv","A",2,"v","v",TRUE,1,0.543112439064229
"CVOE updated",1009,1,1,23,"J 72","","",FALSE,"CV","q",1745,"cv","J",2,"c","c",TRUE,1,0.0164813994641352
"CVOE updated",1009,1,1,24,"P 91","","",TRUE,"CV","q",1807,"cv","P",1,"c","c",TRUE,1,0.0513650794376456
"CVOE updated",1009,1,1,25,"E 19","","",FALSE,"CV","p",2815,"cv","E",9,"v","v",TRUE,1,0.618506199006977
"CVOE updated",1009,1,1,26,"I 30","","",TRUE,"CV","p",1552,"cv","I",0,"v","v",TRUE,1,-0.0921081204534055
"CVOE updated",1009,1,1,27,"D 91","","",TRUE,"CV","q",1721,"cv","D",1,"c","c",TRUE,1,0.00297803947438917
"CVOE updated",1009,1,1,28,"O 48","","",TRUE,"CV","p",3037,"cv","O",8,"v","v",TRUE,1,0.743412278912127
"CVOE updated",1009,1,1,29,"A 89","","",FALSE,"CV","p",1471,"cv","A",9,"v","v",TRUE,1,-0.137681960418798
"CVOE updated",1009,1,1,30,"U 11","","",FALSE,"CV","p",1771,"cv","U",1,"v","v",TRUE,1,0.0311100394530266
"CVOE updated",1009,1,1,31,"I 76","","",TRUE,"CV","p",1617,"cv","I",6,"v","v",TRUE,1,-0.0555365204811768
"CVOE updated",1009,1,1,32,"U 89","","",FALSE,"CV","p",1681,"cv","U",9,"v","v",TRUE,1,-0.0195275605085208
"CVOE updated",1009,1,1,33,"D 63","","",TRUE,"CV","q",1772,"cv","D",3,"c","c",TRUE,1,0.0316726794525994
"CVOE updated",1009,1,1,34,"H 70","","",FALSE,"CV","q",1838,"cv","H",0,"c","c",TRUE,1,0.0688069194244009
"CVOE updated",1009,1,1,35,"D 48","","",FALSE,"CV","q",1785,"cv","D",8,"c","c",TRUE,1,0.0389869994470451
"CVOE updated",1009,1,1,36,"P 56","","",FALSE,"CV","q",1748,"cv","P",6,"c","c",TRUE,1,0.0181693194628534
"CVOE updated",1009,1,1,37,"O 77","","",FALSE,"CV","p",1928,"cv","O",7,"v","v",TRUE,1,0.119444519385948
"CVOE updated",1009,1,1,38,"P 42","","",FALSE,"CV","q",1691,"cv","P",2,"c","c",TRUE,1,-0.0139011605127933
"CVOE updated",1009,1,1,39,"H 22","","",FALSE,"CV","q",1403,"cv","H",2,"c","c",TRUE,1,-0.175941480389745
"CVOE updated",1009,1,1,40,"E 42","","",TRUE,"CV","p",1928,"cv","E",2,"v","v",TRUE,1,0.119444519385948
"CVOE updated",1009,1,1,41,"J 28","","",FALSE,"CV","q",1553,"cv","J",8,"c","c",TRUE,1,-0.0915454804538327
"CVOE updated",1009,1,1,42,"E 95","","",FALSE,"CV","p",1905,"cv","E",5,"v","v",TRUE,1,0.106503799395775
"CVOE updated",1009,1,1,43,"S 63","","",TRUE,"CV","q",2372,"cv","S",3,"c","c",TRUE,1,0.369256679196249
"CVOE updated",1009,1,1,44,"H 50","","",FALSE,"CV","q",1785,"cv","H",0,"c","c",TRUE,1,0.0389869994470451
"CVOE updated",1009,1,1,45,"S 33","","",TRUE,"CV","q",1769,"cv","S",3,"c","c",TRUE,1,0.0299847594538811
"CVOE updated",1009,1,1,46,"P 57","","",TRUE,"CV","q",1669,"cv","P",7,"c","c",TRUE,1,-0.0262792405033938
"CVOE updated",1009,1,1,47,"E 23","","",FALSE,"CV","p",2986,"cv","E",3,"v","v",TRUE,1,0.714717638933917
"CVOE updated",1009,1,1,48,"S 61","","",TRUE,"CV","q",1508,"cv","S",1,"c","c",TRUE,1,-0.116864280434606
"CVOE updated",1009,1,1,49,"U 67","","",FALSE,"CV","p",2028,"cv","U",7,"v","v",TRUE,1,0.175708519343223
"CVOE updated",1009,1,1,50,"H 32","","",FALSE,"CV","q",1544,"cv","H",2,"c","c",TRUE,1,-0.0966092404499875
"CVOE updated",1009,1,1,51,"U 50","","",TRUE,"CV","p",2143,"cv","U",0,"v","v",TRUE,1,0.240412119294089
"CVOE updated",1009,1,1,52,"O 49","","",FALSE,"CV","p",1643,"cv","O",9,"v","v",TRUE,1,-0.0409078804922853
"CVOE updated",1009,1,1,53,"U 32","","",TRUE,"CV","p",1303,"cv","U",2,"v","v",TRUE,1,-0.23220548034702
"CVOE updated",1009,1,1,54,"J 78","","",FALSE,"CV","q",1521,"cv","J",8,"c","c",TRUE,1,-0.109549960440161
"CVOE updated",1009,1,1,55,"S 54","","",FALSE,"CV","q",1678,"cv","S",4,"c","c",TRUE,1,-0.021215480507239
"CVOE updated",1009,1,1,56,"J 27","","",TRUE,"CV","q",1401,"cv","J",7,"c","c",TRUE,1,-0.177066760388891
"CVOE updated",1009,1,1,57,"S 06","","",FALSE,"CV","q",1630,"cv","S",6,"c","c",TRUE,1,-0.048222200486731
"CVOE updated",1009,1,1,58,"D 67","","",TRUE,"CV","q",1794,"cv","D",7,"c","c",TRUE,1,0.0440507594431999
"CVOE updated",1009,1,1,59,"A 79","","",FALSE,"CV","p",2322,"cv","A",9,"v","v",TRUE,1,0.341124679217612
"CVOE updated",1009,1,1,60,"S 52","","",FALSE,"CV","q",3120,"cv","S",2,"c","c",TRUE,1,0.790111398876666
"CVOE updated",1009,1,1,61,"U 16","","",TRUE,"CV","p",2412,"cv","U",6,"v","v",TRUE,1,0.391762279179159
"CVOE updated",1009,1,1,62,"O 82","","",TRUE,"CV","p",1818,"cv","O",2,"v","v",TRUE,1,0.0575541194329459
"CVOE updated",1009,1,1,63,"H 87","","",TRUE,"CV","q",1485,"cv","H",7,"c","c",TRUE,1,-0.12980500042478
"CVOE updated",1009,1,1,64,"I 32","","",TRUE,"CV","p",1682,"cv","I",2,"v","v",TRUE,1,-0.0189649205089481
"CVOE updated",1009,1,1,65,"U 37","","",FALSE,"CV","p",1235,"cv","U",7,"v","v",TRUE,1,-0.270465000317967
"CVOE updated",1009,1,1,66,"I 42","","",TRUE,"CV","p",1245,"cv","I",2,"v","v",TRUE,1,-0.26483860032224
"CVOE updated",1009,1,1,67,"D 65","","",TRUE,"CV","q",1536,"cv","D",5,"c","c",TRUE,1,-0.101110360446569
"CVOE updated",1009,1,1,68,"U 77","","",FALSE,"CV","p",1839,"cv","U",7,"v","v",TRUE,1,0.0693695594239736
"CVOE updated",1009,1,1,69,"E 12","","",TRUE,"CV","p",981,"cv","E",2,"v","v",TRUE,1,-0.413375560209445
"CVOE updated",1009,1,1,70,"I 60","","",TRUE,"CV","p",1152,"cv","I",0,"v","v",TRUE,1,-0.317164120282505
"CVOE updated",1009,1,1,71,"J 36","","",FALSE,"CV","q",1496,"cv","J",6,"c","c",TRUE,1,-0.123615960429479
"CVOE updated",1009,1,1,72,"H 75","","",TRUE,"CV","q",1657,"cv","H",5,"c","c",TRUE,1,-0.0330309204982668
"CVOE updated",1009,1,1,73,"I 50","","",TRUE,"CV","p",1517,"cv","I",0,"v","v",TRUE,1,-0.111800520438452
"CVOE updated",1009,1,1,74,"E 99","","",FALSE,"CV","p",1154,"cv","E",9,"v","v",TRUE,1,-0.31603884028336
"CVOE updated",1009,1,1,75,"A 86","","",TRUE,"CV","p",1045,"cv","A",6,"v","v",TRUE,1,-0.377366600236789
"CVOE updated",1009,1,1,76,"U 48","","",TRUE,"CV","p",1069,"cv","U",8,"v","v",TRUE,1,-0.363863240247043
"CVOE updated",1009,1,1,77,"E 01","","",FALSE,"CV","p",1204,"cv","E",1,"v","v",TRUE,1,-0.287906840304722
"CVOE updated",1009,1,1,78,"A 78","","",TRUE,"CV","p",1239,"cv","A",8,"v","v",TRUE,1,-0.268214440319676
"CVOE updated",1009,1,1,79,"P 60","","",FALSE,"CV","q",1616,"cv","P",0,"c","c",TRUE,1,-0.0560991604807495
"CVOE updated",1009,1,1,80,"E 43","","",FALSE,"CV","p",2533,"cv","E",3,"v","v",TRUE,1,0.459841719127462
"CVOE updated",1009,1,1,81,"D 69","","",TRUE,"CV","q",1498,"cv","D",9,"c","c",TRUE,1,-0.122490680430334
"CVOE updated",1009,1,1,82,"H 11","","",TRUE,"CV","q",1287,"cv","H",1,"c","c",TRUE,1,-0.241207720340184
"CVOE updated",1009,1,1,83,"P 43","","",TRUE,"CV","q",1154,"cv","P",3,"c","c",TRUE,1,-0.31603884028336
"CVOE updated",1009,1,1,84,"O 67","","",FALSE,"CV","p",1994,"cv","O",7,"v","v",TRUE,1,0.15657875935775
"CVOE updated",1009,1,1,85,"S 91","","",FALSE,"CV","q",1569,"cv","S",1,"c","c",TRUE,1,-0.0825432404606687
"CVOE updated",1009,1,1,86,"J 68","","",TRUE,"CV","q",1500,"cv","J",8,"c","c",TRUE,1,-0.121365400431188
"CVOE updated",1009,1,1,87,"S 47","","",FALSE,"CV","q",1616,"cv","S",7,"c","c",TRUE,1,-0.0560991604807495
"CVOE updated",1009,1,1,88,"I 81","","",TRUE,"CV","p",1863,"cv","I",1,"v","v",TRUE,1,0.0828729194137196
"CVOE updated",1009,1,1,89,"J 39","","",FALSE,"CV","q",1793,"cv","J",9,"c","c",TRUE,1,0.0434881194436271
"CVOE updated",1009,1,1,90,"A 11","","",TRUE,"CV","p",1906,"cv","A",1,"v","v",TRUE,1,0.107066439395348
"CVOE updated",1009,1,1,91,"O 76","","",FALSE,"CV","p",1399,"cv","O",6,"v","v",TRUE,1,-0.178192040388036
"CVOE updated",1009,1,1,92,"A 62","","",FALSE,"CV","p",1398,"cv","A",2,"v","v",TRUE,1,-0.178754680387609
"CVOE updated",1009,1,1,93,"O 27","","",TRUE,"CV","p",1319,"cv","O",7,"v","v",TRUE,1,-0.223203240353856
"CVOE updated",1009,1,1,94,"E 66","","",FALSE,"CV","p",1192,"cv","E",6,"v","v",TRUE,1,-0.294658520299595
"CVOE updated",1009,1,1,95,"J 62","","",TRUE,"CV","q",1511,"cv","J",2,"c","c",TRUE,1,-0.115176360435888
"CVOE updated",1009,1,1,96,"H 72","","",TRUE,"CV","q",1245,"cv","H",2,"c","c",TRUE,1,-0.26483860032224
"CVOE updated",1009,1,1,97,"E 49","","",TRUE,"CV","p",1944,"cv","E",9,"v","v",TRUE,1,0.128446759379112
"CVOE updated",1009,1,1,98,"D 52","","",TRUE,"CV","q",1773,"cv","D",2,"c","c",TRUE,1,0.0322353194521721
"CVOE updated",1009,1,1,99,"H 62","","",TRUE,"CV","q",1286,"cv","H",2,"c","c",TRUE,1,-0.241770360339757
"CVOE updated",1009,1,1,100,"I 11","","",TRUE,"CV","p",1689,"cv","I",1,"v","v",TRUE,1,-0.0150264405119388
"CVOE updated",1009,1,1,101,"A 98","","",FALSE,"CV","p",1092,"cv","A",8,"v","v",TRUE,1,-0.35092252025687
"CVOE updated",1009,1,1,102,"H 29","","",FALSE,"CV","q",1536,"cv","H",9,"c","c",TRUE,1,-0.101110360446569
"CVOE updated",1009,1,1,103,"E 83","","",TRUE,"CV","p",1475,"cv","E",3,"v","v",TRUE,1,-0.135431400420507
"CVOE updated",1009,1,1,104,"D 43","","",FALSE,"CV","q",1447,"cv","D",3,"c","c",TRUE,1,-0.151185320408544
"CVOE updated",1009,1,1,105,"P 45","","",TRUE,"CV","q",1377,"cv","P",5,"c","c",TRUE,1,-0.190570120378637
"CVOE updated",1009,1,1,106,"J 17","","",TRUE,"CV","q",1174,"cv","J",7,"c","c",TRUE,1,-0.304786040291905
"CVOE updated",1013,1,1,11,"A 71","","",FALSE,"CV","q",1358,"cv","A",1,"v","c",FALSE,0,-0.201260280370519
"CVOE updated",1013,1,1,12,"I 66","","",TRUE,"CV","q",1056,"cv","I",6,"v","c",FALSE,0,-0.371177560241489
"CVOE updated",1013,1,1,13,"S 30","","",FALSE,"CV","p",1960,"cv","S",0,"c","v",FALSE,0,0.137448999372276
"CVOE updated",1013,1,1,14,"D 20","","",FALSE,"CV","p",1382,"cv","D",0,"c","v",FALSE,0,-0.187756920380773
"CVOE updated",1013,1,1,15,"I 31","","",FALSE,"CV","q",1088,"cv","I",1,"v","c",FALSE,0,-0.353173080255161
"CVOE updated",1013,1,1,16,"P 16","","",FALSE,"CV","p",777,"cv","P",6,"c","v",FALSE,0,-0.528154120122286
"CVOE updated",1013,1,1,17,"A 49","","",FALSE,"CV","q",573,"cv","A",9,"v","c",FALSE,0,-0.642932680035127
"CVOE updated",1013,1,1,18,"O 64","","",TRUE,"CV","q",1114,"cv","O",4,"v","c",FALSE,0,-0.33854444026627
"CVOE updated",1013,1,1,19,"D 02","","",FALSE,"CV","p",785,"cv","D",2,"c","v",FALSE,0,-0.523653000125704
"CVOE updated",1013,1,1,20,"P 81","","",TRUE,"CV","p",1114,"cv","P",1,"c","v",FALSE,0,-0.33854444026627
"CVOE updated",1013,1,1,21,"J 58","","",FALSE,"CV","p",629,"cv","J",8,"c","v",FALSE,0,-0.611424840059053
"CVOE updated",1013,1,1,22,"A 22","","",TRUE,"CV","q",493,"cv","A",2,"v","c",FALSE,0,-0.687943880000947
"CVOE updated",1013,1,1,23,"J 72","","",FALSE,"CV","p",733,"cv","J",2,"c","v",FALSE,0,-0.552910280103487
"CVOE updated",1013,1,1,24,"P 91","","",TRUE,"CV","p",789,"cv","P",1,"c","v",FALSE,0,-0.521402440127413
"CVOE updated",1013,1,1,25,"E 19","","",FALSE,"CV","q",735,"cv","E",9,"v","c",FALSE,0,-0.551785000104342
"CVOE updated",1013,1,1,26,"I 30","","",TRUE,"CV","q",783,"cv","I",0,"v","c",FALSE,0,-0.52477828012485
"CVOE updated",1013,1,1,27,"D 91","","",TRUE,"CV","p",732,"cv","D",1,"c","v",FALSE,0,-0.55347292010306
"CVOE updated",1013,1,1,28,"O 48","","",TRUE,"CV","q",882,"cv","O",8,"v","c",FALSE,0,-0.469076920167148
"CVOE updated",1013,1,1,29,"A 89","","",FALSE,"CV","q",672,"cv","A",9,"v","c",FALSE,0,-0.587231320077425
"CVOE updated",1013,1,1,30,"U 11","","",FALSE,"CV","q",1017,"cv","U",1,"v","c",FALSE,0,-0.393120520224826
"CVOE updated",1013,1,1,31,"I 76","","",TRUE,"CV","q",1934,"cv","I",6,"v","c",FALSE,0,0.122820359383385
"CVOE updated",1013,1,1,32,"U 89","","",FALSE,"CV","p",778,"cv","U",9,"v","v",TRUE,1,-0.527591480122714
"CVOE updated",1013,1,1,33,"D 63","","",TRUE,"CV","p",2430,"cv","D",3,"c","v",FALSE,0,0.401889799171468
"CVOE updated",1013,1,1,34,"H 70","","",FALSE,"CV","p",2537,"cv","H",0,"c","v",FALSE,0,0.462092279125753
"CVOE updated",1013,1,1,35,"D 48","","",FALSE,"CV","p",739,"cv","D",8,"c","v",FALSE,0,-0.549534440106051
"CVOE updated",1013,1,1,36,"P 56","","",FALSE,"CV","p",977,"cv","P",6,"c","v",FALSE,0,-0.415626120207736
"CVOE updated",1013,1,1,37,"O 77","","",FALSE,"CV","q",729,"cv","O",7,"v","c",FALSE,0,-0.555160840101778
"CVOE updated",1013,1,1,38,"P 42","","",FALSE,"CV","p",877,"cv","P",2,"c","v",FALSE,0,-0.471890120165011
"CVOE updated",1013,1,1,39,"H 22","","",FALSE,"CV","p",736,"cv","H",2,"c","v",FALSE,0,-0.551222360104769
"CVOE updated",1013,1,1,40,"E 42","","",TRUE,"CV","q",2277,"cv","E",2,"v","c",FALSE,0,0.315805879236838
"CVOE updated",1013,1,1,41,"J 28","","",FALSE,"CV","p",836,"cv","J",8,"c","v",FALSE,0,-0.494958360147494
"CVOE updated",1013,1,1,42,"E 95","","",FALSE,"CV","q",683,"cv","E",5,"v","c",FALSE,0,-0.581042280082125
"CVOE updated",1013,1,1,43,"S 63","","",TRUE,"CV","p",728,"cv","S",3,"c","v",FALSE,0,-0.555723480101351
"CVOE updated",1013,1,1,44,"H 50","","",FALSE,"CV","p",1008,"cv","H",0,"c","v",FALSE,0,-0.398184280220981
"CVOE updated",1013,1,1,45,"S 33","","",TRUE,"CV","p",690,"cv","S",3,"c","v",FALSE,0,-0.577103800085115
"CVOE updated",1013,1,1,46,"P 57","","",TRUE,"CV","p",1003,"cv","P",7,"c","v",FALSE,0,-0.400997480218845
"CVOE updated",1013,1,1,47,"E 23","","",FALSE,"CV","q",708,"cv","E",3,"v","c",FALSE,0,-0.566976280092806
"CVOE updated",1013,1,1,48,"S 61","","",TRUE,"CV","p",889,"cv","S",1,"c","v",FALSE,0,-0.465138440170138
"CVOE updated",1013,1,1,49,"U 67","","",FALSE,"CV","q",2346,"cv","U",7,"v","c",FALSE,0,0.354628039207358
"CVOE updated",1013,1,1,50,"H 32","","",FALSE,"CV","p",650,"cv","H",2,"c","v",FALSE,0,-0.599609400068025
"CVOE updated",1013,1,1,51,"U 50","","",TRUE,"CV","q",919,"cv","U",0,"v","c",FALSE,0,-0.448259240182956
"CVOE updated",1013,1,1,52,"O 49","","",FALSE,"CV","q",1195,"cv","O",9,"v","c",FALSE,0,-0.292970600300877
"CVOE updated",1013,1,1,53,"U 32","","",TRUE,"CV","q",1870,"cv","U",2,"v","c",FALSE,0,0.0868113994107288
"CVOE updated",1013,1,1,54,"J 78","","",FALSE,"CV","p",659,"cv","J",8,"c","v",FALSE,0,-0.594545640071871
"CVOE updated",1013,1,1,55,"S 54","","",FALSE,"CV","p",770,"cv","S",4,"c","v",FALSE,0,-0.532092600119295
"CVOE updated",1013,1,1,56,"J 27","","",TRUE,"CV","p",641,"cv","J",7,"c","v",FALSE,0,-0.60467316006418
"CVOE updated",1013,1,1,57,"S 06","","",FALSE,"CV","p",945,"cv","S",6,"c","v",FALSE,0,-0.433630600194064
"CVOE updated",1013,1,1,58,"D 67","","",TRUE,"CV","p",919,"cv","D",7,"c","v",FALSE,0,-0.448259240182956
"CVOE updated",1013,1,1,59,"A 79","","",FALSE,"CV","q",584,"cv","A",9,"v","c",FALSE,0,-0.636743640039827
"CVOE updated",1013,1,1,60,"S 52","","",FALSE,"CV","p",858,"cv","S",2,"c","v",FALSE,0,-0.482580280156894
"CVOE updated",1013,1,1,61,"U 16","","",TRUE,"CV","q",838,"cv","U",6,"v","c",FALSE,0,-0.493833080148349
"CVOE updated",1013,1,1,62,"O 82","","",TRUE,"CV","q",684,"cv","O",2,"v","c",FALSE,0,-0.580479640082552
"CVOE updated",1013,1,1,63,"H 87","","",TRUE,"CV","p",631,"cv","H",7,"c","v",FALSE,0,-0.610299560059908
"CVOE updated",1013,1,1,64,"I 32","","",TRUE,"CV","q",596,"cv","I",2,"v","c",FALSE,0,-0.629991960044954
"CVOE updated",1013,1,1,65,"U 37","","",FALSE,"CV","q",1340,"cv","U",7,"v","c",FALSE,0,-0.211387800362828
"CVOE updated",1013,1,1,66,"I 42","","",TRUE,"CV","q",623,"cv","I",2,"v","c",FALSE,0,-0.61480068005649
"CVOE updated",1013,1,1,67,"D 65","","",TRUE,"CV","p",640,"cv","D",5,"c","v",FALSE,0,-0.605235800063753
"CVOE updated",1013,1,1,68,"U 77","","",FALSE,"CV","q",711,"cv","U",7,"v","c",FALSE,0,-0.565288360094088
"CVOE updated",1013,1,1,69,"E 12","","",TRUE,"CV","q",1073,"cv","E",2,"v","c",FALSE,0,-0.361612680248752
"CVOE updated",1013,1,1,70,"I 60","","",TRUE,"CV","q",1909,"cv","I",0,"v","c",FALSE,0,0.108754359394066
"CVOE updated",1013,1,1,71,"J 36","","",FALSE,"CV","p",847,"cv","J",6,"c","v",FALSE,0,-0.488769320152194
"CVOE updated",1013,1,1,72,"H 75","","",TRUE,"CV","p",771,"cv","H",5,"c","v",FALSE,0,-0.531529960119723
"CVOE updated",1013,1,1,73,"I 50","","",TRUE,"CV","q",658,"cv","I",0,"v","c",FALSE,0,-0.595108280071443
"CVOE updated",1013,1,1,74,"E 99","","",FALSE,"CV","q",724,"cv","E",9,"v","c",FALSE,0,-0.557974040099642
"CVOE updated",1013,1,1,75,"A 86","","",TRUE,"CV","q",645,"cv","A",6,"v","c",FALSE,0,-0.602422600065889
"CVOE updated",1013,1,1,76,"U 48","","",TRUE,"CV","q",844,"cv","U",8,"v","c",FALSE,0,-0.490457240150912
"CVOE updated",1013,1,1,77,"E 01","","",FALSE,"CV","q",527,"cv","E",1,"v","c",FALSE,0,-0.668814120015474
"CVOE updated",1013,1,1,78,"A 78","","",TRUE,"CV","q",573,"cv","A",8,"v","c",FALSE,0,-0.642932680035127
"CVOE updated",1013,1,1,79,"P 60","","",FALSE,"CV","p",576,"cv","P",0,"c","v",FALSE,0,-0.641244760036409
"CVOE updated",1013,1,1,80,"E 43","","",FALSE,"CV","q",681,"cv","E",3,"v","c",FALSE,0,-0.58216756008127
"CVOE updated",1013,1,1,81,"D 69","","",TRUE,"CV","p",682,"cv","D",9,"c","v",FALSE,0,-0.581604920081697
"CVOE updated",1013,1,1,82,"H 11","","",TRUE,"CV","p",666,"cv","H",1,"c","v",FALSE,0,-0.590607160074861
"CVOE updated",1013,1,1,83,"P 43","","",TRUE,"CV","p",696,"cv","P",3,"c","v",FALSE,0,-0.573727960087679
"CVOE updated",1013,1,1,84,"O 67","","",FALSE,"CV","p",556,"cv","O",7,"v","v",TRUE,1,-0.652497560027864
"CVOE updated",1013,1,1,85,"S 91","","",FALSE,"CV","p",3263,"cv","S",1,"c","v",FALSE,0,0.870568918815569
"CVOE updated",1013,1,1,86,"J 68","","",TRUE,"CV","p",739,"cv","J",8,"c","v",FALSE,0,-0.549534440106051
"CVOE updated",1013,1,1,87,"S 47","","",FALSE,"CV","p",762,"cv","S",7,"c","v",FALSE,0,-0.536593720115877
"CVOE updated",1013,1,1,88,"I 81","","",TRUE,"CV","q",651,"cv","I",1,"v","c",FALSE,0,-0.599046760068453
"CVOE updated",1013,1,1,89,"J 39","","",FALSE,"CV","p",590,"cv","J",9,"c","v",FALSE,0,-0.63336780004239
"CVOE updated",1013,1,1,90,"A 11","","",TRUE,"CV","q",505,"cv","A",1,"v","c",FALSE,0,-0.681192200006074
"CVOE updated",1013,1,1,91,"O 76","","",FALSE,"CV","q",630,"cv","O",6,"v","c",FALSE,0,-0.61086220005948
"CVOE updated",1013,1,1,92,"A 62","","",FALSE,"CV","q",654,"cv","A",2,"v","c",FALSE,0,-0.597358840069734
"CVOE updated",1013,1,1,93,"O 27","","",TRUE,"CV","q",1091,"cv","O",7,"v","c",FALSE,0,-0.351485160256443
"CVOE updated",1013,1,1,94,"E 66","","",FALSE,"CV","q",796,"cv","E",6,"v","c",FALSE,0,-0.517463960130404
"CVOE updated",1013,1,1,95,"J 62","","",TRUE,"CV","p",657,"cv","J",2,"c","v",FALSE,0,-0.595670920071016
"CVOE updated",1013,1,1,96,"H 72","","",TRUE,"CV","p",1154,"cv","H",2,"c","v",FALSE,0,-0.31603884028336
"CVOE updated",1013,1,1,97,"E 49","","",TRUE,"CV","q",803,"cv","E",9,"v","c",FALSE,0,-0.513525480133395
"CVOE updated",1013,1,1,98,"D 52","","",TRUE,"CV","p",1189,"cv","D",2,"c","v",FALSE,0,-0.296346440298313
"CVOE updated",1013,1,1,99,"H 62","","",TRUE,"CV","p",1600,"cv","H",2,"c","v",FALSE,0,-0.0651014004739135
"CVOE updated",1013,1,1,100,"I 11","","",TRUE,"CV","q",674,"cv","I",1,"v","c",FALSE,0,-0.586106040078279
"CVOE updated",1013,1,1,101,"A 98","","",FALSE,"CV","q",562,"cv","A",8,"v","c",FALSE,0,-0.649121720030427
"CVOE updated",1013,1,1,102,"H 29","","",FALSE,"CV","p",642,"cv","H",9,"c","v",FALSE,0,-0.604110520064607
"CVOE updated",1013,1,1,103,"E 83","","",TRUE,"CV","q",660,"cv","E",3,"v","c",FALSE,0,-0.593983000072298
"CVOE updated",1013,1,1,104,"D 43","","",FALSE,"CV","p",681,"cv","D",3,"c","v",FALSE,0,-0.58216756008127
"CVOE updated",1013,1,1,105,"P 45","","",TRUE,"CV","p",722,"cv","P",5,"c","v",FALSE,0,-0.559099320098787
"CVOE updated",1013,1,1,106,"J 17","","",TRUE,"CV","p",671,"cv","J",7,"c","v",FALSE,0,-0.587793960076998
"CVOE updated",2005,1,1,11,"A 71","","",FALSE,"CV","q",1858,"cv","A",1,"v","c",FALSE,0,0.0800597194158558
"CVOE updated",2005,1,1,12,"I 66","","",TRUE,"CV","q",1208,"cv","I",6,"v","c",FALSE,0,-0.285656280306431
"CVOE updated",2005,1,1,13,"S 30","","",FALSE,"CV","p",738,"cv","S",0,"c","v",FALSE,0,-0.550097080105623
"CVOE updated",2005,1,1,14,"D 20","","",FALSE,"CV","p",1089,"cv","D",0,"c","v",FALSE,0,-0.352610440255588
"CVOE updated",2005,1,1,15,"I 31","","",FALSE,"CV","q",1049,"cv","I",1,"v","c",FALSE,0,-0.375116040238498
"CVOE updated",2005,1,1,16,"P 16","","",FALSE,"CV","p",848,"cv","P",6,"c","v",FALSE,0,-0.488206680152621
"CVOE updated",2005,1,1,17,"A 49","","",FALSE,"CV","q",690,"cv","A",9,"v","c",FALSE,0,-0.577103800085115
"CVOE updated",2005,1,1,18,"O 64","","",TRUE,"CV","q",957,"cv","O",4,"v","c",FALSE,0,-0.426878920199191
"CVOE updated",2005,1,1,19,"D 02","","",FALSE,"CV","p",895,"cv","D",2,"c","v",FALSE,0,-0.461762600172702
"CVOE updated",2005,1,1,20,"P 81","","",TRUE,"CV","p",1314,"cv","P",1,"c","v",FALSE,0,-0.22601644035172
"CVOE updated",2005,1,1,21,"J 58","","",FALSE,"CV","p",727,"cv","J",8,"c","v",FALSE,0,-0.556286120100924
"CVOE updated",2005,1,1,22,"A 22","","",TRUE,"CV","q",647,"cv","A",2,"v","c",FALSE,0,-0.601297320066744
"CVOE updated",2005,1,1,23,"J 72","","",FALSE,"CV","p",769,"cv","J",2,"c","v",FALSE,0,-0.532655240118868
"CVOE updated",2005,1,1,24,"P 91","","",TRUE,"CV","p",930,"cv","P",1,"c","v",FALSE,0,-0.442070200187656
"CVOE updated",2005,1,1,25,"E 19","","",FALSE,"CV","q",2136,"cv","E",9,"v","c",FALSE,0,0.23647363929708
"CVOE updated",2005,1,1,26,"I 30","","",TRUE,"CV","q",1161,"cv","I",0,"v","c",FALSE,0,-0.31210036028635
"CVOE updated",2005,1,1,27,"D 91","","",TRUE,"CV","p",843,"cv","D",1,"c","v",FALSE,0,-0.491019880150485
"CVOE updated",2005,1,1,28,"O 48","","",TRUE,"CV","q",920,"cv","O",8,"v","c",FALSE,0,-0.447696600183383
"CVOE updated",2005,1,1,29,"A 89","","",FALSE,"CV","q",892,"cv","A",9,"v","c",FALSE,0,-0.46345052017142
"CVOE updated",2005,1,1,30,"U 11","","",FALSE,"CV","q",2837,"cv","U",1,"v","c",FALSE,0,0.630884278997577
"CVOE updated",2005,1,1,31,"I 76","","",TRUE,"CV","q",1276,"cv","I",6,"v","c",FALSE,0,-0.247396760335484
"CVOE updated",2005,1,1,32,"U 89","","",FALSE,"CV","q",1467,"cv","U",9,"v","c",FALSE,0,-0.139932520417089
"CVOE updated",2005,1,1,33,"D 63","","",TRUE,"CV","p",692,"cv","D",3,"c","v",FALSE,0,-0.57597852008597
"CVOE updated",2005,1,1,34,"H 70","","",FALSE,"CV","p",1036,"cv","H",0,"c","v",FALSE,0,-0.382430360232944
"CVOE updated",2005,1,1,35,"D 48","","",FALSE,"CV","p",1087,"cv","D",8,"c","v",FALSE,0,-0.353735720254734
"CVOE updated",2005,1,1,36,"P 56","","",FALSE,"CV","p",773,"cv","P",6,"c","v",FALSE,0,-0.530404680120577
"CVOE updated",2005,1,1,37,"O 77","","",FALSE,"CV","q",874,"cv","O",7,"v","c",FALSE,0,-0.47357804016373
"CVOE updated",2005,1,1,38,"P 42","","",FALSE,"CV","p",1247,"cv","P",2,"c","v",FALSE,0,-0.263713320323094
"CVOE updated",2005,1,1,39,"H 22","","",FALSE,"CV","p",806,"cv","H",2,"c","v",FALSE,0,-0.511837560134677
"CVOE updated",2005,1,1,40,"E 42","","",TRUE,"CV","q",1089,"cv","E",2,"v","c",FALSE,0,-0.352610440255588
"CVOE updated",2005,1,1,41,"J 28","","",FALSE,"CV","p",934,"cv","J",8,"c","v",FALSE,0,-0.439819640189365
"CVOE updated",2005,1,1,42,"E 95","","",FALSE,"CV","q",848,"cv","E",5,"v","c",FALSE,0,-0.488206680152621
"CVOE updated",2005,1,1,43,"S 63","","",TRUE,"CV","p",769,"cv","S",3,"c","v",FALSE,0,-0.532655240118868
"CVOE updated",2005,1,1,44,"H 50","","",FALSE,"CV","p",948,"cv","H",0,"c","v",FALSE,0,-0.431942680195346
"CVOE updated",2005,1,1,45,"S 33","","",TRUE,"CV","p",807,"cv","S",3,"c","v",FALSE,0,-0.511274920135104
"CVOE updated",2005,1,1,46,"P 57","","",TRUE,"CV","p",840,"cv","P",7,"c","v",FALSE,0,-0.492707800149203
"CVOE updated",2005,1,1,47,"E 23","","",FALSE,"CV","q",722,"cv","E",3,"v","c",FALSE,0,-0.559099320098787
"CVOE updated",2005,1,1,48,"S 61","","",TRUE,"CV","p",894,"cv","S",1,"c","v",FALSE,0,-0.462325240172275
"CVOE updated",2005,1,1,49,"U 67","","",FALSE,"CV","q",999,"cv","U",7,"v","c",FALSE,0,-0.403248040217136
"CVOE updated",2005,1,1,50,"H 32","","",FALSE,"CV","p",1475,"cv","H",2,"c","v",FALSE,0,-0.135431400420507
"CVOE updated",2005,1,1,51,"U 50","","",TRUE,"CV","q",1011,"cv","U",0,"v","c",FALSE,0,-0.396496360222263
"CVOE updated",2005,1,1,52,"O 49","","",FALSE,"CV","p",1430,"cv","O",9,"v","v",TRUE,1,-0.160750200401281
"CVOE updated",2005,1,1,53,"U 32","","",TRUE,"CV","q",1863,"cv","U",2,"v","c",FALSE,0,0.0828729194137196
"CVOE updated",2005,1,1,54,"J 78","","",FALSE,"CV","p",1781,"cv","J",8,"c","v",FALSE,0,0.0367364394487541
"CVOE updated",2005,1,1,55,"S 54","","",FALSE,"CV","p",1157,"cv","S",4,"c","v",FALSE,0,-0.314350920284641
"CVOE updated",2005,1,1,56,"J 27","","",TRUE,"CV","p",1364,"cv","J",7,"c","v",FALSE,0,-0.197884440373082
"CVOE updated",2005,1,1,57,"S 06","","",FALSE,"CV","p",727,"cv","S",6,"c","v",FALSE,0,-0.556286120100924
"CVOE updated",2005,1,1,58,"D 67","","",TRUE,"CV","p",843,"cv","D",7,"c","v",FALSE,0,-0.491019880150485
"CVOE updated",2005,1,1,59,"A 79","","",FALSE,"CV","q",961,"cv","A",9,"v","c",FALSE,0,-0.4246283602009
"CVOE updated",2005,1,1,60,"S 52","","",FALSE,"CV","p",843,"cv","S",2,"c","v",FALSE,0,-0.491019880150485
"CVOE updated",2005,1,1,61,"U 16","","",TRUE,"CV","q",920,"cv","U",6,"v","c",FALSE,0,-0.447696600183383
"CVOE updated",2005,1,1,62,"O 82","","",TRUE,"CV","q",891,"cv","O",2,"v","c",FALSE,0,-0.464013160170993
"CVOE updated",2005,1,1,63,"H 87","","",TRUE,"CV","p",684,"cv","H",7,"c","v",FALSE,0,-0.580479640082552
"CVOE updated",2005,1,1,64,"I 32","","",TRUE,"CV","q",851,"cv","I",2,"v","c",FALSE,0,-0.486518760153903
"CVOE updated",2005,1,1,65,"U 37","","",FALSE,"CV","q",1437,"cv","U",7,"v","c",FALSE,0,-0.156811720404272
"CVOE updated",2005,1,1,66,"I 42","","",TRUE,"CV","q",1284,"cv","I",2,"v","c",FALSE,0,-0.242895640338902
"CVOE updated",2005,1,1,67,"D 65","","",TRUE,"CV","p",653,"cv","D",5,"c","v",FALSE,0,-0.597921480069307
"CVOE updated",2005,1,1,68,"U 77","","",FALSE,"CV","q",853,"cv","U",7,"v","c",FALSE,0,-0.485393480154757
"CVOE updated",2005,1,1,69,"E 12","","",TRUE,"CV","q",852,"cv","E",2,"v","c",FALSE,0,-0.48595612015433
"CVOE updated",2005,1,1,70,"I 60","","",TRUE,"CV","q",812,"cv","I",0,"v","c",FALSE,0,-0.50846172013724
"CVOE updated",2005,1,1,71,"J 36","","",FALSE,"CV","p",1276,"cv","J",6,"c","v",FALSE,0,-0.247396760335484
"CVOE updated",2005,1,1,72,"H 75","","",TRUE,"CV","p",1583,"cv","H",5,"c","v",FALSE,0,-0.0746662804666502
"CVOE updated",2005,1,1,73,"I 50","","",TRUE,"CV","q",1630,"cv","I",0,"v","c",FALSE,0,-0.048222200486731
"CVOE updated",2005,1,1,74,"E 99","","",FALSE,"CV","q",765,"cv","E",9,"v","c",FALSE,0,-0.534905800117159
"CVOE updated",2005,1,1,75,"A 86","","",TRUE,"CV","q",809,"cv","A",6,"v","c",FALSE,0,-0.510149640135958
"CVOE updated",2005,1,1,76,"U 48","","",TRUE,"CV","q",1077,"cv","U",8,"v","c",FALSE,0,-0.359362120250461
"CVOE updated",2005,1,1,77,"E 01","","",FALSE,"CV","q",842,"cv","E",1,"v","c",FALSE,0,-0.491582520150058
"CVOE updated",2005,1,1,78,"A 78","","",TRUE,"CV","q",841,"cv","A",8,"v","c",FALSE,0,-0.49214516014963
"CVOE updated",2005,1,1,79,"P 60","","",FALSE,"CV","p",644,"cv","P",0,"c","v",FALSE,0,-0.602985240065462
"CVOE updated",2005,1,1,80,"E 43","","",FALSE,"CV","q",1040,"cv","E",3,"v","c",FALSE,0,-0.380179800234653
"CVOE updated",2005,1,1,81,"D 69","","",TRUE,"CV","p",1286,"cv","D",9,"c","v",FALSE,0,-0.241770360339757
"CVOE updated",2005,1,1,82,"H 11","","",TRUE,"CV","p",672,"cv","H",1,"c","v",FALSE,0,-0.587231320077425
"CVOE updated",2005,1,1,83,"P 43","","",TRUE,"CV","p",660,"cv","P",3,"c","v",FALSE,0,-0.593983000072298
"CVOE updated",2005,1,1,84,"O 67","","",FALSE,"CV","q",921,"cv","O",7,"v","c",FALSE,0,-0.44713396018381
"CVOE updated",2005,1,1,85,"S 91","","",FALSE,"CV","p",814,"cv","S",1,"c","v",FALSE,0,-0.507336440138095
"CVOE updated",2005,1,1,86,"J 68","","",TRUE,"CV","p",1434,"cv","J",8,"c","v",FALSE,0,-0.15849964040299
"CVOE updated",2005,1,1,87,"S 47","","",FALSE,"CV","p",1827,"cv","S",7,"c","v",FALSE,0,0.0626178794291006
"CVOE updated",2005,1,1,88,"I 81","","",TRUE,"CV","q",997,"cv","I",1,"v","c",FALSE,0,-0.404373320216281
"CVOE updated",2005,1,1,89,"J 39","","",FALSE,"CV","p",650,"cv","J",9,"c","v",FALSE,0,-0.599609400068025
"CVOE updated",2005,1,1,90,"A 11","","",TRUE,"CV","q",654,"cv","A",1,"v","c",FALSE,0,-0.597358840069734
"CVOE updated",2005,1,1,91,"O 76","","",FALSE,"CV","q",815,"cv","O",6,"v","c",FALSE,0,-0.506773800138522
"CVOE updated",2005,1,1,92,"A 62","","",FALSE,"CV","q",730,"cv","A",2,"v","c",FALSE,0,-0.554598200102206
"CVOE updated",2005,1,1,93,"O 27","","",TRUE,"CV","q",1003,"cv","O",7,"v","c",FALSE,0,-0.400997480218845
"CVOE updated",2005,1,1,94,"E 66","","",FALSE,"CV","q",1009,"cv","E",6,"v","c",FALSE,0,-0.397621640221408
"CVOE updated",2005,1,1,95,"J 62","","",TRUE,"CV","p",880,"cv","J",2,"c","v",FALSE,0,-0.470202200166293
"CVOE updated",2005,1,1,96,"H 72","","",TRUE,"CV","p",1394,"cv","H",2,"c","v",FALSE,0,-0.1810052403859
"CVOE updated",2005,1,1,97,"E 49","","",TRUE,"CV","q",841,"cv","E",9,"v","c",FALSE,0,-0.49214516014963
"CVOE updated",2005,1,1,98,"D 52","","",TRUE,"CV","p",802,"cv","D",2,"c","v",FALSE,0,-0.514088120132967
"CVOE updated",2005,1,1,99,"H 62","","",TRUE,"CV","p",1477,"cv","H",2,"c","v",FALSE,0,-0.134306120421362
"CVOE updated",2005,1,1,100,"I 11","","",TRUE,"CV","q",842,"cv","I",1,"v","c",FALSE,0,-0.491582520150058
"CVOE updated",2005,1,1,101,"A 98","","",FALSE,"CV","q",763,"cv","A",8,"v","c",FALSE,0,-0.536031080116305
"CVOE updated",2005,1,1,102,"H 29","","",FALSE,"CV","p",728,"cv","H",9,"c","v",FALSE,0,-0.555723480101351
"CVOE updated",2005,1,1,103,"E 83","","",TRUE,"CV","q",884,"cv","E",3,"v","c",FALSE,0,-0.467951640168002
"CVOE updated",2005,1,1,104,"D 43","","",FALSE,"CV","p",732,"cv","D",3,"c","v",FALSE,0,-0.55347292010306
"CVOE updated",2005,1,1,105,"P 45","","",TRUE,"CV","p",1318,"cv","P",5,"c","v",FALSE,0,-0.223765880353429
"CVOE updated",2005,1,1,106,"J 17","","",TRUE,"CV","p",967,"cv","J",7,"c","v",FALSE,0,-0.421252520203464
"CVOE updated",2009,1,1,12,"I 66","","",TRUE,"CV","p",2383,"cv","I",6,"v","v",TRUE,1,0.375445719191549
"CVOE updated",2009,1,1,13,"S 30","","",FALSE,"CV","q",1711,"cv","S",0,"c","c",TRUE,1,-0.00264836052133832
"CVOE updated",2009,1,1,14,"D 20","","",FALSE,"CV","q",1867,"cv","D",0,"c","c",TRUE,1,0.0851234794120106
"CVOE updated",2009,1,1,15,"I 31","","",FALSE,"CV","p",1086,"cv","I",1,"v","v",TRUE,1,-0.354298360254307
"CVOE updated",2009,1,1,16,"P 16","","",FALSE,"CV","q",1951,"cv","P",6,"c","c",TRUE,1,0.132385239376122
"CVOE updated",2009,1,1,17,"A 49","","",FALSE,"CV","p",1206,"cv","A",9,"v","v",TRUE,1,-0.286781560305577
"CVOE updated",2009,1,1,18,"O 64","","",TRUE,"CV","p",2015,"cv","O",4,"v","v",TRUE,1,0.168394199348778
"CVOE updated",2009,1,1,19,"D 02","","",FALSE,"CV","q",1610,"cv","D",2,"c","c",TRUE,1,-0.059475000478186
"CVOE updated",2009,1,1,20,"P 81","","",TRUE,"CV","q",1724,"cv","P",1,"c","c",TRUE,1,0.00466595947310742
"CVOE updated",2009,1,1,21,"J 58","","",FALSE,"CV","q",1314,"cv","J",8,"c","c",TRUE,1,-0.22601644035172
"CVOE updated",2009,1,1,22,"A 22","","",TRUE,"CV","p",1016,"cv","A",2,"v","v",TRUE,1,-0.393683160224399
"CVOE updated",2009,1,1,23,"J 72","","",FALSE,"CV","q",1259,"cv","J",2,"c","c",TRUE,1,-0.256961640328221
"CVOE updated",2009,1,1,24,"P 91","","",TRUE,"CV","p",1121,"cv","P",1,"c","v",FALSE,0,-0.33460596026926
"CVOE updated",2009,1,1,25,"E 19","","",FALSE,"CV","p",1676,"cv","E",9,"v","v",TRUE,1,-0.0223407605063845
"CVOE updated",2009,1,1,26,"I 30","","",TRUE,"CV","p",3608,"cv","I",0,"v","v",TRUE,1,1.06467971866817
"CVOE updated",2009,1,1,27,"D 91","","",TRUE,"CV","q",1157,"cv","D",1,"c","c",TRUE,1,-0.314350920284641
"CVOE updated",2009,1,1,28,"O 48","","",TRUE,"CV","p",1850,"cv","O",8,"v","v",TRUE,1,0.0755585994192738
"CVOE updated",2009,1,1,29,"A 89","","",FALSE,"CV","p",1347,"cv","A",9,"v","v",TRUE,1,-0.207449320365819
"CVOE updated",2009,1,1,30,"U 11","","",FALSE,"CV","p",1107,"cv","U",1,"v","v",TRUE,1,-0.342482920263279
"CVOE updated",2009,1,1,31,"I 76","","",TRUE,"CV","p",1305,"cv","I",6,"v","v",TRUE,1,-0.231080200347875
"CVOE updated",2009,1,1,32,"U 89","","",FALSE,"CV","p",1382,"cv","U",9,"v","v",TRUE,1,-0.187756920380773
"CVOE updated",2009,1,1,33,"D 63","","",TRUE,"CV","q",1079,"cv","D",3,"c","c",TRUE,1,-0.358236840251316
"CVOE updated",2009,1,1,34,"H 70","","",FALSE,"CV","p",1071,"cv","H",0,"c","v",FALSE,0,-0.362737960247898
"CVOE updated",2009,1,1,35,"D 48","","",FALSE,"CV","p",877,"cv","D",8,"c","v",FALSE,0,-0.471890120165011
"CVOE updated",2009,1,1,36,"P 56","","",FALSE,"CV","p",1122,"cv","P",6,"c","v",FALSE,0,-0.334043320269688
"CVOE updated",2009,1,1,38,"P 42","","",FALSE,"CV","q",1956,"cv","P",2,"c","c",TRUE,1,0.135198439373985
"CVOE updated",2009,1,1,39,"H 22","","",FALSE,"CV","q",1916,"cv","H",2,"c","c",TRUE,1,0.112692839391075
"CVOE updated",2009,1,1,40,"E 42","","",TRUE,"CV","p",950,"cv","E",2,"v","v",TRUE,1,-0.430817400196201
"CVOE updated",2009,1,1,41,"J 28","","",FALSE,"CV","q",1536,"cv","J",8,"c","c",TRUE,1,-0.101110360446569
"CVOE updated",2009,1,1,42,"E 95","","",FALSE,"CV","p",858,"cv","E",5,"v","v",TRUE,1,-0.482580280156894
"CVOE updated",2009,1,1,43,"S 63","","",TRUE,"CV","q",1189,"cv","S",3,"c","c",TRUE,1,-0.296346440298313
"CVOE updated",2009,1,1,44,"H 50","","",FALSE,"CV","q",2180,"cv","H",0,"c","c",TRUE,1,0.261229799278281
"CVOE updated",2009,1,1,45,"S 33","","",TRUE,"CV","q",1356,"cv","S",3,"c","c",TRUE,1,-0.202385560369664
"CVOE updated",2009,1,1,46,"P 57","","",TRUE,"CV","q",3644,"cv","P",7,"c","c",TRUE,1,1.08493475865279
"CVOE updated",2009,1,1,47,"E 23","","",FALSE,"CV","p",1902,"cv","E",3,"v","v",TRUE,1,0.104815879397057
"CVOE updated",2009,1,1,48,"S 61","","",TRUE,"CV","q",3401,"cv","S",1,"c","c",TRUE,1,0.948213238756608
"CVOE updated",2009,1,1,49,"U 67","","",FALSE,"CV","p",2026,"cv","U",7,"v","v",TRUE,1,0.174583239344078
"CVOE updated",2009,1,1,50,"H 32","","",FALSE,"CV","q",1099,"cv","H",2,"c","c",TRUE,1,-0.346984040259861
"CVOE updated",2009,1,1,51,"U 50","","",TRUE,"CV","p",1135,"cv","U",0,"v","v",TRUE,1,-0.326729000275242
"CVOE updated",2009,1,1,52,"O 49","","",FALSE,"CV","p",1655,"cv","O",9,"v","v",TRUE,1,-0.0341562004974123
"CVOE updated",2009,1,1,53,"U 32","","",TRUE,"CV","p",1725,"cv","U",2,"v","v",TRUE,1,0.00522859947268017
"CVOE updated",2009,1,1,54,"J 78","","",FALSE,"CV","q",994,"cv","J",8,"c","c",TRUE,1,-0.406061240215
"CVOE updated",2009,1,1,55,"S 54","","",FALSE,"CV","q",1545,"cv","S",4,"c","c",TRUE,1,-0.0960466004504147
"CVOE updated",2009,1,1,56,"J 27","","",TRUE,"CV","q",1733,"cv","J",7,"c","c",TRUE,1,0.00972971946926217
"CVOE updated",2009,1,1,57,"S 06","","",FALSE,"CV","q",1800,"cv","S",6,"c","c",TRUE,1,0.0474265994406364
"CVOE updated",2009,1,1,58,"D 67","","",TRUE,"CV","q",1327,"cv","D",7,"c","c",TRUE,1,-0.218702120357274
"CVOE updated",2009,1,1,59,"A 79","","",FALSE,"CV","p",886,"cv","A",9,"v","v",TRUE,1,-0.466826360168857
"CVOE updated",2009,1,1,60,"S 52","","",FALSE,"CV","q",1979,"cv","S",2,"c","c",TRUE,1,0.148139159364159
"CVOE updated",2009,1,1,61,"U 16","","",TRUE,"CV","p",1199,"cv","U",6,"v","v",TRUE,1,-0.290720040302586
"CVOE updated",2009,1,1,62,"O 82","","",TRUE,"CV","p",1391,"cv","O",2,"v","v",TRUE,1,-0.182693160384618
"CVOE updated",2009,1,1,63,"H 87","","",TRUE,"CV","q",1116,"cv","H",7,"c","c",TRUE,1,-0.337419160267124
"CVOE updated",2009,1,1,64,"I 32","","",TRUE,"CV","p",1239,"cv","I",2,"v","v",TRUE,1,-0.268214440319676
"CVOE updated",2009,1,1,65,"U 37","","",FALSE,"CV","p",1311,"cv","U",7,"v","v",TRUE,1,-0.227704360350438
"CVOE updated",2009,1,1,66,"I 42","","",TRUE,"CV","p",1369,"cv","I",2,"v","v",TRUE,1,-0.195071240375219
"CVOE updated",2009,1,1,67,"D 65","","",TRUE,"CV","q",1020,"cv","D",5,"c","c",TRUE,1,-0.391432600226108
"CVOE updated",2009,1,1,68,"U 77","","",FALSE,"CV","p",1122,"cv","U",7,"v","v",TRUE,1,-0.334043320269688
"CVOE updated",2009,1,1,69,"E 12","","",TRUE,"CV","p",1271,"cv","E",2,"v","v",TRUE,1,-0.250209960333348
"CVOE updated",2009,1,1,70,"I 60","","",TRUE,"CV","p",959,"cv","I",0,"v","v",TRUE,1,-0.425753640200046
"CVOE updated",2009,1,1,71,"J 36","","",FALSE,"CV","q",908,"cv","J",6,"c","c",TRUE,1,-0.454448280178256
"CVOE updated",2009,1,1,72,"H 75","","",TRUE,"CV","p",1199,"cv","H",5,"c","v",FALSE,0,-0.290720040302586
"CVOE updated",2009,1,1,73,"I 50","","",TRUE,"CV","p",1844,"cv","I",0,"v","v",TRUE,1,0.0721827594218373
"CVOE updated",2009,1,1,74,"E 99","","",FALSE,"CV","p",4705,"cv","E",9,"v","v",TRUE,1,1.68189579819947
"CVOE updated",2009,1,1,75,"A 86","","",TRUE,"CV","p",1130,"cv","A",6,"v","v",TRUE,1,-0.329542200273106
"CVOE updated",2009,1,1,76,"U 48","","",TRUE,"CV","p",1251,"cv","U",8,"v","v",TRUE,1,-0.261462760324803
"CVOE updated",2009,1,1,77,"E 01","","",FALSE,"CV","p",1079,"cv","E",1,"v","v",TRUE,1,-0.358236840251316
"CVOE updated",2009,1,1,78,"A 78","","",TRUE,"CV","p",1146,"cv","A",8,"v","v",TRUE,1,-0.320539960279942
"CVOE updated",2009,1,1,79,"P 60","","",FALSE,"CV","q",1904,"cv","P",0,"c","c",TRUE,1,0.105941159396202
"CVOE updated",2009,1,1,80,"E 43","","",FALSE,"CV","p",1279,"cv","E",3,"v","v",TRUE,1,-0.245708840336766
"CVOE updated",2009,1,1,81,"D 69","","",TRUE,"CV","q",2209,"cv","D",9,"c","c",TRUE,1,0.277546359265891
"CVOE updated",2009,1,1,82,"H 11","","",TRUE,"CV","q",2559,"cv","H",1,"c","c",TRUE,1,0.474470359116353
"CVOE updated",2009,1,1,83,"P 43","","",TRUE,"CV","q",1231,"cv","P",3,"c","c",TRUE,1,-0.272715560316258
"CVOE updated",2009,1,1,84,"O 67","","",FALSE,"CV","p",1379,"cv","O",7,"v","v",TRUE,1,-0.189444840379491
"CVOE updated",2009,1,1,85,"S 91","","",FALSE,"CV","q",1360,"cv","S",1,"c","c",TRUE,1,-0.200135000371373
"CVOE updated",2009,1,1,86,"J 68","","",TRUE,"CV","q",1170,"cv","J",8,"c","c",TRUE,1,-0.307036600290196
"CVOE updated",2009,1,1,87,"S 47","","",FALSE,"CV","q",559,"cv","S",7,"c","c",TRUE,1,-0.650809640029146
"CVOE updated",2009,1,1,88,"I 81","","",TRUE,"CV","p",828,"cv","I",1,"v","v",TRUE,1,-0.499459480144076
"CVOE updated",2009,1,1,89,"J 39","","",FALSE,"CV","q",1027,"cv","J",9,"c","c",TRUE,1,-0.387494120229099
"CVOE updated",2009,1,1,90,"A 11","","",TRUE,"CV","p",962,"cv","A",1,"v","v",TRUE,1,-0.424065720201328
"CVOE updated",2009,1,1,91,"O 76","","",FALSE,"CV","p",946,"cv","O",6,"v","v",TRUE,1,-0.433067960194492
"CVOE updated",2009,1,1,92,"A 62","","",FALSE,"CV","p",705,"cv","A",2,"v","v",TRUE,1,-0.568664200091524
"CVOE updated",2009,1,1,93,"O 27","","",TRUE,"CV","p",877,"cv","O",7,"v","v",TRUE,1,-0.471890120165011
"CVOE updated",2009,1,1,94,"E 66","","",FALSE,"CV","p",1030,"cv","E",6,"v","v",TRUE,1,-0.385806200230381
"CVOE updated",2009,1,1,95,"J 62","","",TRUE,"CV","q",1111,"cv","J",2,"c","c",TRUE,1,-0.340232360264988
"CVOE updated",2009,1,1,96,"H 72","","",TRUE,"CV","q",1183,"cv","H",2,"c","c",TRUE,1,-0.29972228029575
"CVOE updated",2009,1,1,97,"E 49","","",TRUE,"CV","p",985,"cv","E",9,"v","v",TRUE,1,-0.411125000211154
"CVOE updated",2009,1,1,98,"D 52","","",TRUE,"CV","q",1248,"cv","D",2,"c","c",TRUE,1,-0.263150680323521
"CVOE updated",2009,1,1,99,"H 62","","",TRUE,"CV","q",1315,"cv","H",2,"c","c",TRUE,1,-0.225453800352147
"CVOE updated",2009,1,1,100,"I 11","","",TRUE,"CV","p",831,"cv","I",1,"v","v",TRUE,1,-0.497771560145358
"CVOE updated",2009,1,1,101,"A 98","","",FALSE,"CV","p",954,"cv","A",8,"v","v",TRUE,1,-0.42856684019791
"CVOE updated",2009,1,1,102,"H 29","","",FALSE,"CV","q",1081,"cv","H",9,"c","c",TRUE,1,-0.35711156025217
"CVOE updated",2009,1,1,103,"E 83","","",TRUE,"CV","p",888,"cv","E",3,"v","v",TRUE,1,-0.465701080169711
"CVOE updated",2009,1,1,104,"D 43","","",FALSE,"CV","q",848,"cv","D",3,"c","c",TRUE,1,-0.488206680152621
"CVOE updated",2009,1,1,105,"P 45","","",TRUE,"CV","q",764,"cv","P",5,"c","c",TRUE,1,-0.535468440116732
"CVOE updated",2009,1,1,106,"J 17","","",TRUE,"CV","q",789,"cv","J",7,"c","c",TRUE,1,-0.521402440127413
"CVOE_B",1006,1,2,11,"A 71","","",FALSE,"CV","p",2229,"cv","A",1,"v","v",TRUE,1,0.288799159257346
"CVOE_B",1006,1,2,12,"I 66","","",TRUE,"CV","p",710,"cv","I",6,"v","v",TRUE,1,-0.56585100009366
"CVOE_B",1006,1,2,13,"S 30","","",FALSE,"CV","q",682,"cv","S",0,"c","c",TRUE,1,-0.581604920081697
"CVOE_B",1006,1,2,14,"D 20","","",FALSE,"CV","q",1436,"cv","D",0,"c","c",TRUE,1,-0.157374360403844
"CVOE_B",1006,1,2,15,"I 31","","",FALSE,"CV","p",672,"cv","I",1,"v","v",TRUE,1,-0.587231320077425
"CVOE_B",1006,1,2,16,"P 16","","",FALSE,"CV","q",745,"cv","P",6,"c","c",TRUE,1,-0.546158600108614
"CVOE_B",1006,1,2,17,"A 49","","",FALSE,"CV","p",1061,"cv","A",9,"v","v",TRUE,1,-0.368364360243625
"CVOE_B",1006,1,2,18,"O 64","","",TRUE,"CV","p",693,"cv","O",4,"v","v",TRUE,1,-0.575415880086397
"CVOE_B",1006,1,2,19,"D 02","","",FALSE,"CV","q",761,"cv","D",2,"c","c",TRUE,1,-0.53715636011545
"CVOE_B",1006,1,2,20,"P 81","","",TRUE,"CV","q",2443,"cv","P",1,"c","c",TRUE,1,0.409204119165914
"CVOE_B",1006,1,2,21,"J 58","","",FALSE,"CV","q",1440,"cv","J",8,"c","c",TRUE,1,-0.155123800405553
"CVOE_B",1006,1,2,22,"A 22","","",TRUE,"CV","p",666,"cv","A",2,"v","v",TRUE,1,-0.590607160074861
"CVOE_B",1006,1,2,23,"J 72","","",FALSE,"CV","q",606,"cv","J",2,"c","c",TRUE,1,-0.624365560049226
"CVOE_B",1006,1,2,24,"P 91","","",TRUE,"CV","q",563,"cv","P",1,"c","c",TRUE,1,-0.648559080030855
"CVOE_B",1006,1,2,25,"E 19","","",FALSE,"CV","p",605,"cv","E",9,"v","v",TRUE,1,-0.624928200048799
"CVOE_B",1006,1,2,26,"I 30","","",TRUE,"CV","p",1724,"cv","I",0,"v","v",TRUE,1,0.00466595947310742
"CVOE_B",1006,1,2,27,"D 91","","",TRUE,"CV","q",536,"cv","D",1,"c","c",TRUE,1,-0.663750360019319
"CVOE_B",1006,1,2,28,"O 48","","",TRUE,"CV","p",619,"cv","O",8,"v","v",TRUE,1,-0.617051240054781
"CVOE_B",1006,1,2,29,"A 89","","",FALSE,"CV","p",887,"cv","A",9,"v","v",TRUE,1,-0.466263720169284
"CVOE_B",1006,1,2,30,"U 11","","",FALSE,"CV","p",800,"cv","U",1,"v","v",TRUE,1,-0.515213400132113
"CVOE_B",1006,1,2,31,"I 76","","",TRUE,"CV","p",1328,"cv","I",6,"v","v",TRUE,1,-0.218139480357701
"CVOE_B",1006,1,2,32,"U 89","","",FALSE,"CV","p",897,"cv","U",9,"v","v",TRUE,1,-0.460637320173556
"CVOE_B",1006,1,2,33,"D 63","","",TRUE,"CV","q",542,"cv","D",3,"c","c",TRUE,1,-0.660374520021882
"CVOE_B",1006,1,2,34,"H 70","","",FALSE,"CV","q",566,"cv","H",0,"c","c",TRUE,1,-0.646871160032136
"CVOE_B",1006,1,2,35,"D 48","","",FALSE,"CV","q",634,"cv","D",8,"c","c",TRUE,1,-0.608611640061189
"CVOE_B",1006,1,2,36,"P 56","","",FALSE,"CV","q",740,"cv","P",6,"c","c",TRUE,1,-0.548971800106478
"CVOE_B",1006,1,2,37,"O 77","","",FALSE,"CV","p",604,"cv","O",7,"v","v",TRUE,1,-0.625490840048372
"CVOE_B",1006,1,2,38,"P 42","","",FALSE,"CV","q",646,"cv","P",2,"c","c",TRUE,1,-0.601859960066316
"CVOE_B",1006,1,2,39,"H 22","","",FALSE,"CV","q",625,"cv","H",2,"c","c",TRUE,1,-0.613675400057344
"CVOE_B",1006,1,2,40,"E 42","","",TRUE,"CV","p",623,"cv","E",2,"v","v",TRUE,1,-0.61480068005649
"CVOE_B",1006,1,2,41,"J 28","","",FALSE,"CV","q",571,"cv","J",8,"c","c",TRUE,1,-0.644057960034273
"CVOE_B",1006,1,2,42,"E 95","","",FALSE,"CV","p",557,"cv","E",5,"v","v",TRUE,1,-0.651934920028291
"CVOE_B",1006,1,2,43,"S 63","","",TRUE,"CV","q",683,"cv","S",3,"c","c",TRUE,1,-0.581042280082125
"CVOE_B",1006,1,2,44,"H 50","","",FALSE,"CV","q",641,"cv","H",0,"c","c",TRUE,1,-0.60467316006418
"CVOE_B",1006,1,2,45,"S 33","","",TRUE,"CV","q",719,"cv","S",3,"c","c",TRUE,1,-0.560787240097506
"CVOE_B",1006,1,2,46,"P 57","","",TRUE,"CV","q",581,"cv","P",7,"c","c",TRUE,1,-0.638431560038545
"CVOE_B",1006,1,2,47,"E 23","","",FALSE,"CV","p",638,"cv","E",3,"v","v",TRUE,1,-0.606361080062898
