"ExperimentName","Subject","Group","Block","Trial","STIM","TASK","Switch","Congruent","CVOE","Response","RT","block_type","letter","number","key2","response2","match2","score2","zRT"
"CVOE updated",1001,1,1,11,"A 71","","",FALSE,"CV","p",4811,"cv","A",1,"v","v",TRUE,1,1.45624043342187
"CVOE updated",1001,1,1,12,"I 66","","",TRUE,"CV","p",1960,"cv","I",6,"v","v",TRUE,1,0.0592805063478264
"CVOE updated",1001,1,1,13,"S 30","","",FALSE,"CV","q",918,"cv","S",0,"c","c",TRUE,1,-0.45128850242494
"CVOE updated",1001,1,1,14,"D 20","","",FALSE,"CV","q",790,"cv","D",0,"c","c",TRUE,1,-0.514007152254992
"CVOE updated",1001,1,1,15,"I 31","","",FALSE,"CV","p",874,"cv","I",1,"v","v",TRUE,1,-0.47284803830402
"CVOE updated",1001,1,1,16,"P 16","","",FALSE,"CV","q",700,"cv","P",6,"c","c",TRUE,1,-0.558106202916747
"CVOE updated",1001,1,1,17,"A 49","","",FALSE,"CV","p",1100,"cv","A",9,"v","v",TRUE,1,-0.362110422197835
"CVOE updated",1001,1,1,18,"O 64","","",TRUE,"CV","p",1100,"cv","O",4,"v","v",TRUE,1,-0.362110422197835
"CVOE updated",1001,1,1,19,"D 02","","",FALSE,"CV","q",892,"cv","D",2,"c","c",TRUE,1,-0.464028228171669
"CVOE updated",1001,1,1,20,"P 81","","",TRUE,"CV","q",1116,"cv","P",1,"c","c",TRUE,1,-0.354270590969079
"CVOE updated",1001,1,1,21,"J 58","","",FALSE,"CV","q",828,"cv","J",8,"c","c",TRUE,1,-0.495387553086695
"CVOE updated",1001,1,1,22,"A 22","","",TRUE,"CV","p",679,"cv","A",2,"v","v",TRUE,1,-0.56839598140449
"CVOE updated",1001,1,1,23,"J 72","","",FALSE,"CV","q",999,"cv","J",2,"c","c",TRUE,1,-0.41159935682936
"CVOE updated",1001,1,1,24,"P 91","","",TRUE,"CV","q",1027,"cv","P",1,"c","c",TRUE,1,-0.397879652179036
"CVOE updated",1001,1,1,25,"E 19","","",FALSE,"CV","p",622,"cv","E",9,"v","v",TRUE,1,-0.596325380156935
"CVOE updated",1001,1,1,26,"I 30","","",TRUE,"CV","p",618,"cv","I",0,"v","v",TRUE,1,-0.598285337964124
"CVOE updated",1001,1,1,27,"D 91","","",TRUE,"CV","q",717,"cv","D",1,"c","c",TRUE,1,-0.549776382236194
"CVOE updated",1001,1,1,28,"O 48","","",TRUE,"CV","p",636,"cv","O",8,"v","v",TRUE,1,-0.589465527831773
"CVOE updated",1001,1,1,29,"A 89","","",FALSE,"CV","p",1127,"cv","A",9,"v","v",TRUE,1,-0.348880706999308
"CVOE updated",1001,1,1,30,"U 11","","",FALSE,"CV","p",886,"cv","U",1,"v","v",TRUE,1,-0.466968164882453
"CVOE updated",1001,1,1,31,"I 76","","",TRUE,"CV","p",726,"cv","I",6,"v","v",TRUE,1,-0.545366477170018
"CVOE updated",1001,1,1,32,"U 89","","",FALSE,"CV","p",669,"cv","U",9,"v","v",TRUE,1,-0.573295875922463
"CVOE updated",1001,1,1,33,"D 63","","",TRUE,"CV","q",758,"cv","D",3,"c","c",TRUE,1,-0.529686814712505
"CVOE updated",1001,1,1,34,"H 70","","",FALSE,"CV","q",1052,"cv","H",0,"c","c",TRUE,1,-0.385629915884105
"CVOE updated",1001,1,1,35,"D 48","","",FALSE,"CV","q",591,"cv","D",8,"c","c",TRUE,1,-0.611515053162651
"CVOE updated",1001,1,1,36,"P 56","","",FALSE,"CV","q",635,"cv","P",6,"c","c",TRUE,1,-0.589955517283571
"CVOE updated",1001,1,1,37,"O 77","","",FALSE,"CV","p",645,"cv","O",7,"v","v",TRUE,1,-0.585055622765598
"CVOE updated",1001,1,1,38,"P 42","","",FALSE,"CV","q",776,"cv","P",2,"c","c",TRUE,1,-0.520867004580154
"CVOE updated",1001,1,1,39,"H 22","","",FALSE,"CV","q",668,"cv","H",2,"c","c",TRUE,1,-0.57378586537426
"CVOE updated",1001,1,1,40,"E 42","","",TRUE,"CV","p",574,"cv","E",2,"v","v",TRUE,1,-0.619844873843205
"CVOE updated",1001,1,1,41,"J 28","","",FALSE,"CV","q",690,"cv","J",8,"c","c",TRUE,1,-0.56300609743472
"CVOE updated",1001,1,1,42,"E 95","","",FALSE,"CV","p",787,"cv","E",5,"v","v",TRUE,1,-0.515477120610384
"CVOE updated",1001,1,1,43,"S 63","","",TRUE,"CV","q",1031,"cv","S",3,"c","c",TRUE,1,-0.395919694371847
"CVOE updated",1001,1,1,44,"H 50","","",FALSE,"CV","q",602,"cv","H",0,"c","c",TRUE,1,-0.606125169192881
"CVOE updated",1001,1,1,45,"S 33","","",TRUE,"CV","q",646,"cv","S",3,"c","c",TRUE,1,-0.5845656333138
"CVOE updated",1001,1,1,46,"P 57","","",TRUE,"CV","q",632,"cv","P",7,"c","c",TRUE,1,-0.591425485638962
"CVOE updated",1001,1,1,47,"E 23","","",FALSE,"CV","p",699,"cv","E",3,"v","v",TRUE,1,-0.558596192368545
"CVOE updated",1001,1,1,48,"S 61","","",TRUE,"CV","q",763,"cv","S",1,"c","c",TRUE,1,-0.527236867453519
"CVOE updated",1001,1,1,49,"U 67","","",FALSE,"CV","p",560,"cv","U",7,"v","v",TRUE,1,-0.626704726168367
"CVOE updated",1001,1,1,50,"H 32","","",FALSE,"CV","q",685,"cv","H",2,"c","c",TRUE,1,-0.565456044693706
"CVOE updated",1001,1,1,51,"U 50","","",TRUE,"CV","p",502,"cv","U",0,"v","v",TRUE,1,-0.655124114372609
"CVOE updated",1001,1,1,52,"O 49","","",FALSE,"CV","p",630,"cv","O",9,"v","v",TRUE,1,-0.592405464542557
"CVOE updated",1001,1,1,53,"U 32","","",TRUE,"CV","p",609,"cv","U",2,"v","v",TRUE,1,-0.6026952430303
"CVOE updated",1001,1,1,54,"J 78","","",FALSE,"CV","q",716,"cv","J",8,"c","c",TRUE,1,-0.550266371687991
"CVOE updated",1001,1,1,55,"S 54","","",FALSE,"CV","q",635,"cv","S",4,"c","c",TRUE,1,-0.589955517283571
"CVOE updated",1001,1,1,56,"J 27","","",TRUE,"CV","q",566,"cv","J",7,"c","c",TRUE,1,-0.623764789457583
"CVOE updated",1001,1,1,57,"S 06","","",FALSE,"CV","q",635,"cv","S",6,"c","c",TRUE,1,-0.589955517283571
"CVOE updated",1001,1,1,58,"D 67","","",TRUE,"CV","q",766,"cv","D",7,"c","c",TRUE,1,-0.525766899098127
"CVOE updated",1001,1,1,59,"A 79","","",FALSE,"CV","p",771,"cv","A",9,"v","v",TRUE,1,-0.52331695183914
"CVOE updated",1001,1,1,60,"S 52","","",FALSE,"CV","q",768,"cv","S",2,"c","c",TRUE,1,-0.524786920194532
"CVOE updated",1001,1,1,61,"U 16","","",TRUE,"CV","p",702,"cv","U",6,"v","v",TRUE,1,-0.557126224013153
"CVOE updated",1001,1,1,62,"O 82","","",TRUE,"CV","p",590,"cv","O",2,"v","v",TRUE,1,-0.612005042614448
"CVOE updated",1001,1,1,63,"H 87","","",TRUE,"CV","q",722,"cv","H",7,"c","c",TRUE,1,-0.547326434977207
"CVOE updated",1001,1,1,64,"I 32","","",TRUE,"CV","p",1330,"cv","I",2,"v","v",TRUE,1,-0.24941284828446
"CVOE updated",1001,1,1,65,"U 37","","",FALSE,"CV","p",833,"cv","U",7,"v","v",TRUE,1,-0.492937605827709
"CVOE updated",1001,1,1,66,"I 42","","",TRUE,"CV","p",620,"cv","I",2,"v","v",TRUE,1,-0.59730535906053
"CVOE updated",1001,1,1,67,"D 65","","",TRUE,"CV","q",679,"cv","D",5,"c","c",TRUE,1,-0.56839598140449
"CVOE updated",1001,1,1,68,"U 77","","",FALSE,"CV","p",743,"cv","U",7,"v","v",TRUE,1,-0.537036656489464
"CVOE updated",1001,1,1,69,"E 12","","",TRUE,"CV","p",1326,"cv","E",2,"v","v",TRUE,1,-0.25137280609165
"CVOE updated",1001,1,1,70,"I 60","","",TRUE,"CV","p",565,"cv","I",0,"v","v",TRUE,1,-0.62425477890938
"CVOE updated",1001,1,1,71,"J 36","","",FALSE,"CV","q",698,"cv","J",6,"c","c",TRUE,1,-0.559086181820342
"CVOE updated",1001,1,1,72,"H 75","","",TRUE,"CV","q",778,"cv","H",5,"c","c",TRUE,1,-0.519887025676559
"CVOE updated",1001,1,1,73,"I 50","","",TRUE,"CV","p",742,"cv","I",0,"v","v",TRUE,1,-0.537526645941262
"CVOE updated",1001,1,1,74,"E 99","","",FALSE,"CV","p",725,"cv","E",9,"v","v",TRUE,1,-0.545856466621815
"CVOE updated",1001,1,1,75,"A 86","","",TRUE,"CV","p",1019,"cv","A",6,"v","v",TRUE,1,-0.401799567793415
"CVOE updated",1001,1,1,76,"U 48","","",TRUE,"CV","p",631,"cv","U",8,"v","v",TRUE,1,-0.59191547509076
"CVOE updated",1001,1,1,77,"E 01","","",FALSE,"CV","p",649,"cv","E",1,"v","v",TRUE,1,-0.583095664958409
"CVOE updated",1001,1,1,78,"A 78","","",TRUE,"CV","p",699,"cv","A",8,"v","v",TRUE,1,-0.558596192368545
"CVOE updated",1001,1,1,79,"P 60","","",FALSE,"CV","q",803,"cv","P",0,"c","c",TRUE,1,-0.507637289381627
"CVOE updated",1001,1,1,80,"E 43","","",FALSE,"CV","p",975,"cv","E",3,"v","v",TRUE,1,-0.423359103672495
"CVOE updated",1001,1,1,81,"D 69","","",TRUE,"CV","q",924,"cv","D",9,"c","c",TRUE,1,-0.448348565714156
"CVOE updated",1001,1,1,82,"H 11","","",TRUE,"CV","q",612,"cv","H",1,"c","c",TRUE,1,-0.601225274674908
"CVOE updated",1001,1,1,83,"P 43","","",TRUE,"CV","q",543,"cv","P",3,"c","c",TRUE,1,-0.63503454684892
"CVOE updated",1001,1,1,84,"O 67","","",FALSE,"CV","p",613,"cv","O",7,"v","v",TRUE,1,-0.600735285223111
"CVOE updated",1001,1,1,85,"S 91","","",FALSE,"CV","q",728,"cv","S",1,"c","c",TRUE,1,-0.544386498266423
"CVOE updated",1001,1,1,86,"J 68","","",TRUE,"CV","q",671,"cv","J",8,"c","c",TRUE,1,-0.572315897018868
"CVOE updated",1001,1,1,87,"S 47","","",FALSE,"CV","q",624,"cv","S",7,"c","c",TRUE,1,-0.595345401253341
"CVOE updated",1001,1,1,88,"I 81","","",TRUE,"CV","p",659,"cv","I",1,"v","v",TRUE,1,-0.578195770440436
"CVOE updated",1001,1,1,89,"J 39","","",FALSE,"CV","q",805,"cv","J",9,"c","c",TRUE,1,-0.506657310478033
"CVOE updated",1001,1,1,90,"A 11","","",TRUE,"CV","p",793,"cv","A",1,"v","v",TRUE,1,-0.5125371838996
"CVOE updated",1001,1,1,91,"O 76","","",FALSE,"CV","p",541,"cv","O",6,"v","v",TRUE,1,-0.636014525752515
"CVOE updated",1001,1,1,92,"A 62","","",FALSE,"CV","p",547,"cv","A",2,"v","v",TRUE,1,-0.633074589041731
"CVOE updated",1001,1,1,93,"O 27","","",TRUE,"CV","p",545,"cv","O",7,"v","v",TRUE,1,-0.634054567945326
"CVOE updated",1001,1,1,94,"E 66","","",FALSE,"CV","p",607,"cv","E",6,"v","v",TRUE,1,-0.603675221933894
"CVOE updated",1001,1,1,95,"J 62","","",TRUE,"CV","q",531,"cv","J",2,"c","c",TRUE,1,-0.640914420270488
"CVOE updated",1001,1,1,96,"H 72","","",TRUE,"CV","q",546,"cv","H",2,"c","c",TRUE,1,-0.633564578493529
"CVOE updated",1001,1,1,97,"E 49","","",TRUE,"CV","p",680,"cv","E",9,"v","v",TRUE,1,-0.567905991952693
"CVOE updated",1001,1,1,98,"D 52","","",TRUE,"CV","q",800,"cv","D",2,"c","c",TRUE,1,-0.509107257737019
"CVOE updated",1001,1,1,99,"H 62","","",TRUE,"CV","q",516,"cv","H",2,"c","c",TRUE,1,-0.648264262047447
"CVOE updated",1001,1,1,100,"I 11","","",TRUE,"CV","p",660,"cv","I",1,"v","v",TRUE,1,-0.577705780988639
"CVOE updated",1001,1,1,101,"A 98","","",FALSE,"CV","p",1221,"cv","A",8,"v","v",TRUE,1,-0.302821698530364
"CVOE updated",1001,1,1,102,"H 29","","",FALSE,"CV","q",776,"cv","H",9,"c","c",TRUE,1,-0.520867004580154
"CVOE updated",1001,1,1,103,"E 83","","",TRUE,"CV","p",773,"cv","E",3,"v","v",TRUE,1,-0.522336972935546
"CVOE updated",1001,1,1,104,"D 43","","",FALSE,"CV","q",627,"cv","D",3,"c","c",TRUE,1,-0.593875432897949
"CVOE updated",1001,1,1,105,"P 45","","",TRUE,"CV","q",1253,"cv","P",5,"c","c",TRUE,1,-0.287142036072851
"CVOE updated",1001,1,1,106,"J 17","","",TRUE,"CV","q",1015,"cv","J",7,"c","c",TRUE,1,-0.403759525600604
"CVOE_C",2003,1,2,14,"D 20","","",FALSE,"CV","q",6059,"cv","D",0,"c","c",TRUE,1,2.06774726926488
"CVOE_C",2003,1,2,15,"I 31","","",FALSE,"CV","p",7456,"cv","I",1,"v","v",TRUE,1,2.75226253342568
"CVOE_C",2003,1,2,16,"P 16","","",FALSE,"CV","q",3365,"cv","P",6,"c","c",TRUE,1,0.747715686123006
"CVOE_C",2003,1,2,17,"A 49","","",FALSE,"CV","p",4379,"cv","A",9,"v","v",TRUE,1,1.24456499024545
"CVOE_C",2003,1,2,19,"D 02","","",FALSE,"CV","q",4660,"cv","D",2,"c","c",TRUE,1,1.38225202620048
"CVOE_C",2003,1,2,20,"P 81","","",TRUE,"CV","q",7495,"cv","P",1,"c","c",TRUE,1,2.77137212204578
"CVOE_C",2003,1,2,21,"J 58","","",FALSE,"CV","q",1930,"cv","J",8,"c","c",TRUE,1,0.044580822793908
"CVOE_C",2003,1,2,22,"A 22","","",TRUE,"CV","p",1737,"cv","A",2,"v","v",TRUE,1,-0.0499871414029672
"CVOE_C",2003,1,2,23,"J 72","","",FALSE,"CV","q",1793,"cv","J",2,"c","c",TRUE,1,-0.0225477321023195
"CVOE_C",2003,1,2,24,"P 91","","",TRUE,"CV","q",1853,"cv","P",1,"c","c",TRUE,1,0.00685163500551736
"CVOE_C",2003,1,2,25,"E 19","","",FALSE,"CV","p",4512,"cv","E",9,"v","v",TRUE,1,1.30973358733449
"CVOE_C",2003,1,2,27,"D 91","","",TRUE,"CV","q",1259,"cv","D",1,"c","c",TRUE,1,-0.284202099362067
"CVOE_C",2003,1,2,28,"O 48","","",TRUE,"CV","p",3972,"cv","O",8,"v","v",TRUE,1,1.04513928336396
"CVOE_C",2003,1,2,29,"A 89","","",FALSE,"CV","p",1315,"cv","A",9,"v","v",TRUE,1,-0.25676269006142
"CVOE_C",2003,1,2,30,"U 11","","",FALSE,"CV","p",2275,"cv","U",1,"v","v",TRUE,1,0.21362718366397
"CVOE_C",2003,1,2,31,"I 76","","",TRUE,"CV","p",6389,"cv","I",6,"v","v",TRUE,1,2.22944378835798
"CVOE_C",2003,1,2,33,"D 63","","",TRUE,"CV","q",2449,"cv","D",3,"c","c",TRUE,1,0.298885348276697
"CVOE_C",2003,1,2,34,"H 70","","",FALSE,"CV","q",1572,"cv","H",0,"c","c",TRUE,1,-0.130835400949519
"CVOE_C",2003,1,2,35,"D 48","","",FALSE,"CV","q",1426,"cv","D",8,"c","c",TRUE,1,-0.202373860911921
"CVOE_C",2003,1,2,36,"P 56","","",FALSE,"CV","q",2693,"cv","P",6,"c","c",TRUE,1,0.418442774515233
"CVOE_C",2003,1,2,37,"O 77","","",FALSE,"CV","p",2982,"cv","O",7,"v","v",TRUE,1,0.560049726084647
"CVOE_C",2003,1,2,38,"P 42","","",FALSE,"CV","q",1972,"cv","P",2,"c","c",TRUE,1,0.0651603797693938
"CVOE_C",2003,1,2,40,"E 42","","",TRUE,"CV","p",2898,"cv","E",2,"v","v",TRUE,1,0.518890612133676
"CVOE_C",2003,1,2,41,"J 28","","",FALSE,"CV","q",3203,"cv","J",8,"c","c",TRUE,1,0.668337394931846
"CVOE_C",2003,1,2,42,"E 95","","",FALSE,"CV","p",4152,"cv","E",5,"v","v",TRUE,1,1.13333738468747
"CVOE_C",2003,1,2,43,"S 63","","",TRUE,"CV","q",1904,"cv","S",3,"c","c",TRUE,1,0.0318410970471787
"CVOE_C",2003,1,2,44,"H 50","","",FALSE,"CV","q",1361,"cv","H",0,"c","c",TRUE,1,-0.234223175278745
"CVOE_C",2003,1,2,45,"S 33","","",TRUE,"CV","q",1086,"cv","S",3,"c","c",TRUE,1,-0.368970274522997
"CVOE_C",2003,1,2,46,"P 57","","",TRUE,"CV","q",1287,"cv","P",7,"c","c",TRUE,1,-0.270482394711744
"CVOE_C",2003,1,2,47,"E 23","","",FALSE,"CV","p",2384,"cv","E",3,"v","v",TRUE,1,0.267036033909873
"CVOE_C",2003,1,2,48,"S 61","","",TRUE,"CV","q",2086,"cv","S",1,"c","c",TRUE,1,0.121019177274284
"CVOE_C",2003,1,2,49,"U 67","","",FALSE,"CV","p",2423,"cv","U",7,"v","v",TRUE,1,0.286145622529967
"CVOE_C",2003,1,2,50,"H 32","","",FALSE,"CV","q",2699,"cv","H",2,"c","c",TRUE,1,0.421382711226017
"CVOE_C",2003,1,2,52,"O 49","","",FALSE,"CV","p",5305,"cv","O",9,"v","v",TRUE,1,1.69829522260973
"CVOE_C",2003,1,2,54,"J 78","","",FALSE,"CV","q",1864,"cv","J",8,"c","c",TRUE,1,0.0122415189752875
"CVOE_C",2003,1,2,55,"S 54","","",FALSE,"CV","q",1978,"cv","S",4,"c","c",TRUE,1,0.0681003164801774
"CVOE_C",2003,1,2,56,"J 27","","",TRUE,"CV","q",1615,"cv","J",7,"c","c",TRUE,1,-0.109765854522235
"CVOE_C",2003,1,2,57,"S 06","","",FALSE,"CV","q",1483,"cv","S",6,"c","c",TRUE,1,-0.174444462159477
"CVOE_C",2003,1,2,58,"D 67","","",TRUE,"CV","q",1660,"cv","D",7,"c","c",TRUE,1,-0.0877163291913578
"CVOE_C",2003,1,2,59,"A 79","","",FALSE,"CV","p",1798,"cv","A",9,"v","v",TRUE,1,-0.0200977848433331
"CVOE_C",2003,1,2,60,"S 52","","",FALSE,"CV","q",1283,"cv","S",2,"c","c",TRUE,1,-0.272442352518933
"CVOE_C",2003,1,2,62,"O 82","","",TRUE,"CV","p",2933,"cv","O",2,"v","v",TRUE,1,0.53604024294658
"CVOE_C",2003,1,2,63,"H 87","","",TRUE,"CV","q",1741,"cv","H",7,"c","c",TRUE,1,-0.0480271835957781
"CVOE_C",2003,1,2,66,"I 42","","",TRUE,"CV","p",2524,"cv","I",2,"v","v",TRUE,1,0.335634557161493
"CVOE_C",2003,1,2,67,"D 65","","",TRUE,"CV","q",3244,"cv","D",5,"c","c",TRUE,1,0.688426962455535
"CVOE_C",2003,1,2,68,"U 77","","",FALSE,"CV","p",2288,"cv","U",7,"v","v",TRUE,1,0.219997046537334
"CVOE_C",2003,1,2,70,"I 60","","",TRUE,"CV","p",7080,"cv","I",0,"v","v",TRUE,1,2.5680264995499
"CVOE_C",2003,1,2,71,"J 36","","",FALSE,"CV","q",2132,"cv","J",6,"c","c",TRUE,1,0.143558692056959
"CVOE_C",2003,1,2,72,"H 75","","",TRUE,"CV","q",1979,"cv","H",5,"c","c",TRUE,1,0.0685903059319747
"CVOE_C",2003,1,2,73,"I 50","","",TRUE,"CV","p",2232,"cv","I",0,"v","v",TRUE,1,0.192557637236687
"CVOE_C",2003,1,2,74,"E 99","","",FALSE,"CV","p",6068,"cv","E",9,"v","v",TRUE,1,2.07215717433106
"CVOE_C",2003,1,2,75,"A 86","","",TRUE,"CV","p",2272,"cv","A",6,"v","v",TRUE,1,0.212157215308578
"CVOE_C",2003,1,2,76,"U 48","","",TRUE,"CV","p",3234,"cv","U",8,"v","v",TRUE,1,0.683527067937562
"CVOE_C",2003,1,2,77,"E 01","","",FALSE,"CV","p",6230,"cv","E",1,"v","v",TRUE,1,2.15153546552221
"CVOE_C",2003,1,2,78,"A 78","","",TRUE,"CV","p",2644,"cv","A",8,"v","v",TRUE,1,0.394433291377166
"CVOE_C",2003,1,2,79,"P 60","","",FALSE,"CV","q",4191,"cv","P",0,"c","c",TRUE,1,1.15244697330756
"CVOE_C",2003,1,2,80,"E 43","","",FALSE,"CV","p",4877,"cv","E",3,"v","v",TRUE,1,1.48857973724049
"CVOE_C",2003,1,2,81,"D 69","","",TRUE,"CV","q",3680,"cv","D",9,"c","c",TRUE,1,0.902062363439149
"CVOE_C",2003,1,2,82,"H 11","","",TRUE,"CV","q",1386,"cv","H",1,"c","c",TRUE,1,-0.221973438983813
"CVOE_C",2003,1,2,83,"P 43","","",TRUE,"CV","q",1351,"cv","P",3,"c","c",TRUE,1,-0.239123069796718
"CVOE_C",2003,1,2,84,"O 67","","",FALSE,"CV","p",3565,"cv","O",7,"v","v",TRUE,1,0.845713576482462
"CVOE_C",2003,1,2,85,"S 91","","",FALSE,"CV","q",1756,"cv","S",1,"c","c",TRUE,1,-0.0406773418188189
"CVOE_C",2003,1,2,86,"J 68","","",TRUE,"CV","q",1259,"cv","J",8,"c","c",TRUE,1,-0.284202099362067
"CVOE_C",2003,1,2,87,"S 47","","",FALSE,"CV","q",1452,"cv","S",7,"c","c",TRUE,1,-0.189634135165192
"CVOE_C",2003,1,2,88,"I 81","","",TRUE,"CV","p",2511,"cv","I",1,"v","v",TRUE,1,0.329264694288128
"CVOE_C",2003,1,2,89,"J 39","","",FALSE,"CV","q",2263,"cv","J",9,"c","c",TRUE,1,0.207747310242402
"CVOE_C",2003,1,2,90,"A 11","","",TRUE,"CV","p",3945,"cv","A",1,"v","v",TRUE,1,1.03190956816543
"CVOE_C",2003,1,2,91,"O 76","","",FALSE,"CV","p",3041,"cv","O",6,"v","v",TRUE,1,0.588959103740687
"CVOE_C",2003,1,2,92,"A 62","","",FALSE,"CV","p",4052,"cv","A",2,"v","v",TRUE,1,1.08433843950774
"CVOE_C",2003,1,2,93,"O 27","","",TRUE,"CV","p",5488,"cv","O",7,"v","v",TRUE,1,1.78796329228863
"CVOE_C",2003,1,2,94,"E 66","","",FALSE,"CV","p",4084,"cv","E",6,"v","v",TRUE,1,1.10001810196525
"CVOE_C",2003,1,2,95,"J 62","","",TRUE,"CV","q",1814,"cv","J",2,"c","c",TRUE,1,-0.0122579536145766
"CVOE_C",2003,1,2,96,"H 72","","",TRUE,"CV","q",1730,"cv","H",2,"c","c",TRUE,1,-0.0534170675655482
"CVOE_C",2003,1,2,97,"E 49","","",TRUE,"CV","p",2281,"cv","E",9,"v","v",TRUE,1,0.216567120374754
"CVOE_C",2003,1,2,98,"D 52","","",TRUE,"CV","q",1955,"cv","D",2,"c","c",TRUE,1,0.05683055908884
"CVOE_C",2003,1,2,99,"H 62","","",TRUE,"CV","q",1697,"cv","H",2,"c","c",TRUE,1,-0.0695867194748584
"CVOE_C",2003,1,2,100,"I 11","","",TRUE,"CV","p",2418,"cv","I",1,"v","v",TRUE,1,0.283695675270981
"CVOE_C",2003,1,2,101,"A 98","","",FALSE,"CV","p",2798,"cv","A",8,"v","v",TRUE,1,0.469891666953948
"CVOE_C",2003,1,2,102,"H 29","","",FALSE,"CV","q",4971,"cv","H",9,"c","c",TRUE,1,1.53463874570944
"CVOE_C",2003,1,2,103,"E 83","","",TRUE,"CV","p",3643,"cv","E",3,"v","v",TRUE,1,0.88393275372265
"CVOE_C",2003,1,2,104,"D 43","","",FALSE,"CV","q",2207,"cv","D",3,"c","c",TRUE,1,0.180307900941755
"CVOE_C",2003,1,2,105,"P 45","","",TRUE,"CV","q",1323,"cv","P",5,"c","c",TRUE,1,-0.252842774447041
"CVOE_C",2003,1,2,106,"J 17","","",TRUE,"CV","q",1619,"cv","J",7,"c","c",TRUE,1,-0.107805896715046
"CVOE updated",2001,1,1,11,"A 71","","",FALSE,"CV","p",4796,"cv","A",1,"v","v",TRUE,1,1.44889059164491
"CVOE updated",2001,1,1,12,"I 66","","",TRUE,"CV","p",1007,"cv","I",6,"v","v",TRUE,1,-0.407679441214982
"CVOE updated",2001,1,1,13,"S 30","","",FALSE,"CV","q",1346,"cv","S",0,"c","c",TRUE,1,-0.241573017055704
"CVOE updated",2001,1,1,14,"D 20","","",FALSE,"CV","q",1432,"cv","D",0,"c","c",TRUE,1,-0.199433924201138
"CVOE updated",2001,1,1,15,"I 31","","",FALSE,"CV","p",1395,"cv","I",1,"v","v",TRUE,1,-0.217563533917637
"CVOE updated",2001,1,1,16,"P 16","","",FALSE,"CV","q",1118,"cv","P",6,"c","c",TRUE,1,-0.353290612065484
"CVOE updated",2001,1,1,17,"A 49","","",FALSE,"CV","p",1321,"cv","A",9,"v","v",TRUE,1,-0.253822753350636
"CVOE updated",2001,1,1,18,"O 64","","",TRUE,"CV","p",1105,"cv","O",4,"v","v",TRUE,1,-0.359660474938849
"CVOE updated",2001,1,1,19,"D 02","","",FALSE,"CV","q",932,"cv","D",2,"c","c",TRUE,1,-0.444428650099778
"CVOE updated",2001,1,1,20,"P 81","","",TRUE,"CV","q",1202,"cv","P",1,"c","c",TRUE,1,-0.312131498114512
"CVOE updated",2001,1,1,21,"J 58","","",FALSE,"CV","q",1125,"cv","J",8,"c","c",TRUE,1,-0.349860685902903
"CVOE updated",2001,1,1,22,"A 22","","",TRUE,"CV","p",1484,"cv","A",2,"v","v",TRUE,1,-0.173954472707679
"CVOE updated",2001,1,1,23,"J 72","","",FALSE,"CV","q",2416,"cv","J",2,"c","c",TRUE,1,0.282715696367386
"CVOE updated",2001,1,1,24,"P 91","","",TRUE,"CV","q",1316,"cv","P",1,"c","c",TRUE,1,-0.256272700609622
"CVOE updated",2001,1,1,25,"E 19","","",FALSE,"CV","p",1122,"cv","E",9,"v","v",TRUE,1,-0.351330654258295
"CVOE updated",2001,1,1,26,"I 30","","",TRUE,"CV","p",1207,"cv","I",0,"v","v",TRUE,1,-0.309681550855526
"CVOE updated",2001,1,1,27,"D 91","","",TRUE,"CV","q",974,"cv","D",1,"c","c",TRUE,1,-0.423849093124292
"CVOE updated",2001,1,1,28,"O 48","","",TRUE,"CV","p",1406,"cv","O",8,"v","v",TRUE,1,-0.212173649947867
"CVOE updated",2001,1,1,29,"A 89","","",FALSE,"CV","p",1363,"cv","A",9,"v","v",TRUE,1,-0.23324319637515
"CVOE updated",2001,1,1,30,"U 11","","",FALSE,"CV","p",1158,"cv","U",1,"v","v",TRUE,1,-0.333691033993593
"CVOE updated",2001,1,1,31,"I 76","","",TRUE,"CV","p",1014,"cv","I",6,"v","v",TRUE,1,-0.404249515052401
"CVOE updated",2001,1,1,32,"U 89","","",FALSE,"CV","p",768,"cv","U",9,"v","v",TRUE,1,-0.524786920194532
"CVOE updated",2001,1,1,33,"D 63","","",TRUE,"CV","q",948,"cv","D",3,"c","c",TRUE,1,-0.436588818871022
"CVOE updated",2001,1,1,34,"H 70","","",FALSE,"CV","q",967,"cv","H",0,"c","c",TRUE,1,-0.427279019286873
"CVOE updated",2001,1,1,35,"D 48","","",FALSE,"CV","q",1163,"cv","D",8,"c","c",TRUE,1,-0.331241086734606
"CVOE updated",2001,1,1,36,"P 56","","",FALSE,"CV","q",1590,"cv","P",6,"c","c",TRUE,1,-0.122015590817167
"CVOE updated",2001,1,1,37,"O 77","","",FALSE,"CV","p",972,"cv","O",7,"v","v",TRUE,1,-0.424829072027887
"CVOE updated",2001,1,1,38,"P 42","","",FALSE,"CV","q",1130,"cv","P",2,"c","c",TRUE,1,-0.347410738643917
"CVOE updated",2001,1,1,39,"H 22","","",FALSE,"CV","q",1120,"cv","H",2,"c","c",TRUE,1,-0.352310633161889
"CVOE updated",2001,1,1,40,"E 42","","",TRUE,"CV","p",1126,"cv","E",2,"v","v",TRUE,1,-0.349370696451106
"CVOE updated",2001,1,1,41,"J 28","","",FALSE,"CV","q",1312,"cv","J",8,"c","c",TRUE,1,-0.258232658416811
"CVOE updated",2001,1,1,42,"E 95","","",FALSE,"CV","p",1354,"cv","E",5,"v","v",TRUE,1,-0.237653101441326
"CVOE updated",2001,1,1,43,"S 63","","",TRUE,"CV","q",969,"cv","S",3,"c","c",TRUE,1,-0.426299040383279
"CVOE updated",2001,1,1,44,"H 50","","",FALSE,"CV","q",1009,"cv","H",0,"c","c",TRUE,1,-0.406699462311388
"CVOE updated",2001,1,1,45,"S 33","","",TRUE,"CV","q",1155,"cv","S",3,"c","c",TRUE,1,-0.335161002348985
"CVOE updated",2001,1,1,46,"P 57","","",TRUE,"CV","q",1247,"cv","P",7,"c","c",TRUE,1,-0.290081972783635
"CVOE updated",2001,1,1,47,"E 23","","",FALSE,"CV","p",1002,"cv","E",3,"v","v",TRUE,1,-0.410129388473969
"CVOE updated",2001,1,1,48,"S 61","","",TRUE,"CV","q",929,"cv","S",1,"c","c",TRUE,1,-0.44589861845517
"CVOE updated",2001,1,1,49,"U 67","","",FALSE,"CV","p",1199,"cv","U",7,"v","v",TRUE,1,-0.313601466469904
"CVOE updated",2001,1,1,50,"H 32","","",FALSE,"CV","q",848,"cv","H",2,"c","c",TRUE,1,-0.48558776405075
"CVOE updated",2001,1,1,51,"U 50","","",TRUE,"CV","p",1083,"cv","U",0,"v","v",TRUE,1,-0.370440242878389
"CVOE updated",2001,1,1,52,"O 49","","",FALSE,"CV","p",967,"cv","O",9,"v","v",TRUE,1,-0.427279019286873
"CVOE updated",2001,1,1,53,"U 32","","",TRUE,"CV","p",889,"cv","U",2,"v","v",TRUE,1,-0.465498196527061
"CVOE updated",2001,1,1,54,"J 78","","",FALSE,"CV","q",1639,"cv","J",8,"c","c",TRUE,1,-0.0980061076791007
"CVOE updated",2001,1,1,56,"J 27","","",TRUE,"CV","q",4611,"cv","J",7,"c","c",TRUE,1,1.35824254306242
"CVOE updated",2001,1,1,57,"S 06","","",FALSE,"CV","q",1201,"cv","S",6,"c","c",TRUE,1,-0.31262148756631
"CVOE updated",2001,1,1,58,"D 67","","",TRUE,"CV","q",969,"cv","D",7,"c","c",TRUE,1,-0.426299040383279
"CVOE updated",2001,1,1,59,"A 79","","",FALSE,"CV","p",1087,"cv","A",9,"v","v",TRUE,1,-0.3684802850712
"CVOE updated",2001,1,1,60,"S 52","","",FALSE,"CV","q",853,"cv","S",2,"c","c",TRUE,1,-0.483137816791763
"CVOE updated",2001,1,1,61,"U 16","","",TRUE,"CV","p",1009,"cv","U",6,"v","v",TRUE,1,-0.406699462311388
"CVOE updated",2001,1,1,62,"O 82","","",TRUE,"CV","p",898,"cv","O",2,"v","v",TRUE,1,-0.461088291460886
"CVOE updated",2001,1,1,63,"H 87","","",TRUE,"CV","q",809,"cv","H",7,"c","c",TRUE,1,-0.504697352670844
"CVOE updated",2001,1,1,64,"I 32","","",TRUE,"CV","p",961,"cv","I",2,"v","v",TRUE,1,-0.430218955997657
"CVOE updated",2001,1,1,65,"U 37","","",FALSE,"CV","p",1157,"cv","U",7,"v","v",TRUE,1,-0.33418102344539
"CVOE updated",2001,1,1,66,"I 42","","",TRUE,"CV","p",895,"cv","I",2,"v","v",TRUE,1,-0.462558259816278
"CVOE updated",2001,1,1,70,"I 60","","",TRUE,"CV","p",1601,"cv","I",0,"v","v",TRUE,1,-0.116625706847397
"CVOE updated",2001,1,1,72,"H 75","","",TRUE,"CV","q",1122,"cv","H",5,"c","c",TRUE,1,-0.351330654258295
"CVOE updated",2001,1,1,73,"I 50","","",TRUE,"CV","p",1051,"cv","I",0,"v","v",TRUE,1,-0.386119905335902
"CVOE updated",2001,1,1,74,"E 99","","",FALSE,"CV","p",1198,"cv","E",9,"v","v",TRUE,1,-0.314091455921702
"CVOE updated",2001,1,1,75,"A 86","","",TRUE,"CV","p",1160,"cv","A",6,"v","v",TRUE,1,-0.332711055089998
"CVOE updated",2001,1,1,76,"U 48","","",TRUE,"CV","p",921,"cv","U",8,"v","v",TRUE,1,-0.449818534069548
"CVOE updated",2001,1,1,77,"E 01","","",FALSE,"CV","p",1207,"cv","E",1,"v","v",TRUE,1,-0.309681550855526
"CVOE updated",2001,1,1,78,"A 78","","",TRUE,"CV","p",777,"cv","A",8,"v","v",TRUE,1,-0.520377015128357
"CVOE updated",2001,1,1,79,"P 60","","",FALSE,"CV","q",1041,"cv","P",0,"c","c",TRUE,1,-0.391019799853875
"CVOE updated",2001,1,1,80,"E 43","","",FALSE,"CV","p",974,"cv","E",3,"v","v",TRUE,1,-0.423849093124292
"CVOE updated",2001,1,1,81,"D 69","","",TRUE,"CV","q",1036,"cv","D",9,"c","c",TRUE,1,-0.393469747112861
"CVOE updated",2001,1,1,82,"H 11","","",TRUE,"CV","q",1010,"cv","H",1,"c","c",TRUE,1,-0.40620947285959
"CVOE updated",2001,1,1,83,"P 43","","",TRUE,"CV","q",960,"cv","P",3,"c","c",TRUE,1,-0.430708945449454
"CVOE updated",2001,1,1,84,"O 67","","",FALSE,"CV","p",843,"cv","O",7,"v","v",TRUE,1,-0.488037711309736
"CVOE updated",2001,1,1,85,"S 91","","",FALSE,"CV","q",806,"cv","S",1,"c","c",TRUE,1,-0.506167321026236
"CVOE updated",2001,1,1,86,"J 68","","",TRUE,"CV","q",1520,"cv","J",8,"c","c",TRUE,1,-0.156314852442977
"CVOE updated",2001,1,1,87,"S 47","","",FALSE,"CV","q",1008,"cv","S",7,"c","c",TRUE,1,-0.407189451763185
"CVOE updated",2001,1,1,88,"I 81","","",TRUE,"CV","p",998,"cv","I",1,"v","v",TRUE,1,-0.412089346281158
"CVOE updated",2001,1,1,89,"J 39","","",FALSE,"CV","q",1553,"cv","J",9,"c","c",TRUE,1,-0.140145200533667
"CVOE updated",2001,1,1,90,"A 11","","",TRUE,"CV","p",1142,"cv","A",1,"v","v",TRUE,1,-0.341530865222349
"CVOE updated",2001,1,1,91,"O 76","","",FALSE,"CV","p",1076,"cv","O",6,"v","v",TRUE,1,-0.37387016904097
"CVOE updated",2001,1,1,92,"A 62","","",FALSE,"CV","p",999,"cv","A",2,"v","v",TRUE,1,-0.41159935682936
"CVOE updated",2001,1,1,93,"O 27","","",TRUE,"CV","p",809,"cv","O",7,"v","v",TRUE,1,-0.504697352670844
"CVOE updated",2001,1,1,94,"E 66","","",FALSE,"CV","p",1196,"cv","E",6,"v","v",TRUE,1,-0.315071434825296
"CVOE updated",2001,1,1,95,"J 62","","",TRUE,"CV","q",1197,"cv","J",2,"c","c",TRUE,1,-0.314581445373499
"CVOE updated",2001,1,1,96,"H 72","","",TRUE,"CV","q",1238,"cv","H",2,"c","c",TRUE,1,-0.29449187784981
"CVOE updated",2001,1,1,97,"E 49","","",TRUE,"CV","p",932,"cv","E",9,"v","v",TRUE,1,-0.444428650099778
"CVOE updated",2001,1,1,98,"D 52","","",TRUE,"CV","q",887,"cv","D",2,"c","c",TRUE,1,-0.466478175430656
"CVOE updated",2001,1,1,99,"H 62","","",TRUE,"CV","q",1050,"cv","H",2,"c","c",TRUE,1,-0.386609894787699
"CVOE updated",2001,1,1,100,"I 11","","",TRUE,"CV","p",928,"cv","I",1,"v","v",TRUE,1,-0.446388607906967
"CVOE updated",2001,1,1,101,"A 98","","",FALSE,"CV","p",1079,"cv","A",8,"v","v",TRUE,1,-0.372400200685578
"CVOE updated",2001,1,1,102,"H 29","","",FALSE,"CV","q",1119,"cv","H",9,"c","c",TRUE,1,-0.352800622613687
"CVOE updated",2001,1,1,103,"E 83","","",TRUE,"CV","p",1244,"cv","E",3,"v","v",TRUE,1,-0.291551941139027
"CVOE updated",2001,1,1,104,"D 43","","",FALSE,"CV","q",843,"cv","D",3,"c","c",TRUE,1,-0.488037711309736
"CVOE updated",2001,1,1,106,"J 17","","",TRUE,"CV","q",2383,"cv","J",7,"c","c",TRUE,1,0.266546044458076
"CVOE_B",1002,1,2,11,"A 71","","",FALSE,"CV","p",4490,"cv","A",1,"v","v",TRUE,1,1.29895381939495
"CVOE_B",1002,1,2,12,"I 66","","",TRUE,"CV","p",1197,"cv","I",6,"v","v",TRUE,1,-0.314581445373499
"CVOE_B",1002,1,2,13,"S 30","","",FALSE,"CV","q",1276,"cv","S",0,"c","c",TRUE,1,-0.275872278681514
"CVOE_B",1002,1,2,14,"D 20","","",FALSE,"CV","q",1076,"cv","D",0,"c","c",TRUE,1,-0.37387016904097
"CVOE_B",1002,1,2,15,"I 31","","",FALSE,"CV","p",921,"cv","I",1,"v","v",TRUE,1,-0.449818534069548
"CVOE_B",1002,1,2,16,"P 16","","",FALSE,"CV","q",931,"cv","P",6,"c","c",TRUE,1,-0.444918639551575
"CVOE_B",1002,1,2,17,"A 49","","",FALSE,"CV","p",886,"cv","A",9,"v","v",TRUE,1,-0.466968164882453
"CVOE_B",1002,1,2,18,"O 64","","",TRUE,"CV","p",734,"cv","O",4,"v","v",TRUE,1,-0.54144656155564
"CVOE_B",1002,1,2,19,"D 02","","",FALSE,"CV","q",812,"cv","D",2,"c","c",TRUE,1,-0.503227384315452
"CVOE_B",1002,1,2,20,"P 81","","",TRUE,"CV","q",1079,"cv","P",1,"c","c",TRUE,1,-0.372400200685578
"CVOE_B",1002,1,2,21,"J 58","","",FALSE,"CV","q",1119,"cv","J",8,"c","c",TRUE,1,-0.352800622613687
"CVOE_B",1002,1,2,22,"A 22","","",TRUE,"CV","p",928,"cv","A",2,"v","v",TRUE,1,-0.446388607906967
"CVOE_B",1002,1,2,23,"J 72","","",FALSE,"CV","q",883,"cv","J",2,"c","c",TRUE,1,-0.468438133237845
"CVOE_B",1002,1,2,24,"P 91","","",TRUE,"CV","q",966,"cv","P",1,"c","c",TRUE,1,-0.427769008738671
"CVOE_B",1002,1,2,25,"E 19","","",FALSE,"CV","p",811,"cv","E",9,"v","v",TRUE,1,-0.503717373767249
"CVOE_B",1002,1,2,26,"I 30","","",TRUE,"CV","p",883,"cv","I",0,"v","v",TRUE,1,-0.468438133237845
"CVOE_B",1002,1,2,27,"D 91","","",TRUE,"CV","q",927,"cv","D",1,"c","c",TRUE,1,-0.446878597358765
"CVOE_B",1002,1,2,28,"O 48","","",TRUE,"CV","p",726,"cv","O",8,"v","v",TRUE,1,-0.545366477170018
"CVOE_B",1002,1,2,29,"A 89","","",FALSE,"CV","p",802,"cv","A",9,"v","v",TRUE,1,-0.508127278833425
"CVOE_B",1002,1,2,31,"I 76","","",TRUE,"CV","p",1857,"cv","I",6,"v","v",TRUE,1,0.00881159281270649
"CVOE_B",1002,1,2,32,"U 89","","",FALSE,"CV","p",1167,"cv","U",9,"v","v",TRUE,1,-0.329281128927417
"CVOE_B",1002,1,2,33,"D 63","","",TRUE,"CV","q",965,"cv","D",3,"c","c",TRUE,1,-0.428258998190468
"CVOE_B",1002,1,2,34,"H 70","","",FALSE,"CV","q",1982,"cv","H",0,"c","c",TRUE,1,0.0700602742873666
"CVOE_B",1002,1,2,35,"D 48","","",FALSE,"CV","q",1354,"cv","D",8,"c","c",TRUE,1,-0.237653101441326
"CVOE_B",1002,1,2,36,"P 56","","",FALSE,"CV","q",891,"cv","P",6,"c","c",TRUE,1,-0.464518217623467
"CVOE_B",1002,1,2,37,"O 77","","",FALSE,"CV","p",723,"cv","O",7,"v","v",TRUE,1,-0.54683644552541
"CVOE_B",1002,1,2,38,"P 42","","",FALSE,"CV","q",660,"cv","P",2,"c","c",TRUE,1,-0.577705780988639
"CVOE_B",1002,1,2,39,"H 22","","",FALSE,"CV","q",843,"cv","H",2,"c","c",TRUE,1,-0.488037711309736
"CVOE_B",1002,1,2,40,"E 42","","",TRUE,"CV","p",725,"cv","E",2,"v","v",TRUE,1,-0.545856466621815
"CVOE_B",1002,1,2,41,"J 28","","",FALSE,"CV","q",997,"cv","J",8,"c","c",TRUE,1,-0.412579335732955
"CVOE_B",1002,1,2,42,"E 95","","",FALSE,"CV","p",690,"cv","E",5,"v","v",TRUE,1,-0.56300609743472
"CVOE_B",1002,1,2,43,"S 63","","",TRUE,"CV","q",817,"cv","S",3,"c","c",TRUE,1,-0.500777437056465
"CVOE_B",1002,1,2,44,"H 50","","",FALSE,"CV","q",889,"cv","H",0,"c","c",TRUE,1,-0.465498196527061
"CVOE_B",1002,1,2,45,"S 33","","",TRUE,"CV","q",1285,"cv","S",3,"c","c",TRUE,1,-0.271462373615338
"CVOE_B",1002,1,2,46,"P 57","","",TRUE,"CV","q",1632,"cv","P",7,"c","c",TRUE,1,-0.101436033841682
"CVOE_B",1002,1,2,47,"E 23","","",FALSE,"CV","p",728,"cv","E",3,"v","v",TRUE,1,-0.544386498266423
"CVOE_B",1002,1,2,48,"S 61","","",TRUE,"CV","q",649,"cv","S",1,"c","c",TRUE,1,-0.583095664958409
"CVOE_B",1002,1,2,49,"U 67","","",FALSE,"CV","p",614,"cv","U",7,"v","v",TRUE,1,-0.600245295771313
"CVOE_B",1002,1,2,50,"H 32","","",FALSE,"CV","q",690,"cv","H",2,"c","c",TRUE,1,-0.56300609743472
"CVOE_B",1002,1,2,51,"U 50","","",TRUE,"CV","p",645,"cv","U",0,"v","v",TRUE,1,-0.585055622765598
"CVOE_B",1002,1,2,52,"O 49","","",FALSE,"CV","p",766,"cv","O",9,"v","v",TRUE,1,-0.525766899098127
"CVOE_B",1002,1,2,53,"U 32","","",TRUE,"CV","p",631,"cv","U",2,"v","v",TRUE,1,-0.59191547509076
"CVOE_B",1002,1,2,54,"J 78","","",FALSE,"CV","q",848,"cv","J",8,"c","c",TRUE,1,-0.48558776405075
"CVOE_B",1002,1,2,55,"S 54","","",FALSE,"CV","q",886,"cv","S",4,"c","c",TRUE,1,-0.466968164882453
"CVOE_B",1002,1,2,56,"J 27","","",TRUE,"CV","q",1400,"cv","J",7,"c","c",TRUE,1,-0.215113586658651
"CVOE_B",1002,1,2,57,"S 06","","",FALSE,"CV","q",651,"cv","S",6,"c","c",TRUE,1,-0.582115686054814
"CVOE_B",1002,1,2,58,"D 67","","",TRUE,"CV","q",736,"cv","D",7,"c","c",TRUE,1,-0.540466582652045
"CVOE_B",1002,1,2,59,"A 79","","",FALSE,"CV","p",735,"cv","A",9,"v","v",TRUE,1,-0.540956572103843
"CVOE_B",1002,1,2,60,"S 52","","",FALSE,"CV","q",812,"cv","S",2,"c","c",TRUE,1,-0.503227384315452
"CVOE_B",1002,1,2,61,"U 16","","",TRUE,"CV","p",649,"cv","U",6,"v","v",TRUE,1,-0.583095664958409
"CVOE_B",1002,1,2,62,"O 82","","",TRUE,"CV","p",614,"cv","O",2,"v","v",TRUE,1,-0.600245295771313
"CVOE_B",1002,1,2,63,"H 87","","",TRUE,"CV","q",730,"cv","H",7,"c","c",TRUE,1,-0.543406519362829
"CVOE_B",1002,1,2,64,"I 32","","",TRUE,"CV","p",807,"cv","I",2,"v","v",TRUE,1,-0.505677331574438
"CVOE_B",1002,1,2,65,"U 37","","",FALSE,"CV","p",762,"cv","U",7,"v","v",TRUE,1,-0.527726856905316
"CVOE_B",1002,1,2,66,"I 42","","",TRUE,"CV","p",766,"cv","I",2,"v","v",TRUE,1,-0.525766899098127
"CVOE_B",1002,1,2,67,"D 65","","",TRUE,"CV","q",693,"cv","D",5,"c","c",TRUE,1,-0.561536129079328
"CVOE_B",1002,1,2,68,"U 77","","",FALSE,"CV","p",646,"cv","U",7,"v","v",TRUE,1,-0.5845656333138
"CVOE_B",1002,1,2,69,"E 12","","",TRUE,"CV","p",611,"cv","E",2,"v","v",TRUE,1,-0.601715264126705
"CVOE_B",1002,1,2,70,"I 60","","",TRUE,"CV","p",727,"cv","I",0,"v","v",TRUE,1,-0.544876487718221
"CVOE_B",1002,1,2,71,"J 36","","",FALSE,"CV","q",687,"cv","J",6,"c","c",TRUE,1,-0.564476065790112
"CVOE_B",1002,1,2,72,"H 75","","",TRUE,"CV","q",814,"cv","H",5,"c","c",TRUE,1,-0.502247405411857
"CVOE_B",1002,1,2,73,"I 50","","",TRUE,"CV","p",769,"cv","I",0,"v","v",TRUE,1,-0.524296930742735
"CVOE_B",1002,1,2,74,"E 99","","",FALSE,"CV","p",734,"cv","E",9,"v","v",TRUE,1,-0.54144656155564
"CVOE_B",1002,1,2,75,"A 86","","",TRUE,"CV","p",772,"cv","A",6,"v","v",TRUE,1,-0.522826962387343
"CVOE_B",1002,1,2,76,"U 48","","",TRUE,"CV","p",737,"cv","U",8,"v","v",TRUE,1,-0.539976593200248
"CVOE_B",1002,1,2,77,"E 01","","",FALSE,"CV","p",737,"cv","E",1,"v","v",TRUE,1,-0.539976593200248
"CVOE_B",1002,1,2,78,"A 78","","",TRUE,"CV","p",870,"cv","A",8,"v","v",TRUE,1,-0.47480799611121
"CVOE_B",1002,1,2,79,"P 60","","",FALSE,"CV","q",1243,"cv","P",0,"c","c",TRUE,1,-0.292041930590824
"CVOE_B",1002,1,2,80,"E 43","","",FALSE,"CV","p",763,"cv","E",3,"v","v",TRUE,1,-0.527236867453519
"CVOE_B",1002,1,2,81,"D 69","","",TRUE,"CV","q",1003,"cv","D",9,"c","c",TRUE,1,-0.409639399022171
"CVOE_B",1002,1,2,82,"H 11","","",TRUE,"CV","q",1126,"cv","H",1,"c","c",TRUE,1,-0.349370696451106
"CVOE_B",1002,1,2,83,"P 43","","",TRUE,"CV","q",1075,"cv","P",3,"c","c",TRUE,1,-0.374360158492767
"CVOE_B",1002,1,2,84,"O 67","","",FALSE,"CV","p",645,"cv","O",7,"v","v",TRUE,1,-0.585055622765598
"CVOE_B",1002,1,2,85,"S 91","","",FALSE,"CV","q",649,"cv","S",1,"c","c",TRUE,1,-0.583095664958409
"CVOE_B",1002,1,2,86,"J 68","","",TRUE,"CV","q",693,"cv","J",8,"c","c",TRUE,1,-0.561536129079328
"CVOE_B",1002,1,2,87,"S 47","","",FALSE,"CV","q",724,"cv","S",7,"c","c",TRUE,1,-0.546346456073613
"CVOE_B",1002,1,2,88,"I 81","","",TRUE,"CV","p",762,"cv","I",1,"v","v",TRUE,1,-0.527726856905316
"CVOE_B",1002,1,2,89,"J 39","","",FALSE,"CV","q",649,"cv","J",9,"c","c",TRUE,1,-0.583095664958409
"CVOE_B",1002,1,2,90,"A 11","","",TRUE,"CV","p",656,"cv","A",1,"v","v",TRUE,1,-0.579665738795828
"CVOE_B",1002,1,2,91,"O 76","","",FALSE,"CV","p",560,"cv","O",6,"v","v",TRUE,1,-0.626704726168367
"CVOE_B",1002,1,2,92,"A 62","","",FALSE,"CV","p",608,"cv","A",2,"v","v",TRUE,1,-0.603185232482097
"CVOE_B",1002,1,2,93,"O 27","","",TRUE,"CV","p",920,"cv","O",7,"v","v",TRUE,1,-0.450308523521346
"CVOE_B",1002,1,2,94,"E 66","","",FALSE,"CV","p",657,"cv","E",6,"v","v",TRUE,1,-0.57917574934403
"CVOE_B",1002,1,2,95,"J 62","","",TRUE,"CV","q",762,"cv","J",2,"c","c",TRUE,1,-0.527726856905316
"CVOE_B",1002,1,2,96,"H 72","","",TRUE,"CV","q",610,"cv","H",2,"c","c",TRUE,1,-0.602205253578503
"CVOE_B",1002,1,2,97,"E 49","","",TRUE,"CV","p",726,"cv","E",9,"v","v",TRUE,1,-0.545366477170018
"CVOE_B",1002,1,2,98,"D 52","","",TRUE,"CV","q",607,"cv","D",2,"c","c",TRUE,1,-0.603675221933894
"CVOE_B",1002,1,2,99,"H 62","","",TRUE,"CV","q",722,"cv","H",2,"c","c",TRUE,1,-0.547326434977207
"CVOE_B",1002,1,2,100,"I 11","","",TRUE,"CV","p",738,"cv","I",1,"v","v",TRUE,1,-0.539486603748451
"CVOE_B",1002,1,2,101,"A 98","","",FALSE,"CV","p",620,"cv","A",8,"v","v",TRUE,1,-0.59730535906053
"CVOE_B",1002,1,2,102,"H 29","","",FALSE,"CV","q",697,"cv","H",9,"c","c",TRUE,1,-0.559576171272139
"CVOE_B",1002,1,2,103,"E 83","","",TRUE,"CV","p",689,"cv","E",3,"v","v",TRUE,1,-0.563496086886517
"CVOE_B",1002,1,2,104,"D 43","","",FALSE,"CV","q",817,"cv","D",3,"c","c",TRUE,1,-0.500777437056465
"CVOE_B",1002,1,2,105,"P 45","","",TRUE,"CV","q",654,"cv","P",5,"c","c",TRUE,1,-0.580645717699422
"CVOE_B",1002,1,2,106,"J 17","","",TRUE,"CV","q",699,"cv","J",7,"c","c",TRUE,1,-0.558596192368545
"CVOE_B",2002,1,2,11,"A 71","","",FALSE,"CV","p",5270,"cv","A",1,"v","v",TRUE,1,1.68114559179683
"CVOE_B",2002,1,2,12,"I 66","","",TRUE,"CV","p",1304,"cv","I",6,"v","v",TRUE,1,-0.26215257403119
"CVOE_B",2002,1,2,13,"S 30","","",FALSE,"CV","q",891,"cv","S",0,"c","c",TRUE,1,-0.464518217623467
"CVOE_B",2002,1,2,14,"D 20","","",FALSE,"CV","q",1271,"cv","D",0,"c","c",TRUE,1,-0.2783222259405
"CVOE_B",2002,1,2,15,"I 31","","",FALSE,"CV","p",618,"cv","I",1,"v","v",TRUE,1,-0.598285337964124
"CVOE_B",2002,1,2,16,"P 16","","",FALSE,"CV","q",655,"cv","P",6,"c","c",TRUE,1,-0.580155728247625
"CVOE_B",2002,1,2,17,"A 49","","",FALSE,"CV","p",738,"cv","A",9,"v","v",TRUE,1,-0.539486603748451
"CVOE_B",2002,1,2,18,"O 64","","",TRUE,"CV","p",698,"cv","O",4,"v","v",TRUE,1,-0.559086181820342
"CVOE_B",2002,1,2,19,"D 02","","",FALSE,"CV","q",809,"cv","D",2,"c","c",TRUE,1,-0.504697352670844
"CVOE_B",2002,1,2,23,"J 72","","",FALSE,"CV","q",2409,"cv","J",2,"c","c",TRUE,1,0.279285770204805
"CVOE_B",2002,1,2,24,"P 91","","",TRUE,"CV","q",1519,"cv","P",1,"c","c",TRUE,1,-0.156804841894774
"CVOE_B",2002,1,2,25,"E 19","","",FALSE,"CV","p",615,"cv","E",9,"v","v",TRUE,1,-0.599755306319516
"CVOE_B",2002,1,2,26,"I 30","","",TRUE,"CV","p",1827,"cv","I",0,"v","v",TRUE,1,-0.00588809074121193
"CVOE_B",2002,1,2,27,"D 91","","",TRUE,"CV","q",801,"cv","D",1,"c","c",TRUE,1,-0.508617268285222
"CVOE_B",2002,1,2,28,"O 48","","",TRUE,"CV","p",655,"cv","O",8,"v","v",TRUE,1,-0.580155728247625
"CVOE_B",2002,1,2,29,"A 89","","",FALSE,"CV","p",816,"cv","A",9,"v","v",TRUE,1,-0.501267426508263
"CVOE_B",2002,1,2,30,"U 11","","",FALSE,"CV","p",653,"cv","U",1,"v","v",TRUE,1,-0.581135707151219
"CVOE_B",2002,1,2,31,"I 76","","",TRUE,"CV","p",597,"cv","I",6,"v","v",TRUE,1,-0.608575116451867
"CVOE_B",2002,1,2,32,"U 89","","",FALSE,"CV","p",573,"cv","U",9,"v","v",TRUE,1,-0.620334863295002
"CVOE_B",2002,1,2,33,"D 63","","",TRUE,"CV","q",974,"cv","D",3,"c","c",TRUE,1,-0.423849093124292
"CVOE_B",2002,1,2,34,"H 70","","",FALSE,"CV","q",896,"cv","H",0,"c","c",TRUE,1,-0.46206827036448
"CVOE_B",2002,1,2,35,"D 48","","",FALSE,"CV","q",571,"cv","D",8,"c","c",TRUE,1,-0.621314842198596
"CVOE_B",2002,1,2,36,"P 56","","",FALSE,"CV","q",659,"cv","P",6,"c","c",TRUE,1,-0.578195770440436
"CVOE_B",2002,1,2,37,"O 77","","",FALSE,"CV","p",610,"cv","O",7,"v","v",TRUE,1,-0.602205253578503
"CVOE_B",2002,1,2,38,"P 42","","",FALSE,"CV","q",648,"cv","P",2,"c","c",TRUE,1,-0.583585654410206
"CVOE_B",2002,1,2,39,"H 22","","",FALSE,"CV","q",535,"cv","H",2,"c","c",TRUE,1,-0.638954462463299
"CVOE_B",2002,1,2,40,"E 42","","",TRUE,"CV","p",617,"cv","E",2,"v","v",TRUE,1,-0.598775327415922
"CVOE_B",2002,1,2,41,"J 28","","",FALSE,"CV","q",537,"cv","J",8,"c","c",TRUE,1,-0.637974483559704
"CVOE_B",2002,1,2,42,"E 95","","",FALSE,"CV","p",542,"cv","E",5,"v","v",TRUE,1,-0.635524536300718
"CVOE_B",2002,1,2,43,"S 63","","",TRUE,"CV","q",820,"cv","S",3,"c","c",TRUE,1,-0.499307468701074
"CVOE_B",2002,1,2,44,"H 50","","",FALSE,"CV","q",539,"cv","H",0,"c","c",TRUE,1,-0.63699450465611
"CVOE_B",2002,1,2,45,"S 33","","",TRUE,"CV","q",487,"cv","S",3,"c","c",TRUE,1,-0.662473956149568
"CVOE_B",2002,1,2,46,"P 57","","",TRUE,"CV","q",502,"cv","P",7,"c","c",TRUE,1,-0.655124114372609
"CVOE_B",2002,1,2,47,"E 23","","",FALSE,"CV","p",540,"cv","E",3,"v","v",TRUE,1,-0.636504515204312
"CVOE_B",2002,1,2,48,"S 61","","",TRUE,"CV","q",528,"cv","S",1,"c","c",TRUE,1,-0.64238438862588
"CVOE_B",2002,1,2,49,"U 67","","",FALSE,"CV","p",649,"cv","U",7,"v","v",TRUE,1,-0.583095664958409
"CVOE_B",2002,1,2,50,"H 32","","",FALSE,"CV","q",1045,"cv","H",2,"c","c",TRUE,1,-0.389059842046685
"CVOE_B",2002,1,2,51,"U 50","","",TRUE,"CV","p",570,"cv","U",0,"v","v",TRUE,1,-0.621804831650394
"CVOE_B",2002,1,2,52,"O 49","","",FALSE,"CV","p",596,"cv","O",9,"v","v",TRUE,1,-0.609065105903664
"CVOE_B",2002,1,2,53,"U 32","","",TRUE,"CV","p",573,"cv","U",2,"v","v",TRUE,1,-0.620334863295002
"CVOE_B",2002,1,2,54,"J 78","","",FALSE,"CV","q",700,"cv","J",8,"c","c",TRUE,1,-0.558106202916747
"CVOE_B",2002,1,2,55,"S 54","","",FALSE,"CV","q",615,"cv","S",4,"c","c",TRUE,1,-0.599755306319516
"CVOE_B",2002,1,2,56,"J 27","","",TRUE,"CV","q",614,"cv","J",7,"c","c",TRUE,1,-0.600245295771313
"CVOE_B",2002,1,2,57,"S 06","","",FALSE,"CV","q",769,"cv","S",6,"c","c",TRUE,1,-0.524296930742735
"CVOE_B",2002,1,2,58,"D 67","","",TRUE,"CV","q",1792,"cv","D",7,"c","c",TRUE,1,-0.0230377215541168
"CVOE_B",2002,1,2,59,"A 79","","",FALSE,"CV","p",464,"cv","A",9,"v","v",TRUE,1,-0.673743713540906
"CVOE_B",2002,1,2,60,"S 52","","",FALSE,"CV","q",847,"cv","S",2,"c","c",TRUE,1,-0.486077753502547
"CVOE_B",2002,1,2,61,"U 16","","",TRUE,"CV","p",456,"cv","U",6,"v","v",TRUE,1,-0.677663629155284
"CVOE_B",2002,1,2,62,"O 82","","",TRUE,"CV","p",661,"cv","O",2,"v","v",TRUE,1,-0.577215791536841
"CVOE_B",2002,1,2,63,"H 87","","",TRUE,"CV","q",1041,"cv","H",7,"c","c",TRUE,1,-0.391019799853875
"CVOE_B",2002,1,2,64,"I 32","","",TRUE,"CV","p",584,"cv","I",2,"v","v",TRUE,1,-0.614944979325232
"CVOE_B",2002,1,2,65,"U 37","","",FALSE,"CV","p",499,"cv","U",7,"v","v",TRUE,1,-0.656594082728001
"CVOE_B",2002,1,2,66,"I 42","","",TRUE,"CV","p",458,"cv","I",2,"v","v",TRUE,1,-0.676683650251689
"CVOE_B",2002,1,2,67,"D 65","","",TRUE,"CV","q",685,"cv","D",5,"c","c",TRUE,1,-0.565456044693706
"CVOE_B",2002,1,2,68,"U 77","","",FALSE,"CV","p",422,"cv","U",7,"v","v",TRUE,1,-0.694323270516391
"CVOE_B",2002,1,2,69,"E 12","","",TRUE,"CV","p",621,"cv","E",2,"v","v",TRUE,1,-0.596815369608732
"CVOE_B",2002,1,2,70,"I 60","","",TRUE,"CV","p",502,"cv","I",0,"v","v",TRUE,1,-0.655124114372609
"CVOE_B",2002,1,2,71,"J 36","","",FALSE,"CV","q",618,"cv","J",6,"c","c",TRUE,1,-0.598285337964124
"CVOE_B",2002,1,2,74,"E 99","","",FALSE,"CV","p",733,"cv","E",9,"v","v",TRUE,1,-0.541936551007437
"CVOE_B",2002,1,2,75,"A 86","","",TRUE,"CV","p",967,"cv","A",6,"v","v",TRUE,1,-0.427279019286873
"CVOE_B",2002,1,2,76,"U 48","","",TRUE,"CV","p",615,"cv","U",8,"v","v",TRUE,1,-0.599755306319516
"CVOE_B",2002,1,2,77,"E 01","","",FALSE,"CV","p",748,"cv","E",1,"v","v",TRUE,1,-0.534586709230478
"CVOE_B",2002,1,2,78,"A 78","","",TRUE,"CV","p",1200,"cv","A",8,"v","v",TRUE,1,-0.313111477018107
"CVOE_B",2002,1,2,79,"P 60","","",FALSE,"CV","q",731,"cv","P",0,"c","c",TRUE,1,-0.542916529911032
"CVOE_B",2002,1,2,80,"E 43","","",FALSE,"CV","p",574,"cv","E",3,"v","v",TRUE,1,-0.619844873843205
"CVOE_B",2002,1,2,81,"D 69","","",TRUE,"CV","q",645,"cv","D",9,"c","c",TRUE,1,-0.585055622765598
"CVOE_B",2002,1,2,82,"H 11","","",TRUE,"CV","q",571,"cv","H",1,"c","c",TRUE,1,-0.621314842198596
"CVOE_B",2002,1,2,83,"P 43","","",TRUE,"CV","q",581,"cv","P",3,"c","c",TRUE,1,-0.616414947680624
"CVOE_B",2002,1,2,84,"O 67","","",FALSE,"CV","p",652,"cv","O",7,"v","v",TRUE,1,-0.581625696603017
"CVOE_B",2002,1,2,85,"S 91","","",FALSE,"CV","q",735,"cv","S",1,"c","c",TRUE,1,-0.540956572103843
"CVOE_B",2002,1,2,86,"J 68","","",TRUE,"CV","q",852,"cv","J",8,"c","c",TRUE,1,-0.483627806243561
"CVOE_B",2002,1,2,87,"S 47","","",FALSE,"CV","q",538,"cv","S",7,"c","c",TRUE,1,-0.637484494107907
"CVOE_B",2002,1,2,88,"I 81","","",TRUE,"CV","p",581,"cv","I",1,"v","v",TRUE,1,-0.616414947680624
"CVOE_B",2002,1,2,89,"J 39","","",FALSE,"CV","q",614,"cv","J",9,"c","c",TRUE,1,-0.600245295771313
"CVOE_B",2002,1,2,90,"A 11","","",TRUE,"CV","p",612,"cv","A",1,"v","v",TRUE,1,-0.601225274674908
"CVOE_B",2002,1,2,91,"O 76","","",FALSE,"CV","p",1276,"cv","O",6,"v","v",TRUE,1,-0.275872278681514
"CVOE_B",2002,1,2,92,"A 62","","",FALSE,"CV","p",841,"cv","A",2,"v","v",TRUE,1,-0.489017690213331
"CVOE_B",2002,1,2,93,"O 27","","",TRUE,"CV","p",527,"cv","O",7,"v","v",TRUE,1,-0.642874378077677
"CVOE_B",2002,1,2,94,"E 66","","",FALSE,"CV","p",573,"cv","E",6,"v","v",TRUE,1,-0.620334863295002
"CVOE_B",2002,1,2,95,"J 62","","",TRUE,"CV","q",854,"cv","J",2,"c","c",TRUE,1,-0.482647827339966
"CVOE_B",2002,1,2,96,"H 72","","",TRUE,"CV","q",1206,"cv","H",2,"c","c",TRUE,1,-0.310171540307323
"CVOE_B",2002,1,2,97,"E 49","","",TRUE,"CV","p",1324,"cv","E",9,"v","v",TRUE,1,-0.252352784995244
"CVOE_B",2002,1,2,98,"D 52","","",TRUE,"CV","q",895,"cv","D",2,"c","c",TRUE,1,-0.462558259816278
"CVOE_B",2002,1,2,99,"H 62","","",TRUE,"CV","q",805,"cv","H",2,"c","c",TRUE,1,-0.506657310478033
"CVOE_B",2002,1,2,100,"I 11","","",TRUE,"CV","p",620,"cv","I",1,"v","v",TRUE,1,-0.59730535906053
"CVOE_B",2002,1,2,101,"A 98","","",FALSE,"CV","p",736,"cv","A",8,"v","v",TRUE,1,-0.540466582652045
"CVOE_B",2002,1,2,102,"H 29","","",FALSE,"CV","q",735,"cv","H",9,"c","c",TRUE,1,-0.540956572103843
"CVOE_B",2002,1,2,105,"P 45","","",TRUE,"CV","q",2646,"cv","P",5,"c","c",TRUE,1,0.395413270280761
"CVOE_B",2002,1,2,106,"J 17","","",TRUE,"CV","q",1315,"cv","J",7,"c","c",TRUE,1,-0.25676269006142
"CVOE_C",1003,1,2,12,"I 66","","",TRUE,"CV","p",3313,"cv","I",6,"v","v",TRUE,1,0.722236234629547
"CVOE_C",1003,1,2,13,"S 30","","",FALSE,"CV","q",1991,"cv","S",0,"c","c",TRUE,1,0.0744701793535421
"CVOE_C",1003,1,2,14,"D 20","","",FALSE,"CV","q",3828,"cv","D",0,"c","c",TRUE,1,0.974580802305147
"CVOE_C",1003,1,2,15,"I 31","","",FALSE,"CV","p",1479,"cv","I",1,"v","v",TRUE,1,-0.176404419966666
"CVOE_C",1003,1,2,16,"P 16","","",FALSE,"CV","q",1039,"cv","P",6,"c","c",TRUE,1,-0.391999778757469
"CVOE_C",1003,1,2,17,"A 49","","",FALSE,"CV","p",1795,"cv","A",9,"v","v",TRUE,1,-0.0215677531987249
"CVOE_C",1003,1,2,18,"O 64","","",TRUE,"CV","p",724,"cv","O",4,"v","v",TRUE,1,-0.546346456073613
"CVOE_C",1003,1,2,19,"D 02","","",FALSE,"CV","q",801,"cv","D",2,"c","c",TRUE,1,-0.508617268285222
"CVOE_C",1003,1,2,20,"P 81","","",TRUE,"CV","q",1086,"cv","P",1,"c","c",TRUE,1,-0.368970274522997
"CVOE_C",1003,1,2,21,"J 58","","",FALSE,"CV","q",813,"cv","J",8,"c","c",TRUE,1,-0.502737394863655
"CVOE_C",1003,1,2,22,"A 22","","",TRUE,"CV","p",650,"cv","A",2,"v","v",TRUE,1,-0.582605675506611
"CVOE_C",1003,1,2,23,"J 72","","",FALSE,"CV","q",1320,"cv","J",2,"c","c",TRUE,1,-0.254312742802433
"CVOE_C",1003,1,2,24,"P 91","","",TRUE,"CV","q",1087,"cv","P",1,"c","c",TRUE,1,-0.3684802850712
"CVOE_C",1003,1,2,25,"E 19","","",FALSE,"CV","p",657,"cv","E",9,"v","v",TRUE,1,-0.57917574934403
"CVOE_C",1003,1,2,26,"I 30","","",TRUE,"CV","p",857,"cv","I",0,"v","v",TRUE,1,-0.481177858984574
"CVOE_C",1003,1,2,27,"D 91","","",TRUE,"CV","q",857,"cv","D",1,"c","c",TRUE,1,-0.481177858984574
"CVOE_C",1003,1,2,28,"O 48","","",TRUE,"CV","p",856,"cv","O",8,"v","v",TRUE,1,-0.481667848436372
"CVOE_C",1003,1,2,29,"A 89","","",FALSE,"CV","p",2774,"cv","A",9,"v","v",TRUE,1,0.458131920110813
"CVOE_C",1003,1,2,30,"U 11","","",FALSE,"CV","p",969,"cv","U",1,"v","v",TRUE,1,-0.426299040383279
"CVOE_C",1003,1,2,31,"I 76","","",TRUE,"CV","p",1243,"cv","I",6,"v","v",TRUE,1,-0.292041930590824
"CVOE_C",1003,1,2,32,"U 89","","",FALSE,"CV","p",1076,"cv","U",9,"v","v",TRUE,1,-0.37387016904097
"CVOE_C",1003,1,2,33,"D 63","","",TRUE,"CV","q",959,"cv","D",3,"c","c",TRUE,1,-0.431198934901252
"CVOE_C",1003,1,2,34,"H 70","","",FALSE,"CV","q",685,"cv","H",0,"c","c",TRUE,1,-0.565456044693706
"CVOE_C",1003,1,2,35,"D 48","","",FALSE,"CV","q",618,"cv","D",8,"c","c",TRUE,1,-0.598285337964124
"CVOE_C",1003,1,2,36,"P 56","","",FALSE,"CV","q",930,"cv","P",6,"c","c",TRUE,1,-0.445408629003373
"CVOE_C",1003,1,2,37,"O 77","","",FALSE,"CV","p",1003,"cv","O",7,"v","v",TRUE,1,-0.409639399022171
"CVOE_C",1003,1,2,38,"P 42","","",FALSE,"CV","q",1634,"cv","P",2,"c","c",TRUE,1,-0.100456054938087
"CVOE_C",1003,1,2,39,"H 22","","",FALSE,"CV","q",813,"cv","H",2,"c","c",TRUE,1,-0.502737394863655
"CVOE_C",1003,1,2,40,"E 42","","",TRUE,"CV","p",766,"cv","E",2,"v","v",TRUE,1,-0.525766899098127
"CVOE_C",1003,1,2,41,"J 28","","",FALSE,"CV","q",849,"cv","J",8,"c","c",TRUE,1,-0.485097774598952
"CVOE_C",1003,1,2,42,"E 95","","",FALSE,"CV","p",653,"cv","E",5,"v","v",TRUE,1,-0.581135707151219
"CVOE_C",1003,1,2,43,"S 63","","",TRUE,"CV","q",932,"cv","S",3,"c","c",TRUE,1,-0.444428650099778
"CVOE_C",1003,1,2,44,"H 50","","",FALSE,"CV","q",653,"cv","H",0,"c","c",TRUE,1,-0.581135707151219
"CVOE_C",1003,1,2,45,"S 33","","",TRUE,"CV","q",501,"cv","S",3,"c","c",TRUE,1,-0.655614103824406
"CVOE_C",1003,1,2,46,"P 57","","",TRUE,"CV","q",577,"cv","P",7,"c","c",TRUE,1,-0.618374905487813
"CVOE_C",1003,1,2,47,"E 23","","",FALSE,"CV","p",688,"cv","E",3,"v","v",TRUE,1,-0.563986076338315
"CVOE_C",1003,1,2,48,"S 61","","",TRUE,"CV","q",581,"cv","S",1,"c","c",TRUE,1,-0.616414947680624
"CVOE_C",1003,1,2,49,"U 67","","",FALSE,"CV","p",848,"cv","U",7,"v","v",TRUE,1,-0.48558776405075
"CVOE_C",1003,1,2,50,"H 32","","",FALSE,"CV","q",772,"cv","H",2,"c","c",TRUE,1,-0.522826962387343
"CVOE_C",1003,1,2,51,"U 50","","",TRUE,"CV","p",699,"cv","U",0,"v","v",TRUE,1,-0.558596192368545
"CVOE_C",1003,1,2,52,"O 49","","",FALSE,"CV","p",770,"cv","O",9,"v","v",TRUE,1,-0.523806941290938
"CVOE_C",1003,1,2,53,"U 32","","",TRUE,"CV","p",853,"cv","U",2,"v","v",TRUE,1,-0.483137816791763
"CVOE_C",1003,1,2,54,"J 78","","",FALSE,"CV","q",735,"cv","J",8,"c","c",TRUE,1,-0.540956572103843
"CVOE_C",1003,1,2,55,"S 54","","",FALSE,"CV","q",1949,"cv","S",4,"c","c",TRUE,1,0.0538906223780563
"CVOE_C",1003,1,2,56,"J 27","","",TRUE,"CV","q",688,"cv","J",7,"c","c",TRUE,1,-0.563986076338315
"CVOE_C",1003,1,2,57,"S 06","","",FALSE,"CV","q",662,"cv","S",6,"c","c",TRUE,1,-0.576725802085044
"CVOE_C",1003,1,2,58,"D 67","","",TRUE,"CV","q",963,"cv","D",7,"c","c",TRUE,1,-0.429238977094062
"CVOE_C",1003,1,2,59,"A 79","","",FALSE,"CV","p",610,"cv","A",9,"v","v",TRUE,1,-0.602205253578503
"CVOE_C",1003,1,2,60,"S 52","","",FALSE,"CV","q",648,"cv","S",2,"c","c",TRUE,1,-0.583585654410206
"CVOE_C",1003,1,2,61,"U 16","","",TRUE,"CV","p",731,"cv","U",6,"v","v",TRUE,1,-0.542916529911032
"CVOE_C",1003,1,2,62,"O 82","","",TRUE,"CV","p",730,"cv","O",2,"v","v",TRUE,1,-0.543406519362829
"CVOE_C",1003,1,2,63,"H 87","","",TRUE,"CV","q",809,"cv","H",7,"c","c",TRUE,1,-0.504697352670844
"CVOE_C",1003,1,2,65,"U 37","","",FALSE,"CV","p",920,"cv","U",7,"v","v",TRUE,1,-0.450308523521346
"CVOE_C",1003,1,2,66,"I 42","","",TRUE,"CV","p",736,"cv","I",2,"v","v",TRUE,1,-0.540466582652045
"CVOE_C",1003,1,2,67,"D 65","","",TRUE,"CV","q",1323,"cv","D",5,"c","c",TRUE,1,-0.252842774447041
"CVOE_C",1003,1,2,68,"U 77","","",FALSE,"CV","p",1167,"cv","U",7,"v","v",TRUE,1,-0.329281128927417
"CVOE_C",1003,1,2,69,"E 12","","",TRUE,"CV","p",811,"cv","E",2,"v","v",TRUE,1,-0.503717373767249
"CVOE_C",1003,1,2,70,"I 60","","",TRUE,"CV","p",687,"cv","I",0,"v","v",TRUE,1,-0.564476065790112
"CVOE_C",1003,1,2,71,"J 36","","",FALSE,"CV","q",698,"cv","J",6,"c","c",TRUE,1,-0.559086181820342
"CVOE_C",1003,1,2,72,"H 75","","",TRUE,"CV","q",1121,"cv","H",5,"c","c",TRUE,1,-0.351820643710092
"CVOE_C",1003,1,2,73,"I 50","","",TRUE,"CV","p",619,"cv","I",0,"v","v",TRUE,1,-0.597795348512327
"CVOE_C",1003,1,2,74,"E 99","","",FALSE,"CV","p",635,"cv","E",9,"v","v",TRUE,1,-0.589955517283571
"CVOE_C",1003,1,2,76,"U 48","","",TRUE,"CV","p",1832,"cv","U",8,"v","v",TRUE,1,-0.00343814348222553
"CVOE_C",1003,1,2,77,"E 01","","",FALSE,"CV","p",902,"cv","E",1,"v","v",TRUE,1,-0.459128333653697
"CVOE_C",1003,1,2,78,"A 78","","",TRUE,"CV","p",2026,"cv","A",8,"v","v",TRUE,1,0.0916198101664469
"CVOE_C",1003,1,2,79,"P 60","","",FALSE,"CV","q",1247,"cv","P",0,"c","c",TRUE,1,-0.290081972783635
"CVOE_C",1003,1,2,80,"E 43","","",FALSE,"CV","p",1511,"cv","E",3,"v","v",TRUE,1,-0.160724757509153
"CVOE_C",1003,1,2,81,"D 69","","",TRUE,"CV","q",959,"cv","D",9,"c","c",TRUE,1,-0.431198934901252
"CVOE_C",1003,1,2,82,"H 11","","",TRUE,"CV","q",686,"cv","H",1,"c","c",TRUE,1,-0.564966055241909
"CVOE_C",1003,1,2,83,"P 43","","",TRUE,"CV","q",1126,"cv","P",3,"c","c",TRUE,1,-0.349370696451106
"CVOE_C",1003,1,2,84,"O 67","","",FALSE,"CV","p",646,"cv","O",7,"v","v",TRUE,1,-0.5845656333138
"CVOE_C",1003,1,2,85,"S 91","","",FALSE,"CV","q",729,"cv","S",1,"c","c",TRUE,1,-0.543896508814626
"CVOE_C",1003,1,2,86,"J 68","","",TRUE,"CV","q",1394,"cv","J",8,"c","c",TRUE,1,-0.218053523369434
"CVOE_C",1003,1,2,87,"S 47","","",FALSE,"CV","q",646,"cv","S",7,"c","c",TRUE,1,-0.5845656333138
"CVOE_C",1003,1,2,89,"J 39","","",FALSE,"CV","q",970,"cv","J",9,"c","c",TRUE,1,-0.425809050931482
"CVOE_C",1003,1,2,90,"A 11","","",TRUE,"CV","p",891,"cv","A",1,"v","v",TRUE,1,-0.464518217623467
"CVOE_C",1003,1,2,91,"O 76","","",FALSE,"CV","p",584,"cv","O",6,"v","v",TRUE,1,-0.614944979325232
"CVOE_C",1003,1,2,92,"A 62","","",FALSE,"CV","p",1439,"cv","A",2,"v","v",TRUE,1,-0.196003998038557
"CVOE_C",1003,1,2,93,"O 27","","",TRUE,"CV","p",579,"cv","O",7,"v","v",TRUE,1,-0.617394926584218
"CVOE_C",1003,1,2,94,"E 66","","",FALSE,"CV","p",612,"cv","E",6,"v","v",TRUE,1,-0.601225274674908
"CVOE_C",1003,1,2,95,"J 62","","",TRUE,"CV","q",611,"cv","J",2,"c","c",TRUE,1,-0.601715264126705
"CVOE_C",1003,1,2,96,"H 72","","",TRUE,"CV","q",844,"cv","H",2,"c","c",TRUE,1,-0.487547721857939
"CVOE_C",1003,1,2,97,"E 49","","",TRUE,"CV","p",649,"cv","E",9,"v","v",TRUE,1,-0.583095664958409
"CVOE_C",1003,1,2,98,"D 52","","",TRUE,"CV","q",731,"cv","D",2,"c","c",TRUE,1,-0.542916529911032
"CVOE_C",1003,1,2,99,"H 62","","",TRUE,"CV","q",1712,"cv","H",2,"c","c",TRUE,1,-0.0622368776978992
"CVOE_C",1003,1,2,100,"I 11","","",TRUE,"CV","p",568,"cv","I",1,"v","v",TRUE,1,-0.622784810553988
"CVOE_C",1003,1,2,102,"H 29","","",FALSE,"CV","q",1986,"cv","H",9,"c","c",TRUE,1,0.0720202320945557
"CVOE_C",1003,1,2,103,"E 83","","",TRUE,"CV","p",1006,"cv","E",3,"v","v",TRUE,1,-0.408169430666779
"CVOE_C",1003,1,2,104,"D 43","","",FALSE,"CV","q",620,"cv","D",3,"c","c",TRUE,1,-0.59730535906053
"CVOE_C",1003,1,2,105,"P 45","","",TRUE,"CV","q",1207,"cv","P",5,"c","c",TRUE,1,-0.309681550855526
"CVOE_C",1003,1,2,106,"J 17","","",TRUE,"CV","q",816,"cv","J",7,"c","c",TRUE,1,-0.501267426508263
"CVOE updated",1009,1,1,11,"A 71","","",FALSE,"CV","p",5184,"cv","A",1,"v","v",TRUE,1,1.63900649894226
"CVOE updated",1009,1,1,12,"I 66","","",TRUE,"CV","p",1673,"cv","I",6,"v","v",TRUE,1,-0.0813464663179932
"CVOE updated",1009,1,1,13,"S 30","","",FALSE,"CV","q",1752,"cv","S",0,"c","c",TRUE,1,-0.042637299626008
"CVOE updated",1009,1,1,14,"D 20","","",FALSE,"CV","q",3618,"cv","D",0,"c","c",TRUE,1,0.871683017427718
"CVOE updated",1009,1,1,15,"I 31","","",FALSE,"CV","p",2675,"cv","I",1,"v","v",TRUE,1,0.409622964382882
"CVOE updated",1009,1,1,16,"P 16","","",FALSE,"CV","q",1694,"cv","P",6,"c","c",TRUE,1,-0.0710566878302503
"CVOE updated",1009,1,1,17,"A 49","","",FALSE,"CV","p",2006,"cv","A",9,"v","v",TRUE,1,0.0818200211305013
"CVOE updated",1009,1,1,18,"O 64","","",TRUE,"CV","p",1859,"cv","O",4,"v","v",TRUE,1,0.00979157171630105
"CVOE updated",1009,1,1,19,"D 02","","",FALSE,"CV","q",2697,"cv","D",2,"c","c",TRUE,1,0.420402732322422
"CVOE updated",1009,1,1,20,"P 81","","",TRUE,"CV","q",2068,"cv","P",1,"c","c",TRUE,1,0.112199367141933
"CVOE updated",1009,1,1,21,"J 58","","",FALSE,"CV","q",2107,"cv","J",8,"c","c",TRUE,1,0.131308955762027
"CVOE updated",1009,1,1,22,"A 22","","",TRUE,"CV","p",2681,"cv","A",2,"v","v",TRUE,1,0.412562901093666
"CVOE updated",1009,1,1,23,"J 72","","",FALSE,"CV","q",1745,"cv","J",2,"c","c",TRUE,1,-0.046067225788589
"CVOE updated",1009,1,1,24,"P 91","","",TRUE,"CV","q",1807,"cv","P",1,"c","c",TRUE,1,-0.0156878797771575
"CVOE updated",1009,1,1,25,"E 19","","",FALSE,"CV","p",2815,"cv","E",9,"v","v",TRUE,1,0.478221487634501
"CVOE updated",1009,1,1,26,"I 30","","",TRUE,"CV","p",1552,"cv","I",0,"v","v",TRUE,1,-0.140635189985464
"CVOE updated",1009,1,1,27,"D 91","","",TRUE,"CV","q",1721,"cv","D",1,"c","c",TRUE,1,-0.0578269726317237
"CVOE updated",1009,1,1,28,"O 48","","",TRUE,"CV","p",3037,"cv","O",8,"v","v",TRUE,1,0.586999145933498
"CVOE updated",1009,1,1,29,"A 89","","",FALSE,"CV","p",1471,"cv","A",9,"v","v",TRUE,1,-0.180324335581044
"CVOE updated",1009,1,1,30,"U 11","","",FALSE,"CV","p",1771,"cv","U",1,"v","v",TRUE,1,-0.0333275000418597
"CVOE updated",1009,1,1,31,"I 76","","",TRUE,"CV","p",1617,"cv","I",6,"v","v",TRUE,1,-0.108785875618641
"CVOE updated",1009,1,1,32,"U 89","","",FALSE,"CV","p",1681,"cv","U",9,"v","v",TRUE,1,-0.0774265507036149
"CVOE updated",1009,1,1,33,"D 63","","",TRUE,"CV","q",1772,"cv","D",3,"c","c",TRUE,1,-0.0328375105900624
"CVOE updated",1009,1,1,34,"H 70","","",FALSE,"CV","q",1838,"cv","H",0,"c","c",TRUE,1,-0.000498206771441847
"CVOE updated",1009,1,1,35,"D 48","","",FALSE,"CV","q",1785,"cv","D",8,"c","c",TRUE,1,-0.0264676477166977
"CVOE updated",1009,1,1,36,"P 56","","",FALSE,"CV","q",1748,"cv","P",6,"c","c",TRUE,1,-0.0445972574331971
"CVOE updated",1009,1,1,37,"O 77","","",FALSE,"CV","p",1928,"cv","O",7,"v","v",TRUE,1,0.0436008438903134
"CVOE updated",1009,1,1,38,"P 42","","",FALSE,"CV","q",1691,"cv","P",2,"c","c",TRUE,1,-0.0725266561856421
"CVOE updated",1009,1,1,39,"H 22","","",FALSE,"CV","q",1403,"cv","H",2,"c","c",TRUE,1,-0.213643618303259
"CVOE updated",1009,1,1,40,"E 42","","",TRUE,"CV","p",1928,"cv","E",2,"v","v",TRUE,1,0.0436008438903134
"CVOE updated",1009,1,1,41,"J 28","","",FALSE,"CV","q",1553,"cv","J",8,"c","c",TRUE,1,-0.140145200533667
"CVOE updated",1009,1,1,42,"E 95","","",FALSE,"CV","p",1905,"cv","E",5,"v","v",TRUE,1,0.032331086498976
"CVOE updated",1009,1,1,43,"S 63","","",TRUE,"CV","q",2372,"cv","S",3,"c","c",TRUE,1,0.261156160488306
"CVOE updated",1009,1,1,44,"H 50","","",FALSE,"CV","q",1785,"cv","H",0,"c","c",TRUE,1,-0.0264676477166977
"CVOE updated",1009,1,1,45,"S 33","","",TRUE,"CV","q",1769,"cv","S",3,"c","c",TRUE,1,-0.0343074789454542
"CVOE updated",1009,1,1,46,"P 57","","",TRUE,"CV","q",1669,"cv","P",7,"c","c",TRUE,1,-0.0833064241251823
"CVOE updated",1009,1,1,47,"E 23","","",FALSE,"CV","p",2986,"cv","E",3,"v","v",TRUE,1,0.562009683891836
"CVOE updated",1009,1,1,48,"S 61","","",TRUE,"CV","q",1508,"cv","S",1,"c","c",TRUE,1,-0.162194725864544
"CVOE updated",1009,1,1,49,"U 67","","",FALSE,"CV","p",2028,"cv","U",7,"v","v",TRUE,1,0.0925997890700415
"CVOE updated",1009,1,1,50,"H 32","","",FALSE,"CV","q",1544,"cv","H",2,"c","c",TRUE,1,-0.144555105599842
"CVOE updated",1009,1,1,51,"U 50","","",TRUE,"CV","p",2143,"cv","U",0,"v","v",TRUE,1,0.148948576026729
"CVOE updated",1009,1,1,52,"O 49","","",FALSE,"CV","p",1643,"cv","O",9,"v","v",TRUE,1,-0.0960461498719116
"CVOE updated",1009,1,1,53,"U 32","","",TRUE,"CV","p",1303,"cv","U",2,"v","v",TRUE,1,-0.262642563482987
"CVOE updated",1009,1,1,54,"J 78","","",FALSE,"CV","q",1521,"cv","J",8,"c","c",TRUE,1,-0.15582486299118
"CVOE updated",1009,1,1,55,"S 54","","",FALSE,"CV","q",1678,"cv","S",4,"c","c",TRUE,1,-0.0788965190590068
"CVOE updated",1009,1,1,56,"J 27","","",TRUE,"CV","q",1401,"cv","J",7,"c","c",TRUE,1,-0.214623597206854
"CVOE updated",1009,1,1,57,"S 06","","",FALSE,"CV","q",1630,"cv","S",6,"c","c",TRUE,1,-0.102416012745276
"CVOE updated",1009,1,1,58,"D 67","","",TRUE,"CV","q",1794,"cv","D",7,"c","c",TRUE,1,-0.0220577426505222
"CVOE updated",1009,1,1,59,"A 79","","",FALSE,"CV","p",2322,"cv","A",9,"v","v",TRUE,1,0.236656687898442
"CVOE updated",1009,1,1,60,"S 52","","",FALSE,"CV","q",3120,"cv","S",2,"c","c",TRUE,1,0.627668270432672
"CVOE updated",1009,1,1,61,"U 16","","",TRUE,"CV","p",2412,"cv","U",6,"v","v",TRUE,1,0.280755738560197
"CVOE updated",1009,1,1,62,"O 82","","",TRUE,"CV","p",1818,"cv","O",2,"v","v",TRUE,1,-0.0102979958073875
"CVOE updated",1009,1,1,63,"H 87","","",TRUE,"CV","q",1485,"cv","H",7,"c","c",TRUE,1,-0.173464483255882
"CVOE updated",1009,1,1,64,"I 32","","",TRUE,"CV","p",1682,"cv","I",2,"v","v",TRUE,1,-0.0769365612518176
"CVOE updated",1009,1,1,65,"U 37","","",FALSE,"CV","p",1235,"cv","U",7,"v","v",TRUE,1,-0.295961846205202
"CVOE updated",1009,1,1,66,"I 42","","",TRUE,"CV","p",1245,"cv","I",2,"v","v",TRUE,1,-0.291061951687229
"CVOE updated",1009,1,1,67,"D 65","","",TRUE,"CV","q",1536,"cv","D",5,"c","c",TRUE,1,-0.148475021214221
"CVOE updated",1009,1,1,68,"U 77","","",FALSE,"CV","p",1839,"cv","U",7,"v","v",TRUE,1,-0.00000821731964456581
"CVOE updated",1009,1,1,69,"E 12","","",TRUE,"CV","p",981,"cv","E",2,"v","v",TRUE,1,-0.420419166961711
"CVOE updated",1009,1,1,70,"I 60","","",TRUE,"CV","p",1152,"cv","I",0,"v","v",TRUE,1,-0.336630970704376
"CVOE updated",1009,1,1,71,"J 36","","",FALSE,"CV","q",1496,"cv","J",6,"c","c",TRUE,1,-0.168074599286112
"CVOE updated",1009,1,1,72,"H 75","","",TRUE,"CV","q",1657,"cv","H",5,"c","c",TRUE,1,-0.0891862975467497
"CVOE updated",1009,1,1,73,"I 50","","",TRUE,"CV","p",1517,"cv","I",0,"v","v",TRUE,1,-0.157784820798369
"CVOE updated",1009,1,1,74,"E 99","","",FALSE,"CV","p",1154,"cv","E",9,"v","v",TRUE,1,-0.335650991800782
"CVOE updated",1009,1,1,75,"A 86","","",TRUE,"CV","p",1045,"cv","A",6,"v","v",TRUE,1,-0.389059842046685
"CVOE updated",1009,1,1,76,"U 48","","",TRUE,"CV","p",1069,"cv","U",8,"v","v",TRUE,1,-0.377300095203551
"CVOE updated",1009,1,1,77,"E 01","","",FALSE,"CV","p",1204,"cv","E",1,"v","v",TRUE,1,-0.311151519210918
"CVOE updated",1009,1,1,78,"A 78","","",TRUE,"CV","p",1239,"cv","A",8,"v","v",TRUE,1,-0.294001888398013
"CVOE updated",1009,1,1,79,"P 60","","",FALSE,"CV","q",1616,"cv","P",0,"c","c",TRUE,1,-0.109275865070438
"CVOE updated",1009,1,1,80,"E 43","","",FALSE,"CV","p",2533,"cv","E",3,"v","v",TRUE,1,0.340044462227668
"CVOE updated",1009,1,1,81,"D 69","","",TRUE,"CV","q",1498,"cv","D",9,"c","c",TRUE,1,-0.167094620382517
"CVOE updated",1009,1,1,82,"H 11","","",TRUE,"CV","q",1287,"cv","H",1,"c","c",TRUE,1,-0.270482394711744
"CVOE updated",1009,1,1,83,"P 43","","",TRUE,"CV","q",1154,"cv","P",3,"c","c",TRUE,1,-0.335650991800782
"CVOE updated",1009,1,1,84,"O 67","","",FALSE,"CV","p",1994,"cv","O",7,"v","v",TRUE,1,0.0759401477089339
"CVOE updated",1009,1,1,85,"S 91","","",FALSE,"CV","q",1569,"cv","S",1,"c","c",TRUE,1,-0.13230536930491
"CVOE updated",1009,1,1,86,"J 68","","",TRUE,"CV","q",1500,"cv","J",8,"c","c",TRUE,1,-0.166114641478923
"CVOE updated",1009,1,1,87,"S 47","","",FALSE,"CV","q",1616,"cv","S",7,"c","c",TRUE,1,-0.109275865070438
"CVOE updated",1009,1,1,88,"I 81","","",TRUE,"CV","p",1863,"cv","I",1,"v","v",TRUE,1,0.0117515295234902
"CVOE updated",1009,1,1,89,"J 39","","",FALSE,"CV","q",1793,"cv","J",9,"c","c",TRUE,1,-0.0225477321023195
"CVOE updated",1009,1,1,90,"A 11","","",TRUE,"CV","p",1906,"cv","A",1,"v","v",TRUE,1,0.0328210759507732
"CVOE updated",1009,1,1,91,"O 76","","",FALSE,"CV","p",1399,"cv","O",6,"v","v",TRUE,1,-0.215603576110448
"CVOE updated",1009,1,1,92,"A 62","","",FALSE,"CV","p",1398,"cv","A",2,"v","v",TRUE,1,-0.216093565562245
"CVOE updated",1009,1,1,93,"O 27","","",TRUE,"CV","p",1319,"cv","O",7,"v","v",TRUE,1,-0.254802732254231
"CVOE updated",1009,1,1,94,"E 66","","",FALSE,"CV","p",1192,"cv","E",6,"v","v",TRUE,1,-0.317031392632485
"CVOE updated",1009,1,1,95,"J 62","","",TRUE,"CV","q",1511,"cv","J",2,"c","c",TRUE,1,-0.160724757509153
"CVOE updated",1009,1,1,96,"H 72","","",TRUE,"CV","q",1245,"cv","H",2,"c","c",TRUE,1,-0.291061951687229
"CVOE updated",1009,1,1,97,"E 49","","",TRUE,"CV","p",1944,"cv","E",9,"v","v",TRUE,1,0.0514406751190699
"CVOE updated",1009,1,1,98,"D 52","","",TRUE,"CV","q",1773,"cv","D",2,"c","c",TRUE,1,-0.0323475211382651
"CVOE updated",1009,1,1,99,"H 62","","",TRUE,"CV","q",1286,"cv","H",2,"c","c",TRUE,1,-0.270972384163541
"CVOE updated",1009,1,1,100,"I 11","","",TRUE,"CV","p",1689,"cv","I",1,"v","v",TRUE,1,-0.0735066350892367
"CVOE updated",1009,1,1,101,"A 98","","",FALSE,"CV","p",1092,"cv","A",8,"v","v",TRUE,1,-0.366030337812213
"CVOE updated",1009,1,1,102,"H 29","","",FALSE,"CV","q",1536,"cv","H",9,"c","c",TRUE,1,-0.148475021214221
"CVOE updated",1009,1,1,103,"E 83","","",TRUE,"CV","p",1475,"cv","E",3,"v","v",TRUE,1,-0.178364377773855
"CVOE updated",1009,1,1,104,"D 43","","",FALSE,"CV","q",1447,"cv","D",3,"c","c",TRUE,1,-0.192084082424179
"CVOE updated",1009,1,1,105,"P 45","","",TRUE,"CV","q",1377,"cv","P",5,"c","c",TRUE,1,-0.226383344049988
"CVOE updated",1009,1,1,106,"J 17","","",TRUE,"CV","q",1174,"cv","J",7,"c","c",TRUE,1,-0.325851202764836
"CVOE updated",1013,1,1,32,"U 89","","",FALSE,"CV","p",778,"cv","U",9,"v","v",TRUE,1,-0.519887025676559
"CVOE updated",1013,1,1,84,"O 67","","",FALSE,"CV","p",556,"cv","O",7,"v","v",TRUE,1,-0.628664683975556
"CVOE updated",2005,1,1,52,"O 49","","",FALSE,"CV","p",1430,"cv","O",9,"v","v",TRUE,1,-0.200413903104732
"CVOE updated",2009,1,1,11,"A 71","","",FALSE,"CV","p",7907,"cv","A",1,"v","v",TRUE,1,2.97324777618625
"CVOE updated",2009,1,1,12,"I 66","","",TRUE,"CV","p",2383,"cv","I",6,"v","v",TRUE,1,0.266546044458076
"CVOE updated",2009,1,1,13,"S 30","","",FALSE,"CV","q",1711,"cv","S",0,"c","c",TRUE,1,-0.0627268671496965
"CVOE updated",2009,1,1,14,"D 20","","",FALSE,"CV","q",1867,"cv","D",0,"c","c",TRUE,1,0.0137114873306793
"CVOE updated",2009,1,1,15,"I 31","","",FALSE,"CV","p",1086,"cv","I",1,"v","v",TRUE,1,-0.368970274522997
"CVOE updated",2009,1,1,16,"P 16","","",FALSE,"CV","q",1951,"cv","P",6,"c","c",TRUE,1,0.0548706012816509
"CVOE updated",2009,1,1,17,"A 49","","",FALSE,"CV","p",1206,"cv","A",9,"v","v",TRUE,1,-0.310171540307323
"CVOE updated",2009,1,1,18,"O 64","","",TRUE,"CV","p",2015,"cv","O",4,"v","v",TRUE,1,0.0862299261966768
"CVOE updated",2009,1,1,19,"D 02","","",FALSE,"CV","q",1610,"cv","D",2,"c","c",TRUE,1,-0.112215801781222
"CVOE updated",2009,1,1,20,"P 81","","",TRUE,"CV","q",1724,"cv","P",1,"c","c",TRUE,1,-0.0563570042763318
"CVOE updated",2009,1,1,21,"J 58","","",FALSE,"CV","q",1314,"cv","J",8,"c","c",TRUE,1,-0.257252679513217
"CVOE updated",2009,1,1,22,"A 22","","",TRUE,"CV","p",1016,"cv","A",2,"v","v",TRUE,1,-0.403269536148807
"CVOE updated",2009,1,1,23,"J 72","","",FALSE,"CV","q",1259,"cv","J",2,"c","c",TRUE,1,-0.284202099362067
"CVOE updated",2009,1,1,25,"E 19","","",FALSE,"CV","p",1676,"cv","E",9,"v","v",TRUE,1,-0.0798764979626013
"CVOE updated",2009,1,1,26,"I 30","","",TRUE,"CV","p",3608,"cv","I",0,"v","v",TRUE,1,0.866783122909745
"CVOE updated",2009,1,1,27,"D 91","","",TRUE,"CV","q",1157,"cv","D",1,"c","c",TRUE,1,-0.33418102344539
"CVOE updated",2009,1,1,28,"O 48","","",TRUE,"CV","p",1850,"cv","O",8,"v","v",TRUE,1,0.00538166665012552
"CVOE updated",2009,1,1,29,"A 89","","",FALSE,"CV","p",1347,"cv","A",9,"v","v",TRUE,1,-0.241083027603907
"CVOE updated",2009,1,1,30,"U 11","","",FALSE,"CV","p",1107,"cv","U",1,"v","v",TRUE,1,-0.358680496035254
"CVOE updated",2009,1,1,31,"I 76","","",TRUE,"CV","p",1305,"cv","I",6,"v","v",TRUE,1,-0.261662584579392
"CVOE updated",2009,1,1,32,"U 89","","",FALSE,"CV","p",1382,"cv","U",9,"v","v",TRUE,1,-0.223933396791002
"CVOE updated",2009,1,1,33,"D 63","","",TRUE,"CV","q",1079,"cv","D",3,"c","c",TRUE,1,-0.372400200685578
"CVOE updated",2009,1,1,38,"P 42","","",FALSE,"CV","q",1956,"cv","P",2,"c","c",TRUE,1,0.0573205485406373
"CVOE updated",2009,1,1,39,"H 22","","",FALSE,"CV","q",1916,"cv","H",2,"c","c",TRUE,1,0.037720970468746
"CVOE updated",2009,1,1,40,"E 42","","",TRUE,"CV","p",950,"cv","E",2,"v","v",TRUE,1,-0.435608839967427
"CVOE updated",2009,1,1,41,"J 28","","",FALSE,"CV","q",1536,"cv","J",8,"c","c",TRUE,1,-0.148475021214221
"CVOE updated",2009,1,1,42,"E 95","","",FALSE,"CV","p",858,"cv","E",5,"v","v",TRUE,1,-0.480687869532777
"CVOE updated",2009,1,1,43,"S 63","","",TRUE,"CV","q",1189,"cv","S",3,"c","c",TRUE,1,-0.318501360987877
"CVOE updated",2009,1,1,44,"H 50","","",FALSE,"CV","q",2180,"cv","H",0,"c","c",TRUE,1,0.167078185743228
"CVOE updated",2009,1,1,45,"S 33","","",TRUE,"CV","q",1356,"cv","S",3,"c","c",TRUE,1,-0.236673122537731
"CVOE updated",2009,1,1,46,"P 57","","",TRUE,"CV","q",3644,"cv","P",7,"c","c",TRUE,1,0.884422743174447
"CVOE updated",2009,1,1,47,"E 23","","",FALSE,"CV","p",1902,"cv","E",3,"v","v",TRUE,1,0.0308611181435841
"CVOE updated",2009,1,1,48,"S 61","","",TRUE,"CV","q",3401,"cv","S",1,"c","c",TRUE,1,0.765355306387708
"CVOE updated",2009,1,1,49,"U 67","","",FALSE,"CV","p",2026,"cv","U",7,"v","v",TRUE,1,0.0916198101664469
"CVOE updated",2009,1,1,50,"H 32","","",FALSE,"CV","q",1099,"cv","H",2,"c","c",TRUE,1,-0.362600411649632
"CVOE updated",2009,1,1,51,"U 50","","",TRUE,"CV","p",1135,"cv","U",0,"v","v",TRUE,1,-0.34496079138493
"CVOE updated",2009,1,1,52,"O 49","","",FALSE,"CV","p",1655,"cv","O",9,"v","v",TRUE,1,-0.0901662764503442
"CVOE updated",2009,1,1,53,"U 32","","",TRUE,"CV","p",1725,"cv","U",2,"v","v",TRUE,1,-0.0558670148245346
"CVOE updated",2009,1,1,54,"J 78","","",FALSE,"CV","q",994,"cv","J",8,"c","c",TRUE,1,-0.414049304088347
"CVOE updated",2009,1,1,55,"S 54","","",FALSE,"CV","q",1545,"cv","S",4,"c","c",TRUE,1,-0.144065116148045
"CVOE updated",2009,1,1,56,"J 27","","",TRUE,"CV","q",1733,"cv","J",7,"c","c",TRUE,1,-0.0519470992101563
"CVOE updated",2009,1,1,57,"S 06","","",FALSE,"CV","q",1800,"cv","S",6,"c","c",TRUE,1,-0.0191178059397385
"CVOE updated",2009,1,1,58,"D 67","","",TRUE,"CV","q",1327,"cv","D",7,"c","c",TRUE,1,-0.250882816639852
"CVOE updated",2009,1,1,59,"A 79","","",FALSE,"CV","p",886,"cv","A",9,"v","v",TRUE,1,-0.466968164882453
"CVOE updated",2009,1,1,60,"S 52","","",FALSE,"CV","q",1979,"cv","S",2,"c","c",TRUE,1,0.0685903059319747
"CVOE updated",2009,1,1,61,"U 16","","",TRUE,"CV","p",1199,"cv","U",6,"v","v",TRUE,1,-0.313601466469904
"CVOE updated",2009,1,1,62,"O 82","","",TRUE,"CV","p",1391,"cv","O",2,"v","v",TRUE,1,-0.219523491724826
"CVOE updated",2009,1,1,63,"H 87","","",TRUE,"CV","q",1116,"cv","H",7,"c","c",TRUE,1,-0.354270590969079
"CVOE updated",2009,1,1,64,"I 32","","",TRUE,"CV","p",1239,"cv","I",2,"v","v",TRUE,1,-0.294001888398013
"CVOE updated",2009,1,1,65,"U 37","","",FALSE,"CV","p",1311,"cv","U",7,"v","v",TRUE,1,-0.258722647868609
"CVOE updated",2009,1,1,66,"I 42","","",TRUE,"CV","p",1369,"cv","I",2,"v","v",TRUE,1,-0.230303259664366
"CVOE updated",2009,1,1,67,"D 65","","",TRUE,"CV","q",1020,"cv","D",5,"c","c",TRUE,1,-0.401309578341617
"CVOE updated",2009,1,1,68,"U 77","","",FALSE,"CV","p",1122,"cv","U",7,"v","v",TRUE,1,-0.351330654258295
"CVOE updated",2009,1,1,69,"E 12","","",TRUE,"CV","p",1271,"cv","E",2,"v","v",TRUE,1,-0.2783222259405
"CVOE updated",2009,1,1,70,"I 60","","",TRUE,"CV","p",959,"cv","I",0,"v","v",TRUE,1,-0.431198934901252
"CVOE updated",2009,1,1,71,"J 36","","",FALSE,"CV","q",908,"cv","J",6,"c","c",TRUE,1,-0.456188396942913
"CVOE updated",2009,1,1,73,"I 50","","",TRUE,"CV","p",1844,"cv","I",0,"v","v",TRUE,1,0.00244172993934184
"CVOE updated",2009,1,1,74,"E 99","","",FALSE,"CV","p",4705,"cv","E",9,"v","v",TRUE,1,1.40430155153136
"CVOE updated",2009,1,1,75,"A 86","","",TRUE,"CV","p",1130,"cv","A",6,"v","v",TRUE,1,-0.347410738643917
"CVOE updated",2009,1,1,76,"U 48","","",TRUE,"CV","p",1251,"cv","U",8,"v","v",TRUE,1,-0.288122014976446
"CVOE updated",2009,1,1,77,"E 01","","",FALSE,"CV","p",1079,"cv","E",1,"v","v",TRUE,1,-0.372400200685578
"CVOE updated",2009,1,1,78,"A 78","","",TRUE,"CV","p",1146,"cv","A",8,"v","v",TRUE,1,-0.33957090741516
"CVOE updated",2009,1,1,79,"P 60","","",FALSE,"CV","q",1904,"cv","P",0,"c","c",TRUE,1,0.0318410970471787
"CVOE updated",2009,1,1,80,"E 43","","",FALSE,"CV","p",1279,"cv","E",3,"v","v",TRUE,1,-0.274402310326122
"CVOE updated",2009,1,1,81,"D 69","","",TRUE,"CV","q",2209,"cv","D",9,"c","c",TRUE,1,0.181287879845349
"CVOE updated",2009,1,1,82,"H 11","","",TRUE,"CV","q",2559,"cv","H",1,"c","c",TRUE,1,0.352784187974398
"CVOE updated",2009,1,1,83,"P 43","","",TRUE,"CV","q",1231,"cv","P",3,"c","c",TRUE,1,-0.297921804012391
"CVOE updated",2009,1,1,84,"O 67","","",FALSE,"CV","p",1379,"cv","O",7,"v","v",TRUE,1,-0.225403365146394
"CVOE updated",2009,1,1,85,"S 91","","",FALSE,"CV","q",1360,"cv","S",1,"c","c",TRUE,1,-0.234713164730542
"CVOE updated",2009,1,1,86,"J 68","","",TRUE,"CV","q",1170,"cv","J",8,"c","c",TRUE,1,-0.327811160572025
"CVOE updated",2009,1,1,87,"S 47","","",FALSE,"CV","q",559,"cv","S",7,"c","c",TRUE,1,-0.627194715620164
"CVOE updated",2009,1,1,88,"I 81","","",TRUE,"CV","p",828,"cv","I",1,"v","v",TRUE,1,-0.495387553086695
"CVOE updated",2009,1,1,89,"J 39","","",FALSE,"CV","q",1027,"cv","J",9,"c","c",TRUE,1,-0.397879652179036
"CVOE updated",2009,1,1,90,"A 11","","",TRUE,"CV","p",962,"cv","A",1,"v","v",TRUE,1,-0.42972896654586
"CVOE updated",2009,1,1,91,"O 76","","",FALSE,"CV","p",946,"cv","O",6,"v","v",TRUE,1,-0.437568797774616
"CVOE updated",2009,1,1,92,"A 62","","",FALSE,"CV","p",705,"cv","A",2,"v","v",TRUE,1,-0.555656255657761
"CVOE updated",2009,1,1,93,"O 27","","",TRUE,"CV","p",877,"cv","O",7,"v","v",TRUE,1,-0.471378069948629
"CVOE updated",2009,1,1,94,"E 66","","",FALSE,"CV","p",1030,"cv","E",6,"v","v",TRUE,1,-0.396409683823645
"CVOE updated",2009,1,1,95,"J 62","","",TRUE,"CV","q",1111,"cv","J",2,"c","c",TRUE,1,-0.356720538228065
"CVOE updated",2009,1,1,96,"H 72","","",TRUE,"CV","q",1183,"cv","H",2,"c","c",TRUE,1,-0.321441297698661
"CVOE updated",2009,1,1,97,"E 49","","",TRUE,"CV","p",985,"cv","E",9,"v","v",TRUE,1,-0.418459209154522
"CVOE updated",2009,1,1,98,"D 52","","",TRUE,"CV","q",1248,"cv","D",2,"c","c",TRUE,1,-0.289591983331837
"CVOE updated",2009,1,1,99,"H 62","","",TRUE,"CV","q",1315,"cv","H",2,"c","c",TRUE,1,-0.25676269006142
"CVOE updated",2009,1,1,100,"I 11","","",TRUE,"CV","p",831,"cv","I",1,"v","v",TRUE,1,-0.493917584731304
"CVOE updated",2009,1,1,101,"A 98","","",FALSE,"CV","p",954,"cv","A",8,"v","v",TRUE,1,-0.433648882160238
"CVOE updated",2009,1,1,102,"H 29","","",FALSE,"CV","q",1081,"cv","H",9,"c","c",TRUE,1,-0.371420221781983
"CVOE updated",2009,1,1,103,"E 83","","",TRUE,"CV","p",888,"cv","E",3,"v","v",TRUE,1,-0.465988185978858
"CVOE updated",2009,1,1,104,"D 43","","",FALSE,"CV","q",848,"cv","D",3,"c","c",TRUE,1,-0.48558776405075
"CVOE updated",2009,1,1,105,"P 45","","",TRUE,"CV","q",764,"cv","P",5,"c","c",TRUE,1,-0.526746878001721
"CVOE updated",2009,1,1,106,"J 17","","",TRUE,"CV","q",789,"cv","J",7,"c","c",TRUE,1,-0.514497141706789
"CVOE_B",1006,1,2,11,"A 71","","",FALSE,"CV","p",2229,"cv","A",1,"v","v",TRUE,1,0.191087668881295
"CVOE_B",1006,1,2,12,"I 66","","",TRUE,"CV","p",710,"cv","I",6,"v","v",TRUE,1,-0.553206308398774
"CVOE_B",1006,1,2,13,"S 30","","",FALSE,"CV","q",682,"cv","S",0,"c","c",TRUE,1,-0.566926013049098
"CVOE_B",1006,1,2,14,"D 20","","",FALSE,"CV","q",1436,"cv","D",0,"c","c",TRUE,1,-0.197473966393949
"CVOE_B",1006,1,2,15,"I 31","","",FALSE,"CV","p",672,"cv","I",1,"v","v",TRUE,1,-0.571825907567071
"CVOE_B",1006,1,2,16,"P 16","","",FALSE,"CV","q",745,"cv","P",6,"c","c",TRUE,1,-0.53605667758587
"CVOE_B",1006,1,2,17,"A 49","","",FALSE,"CV","p",1061,"cv","A",9,"v","v",TRUE,1,-0.381220010817929
"CVOE_B",1006,1,2,18,"O 64","","",TRUE,"CV","p",693,"cv","O",4,"v","v",TRUE,1,-0.561536129079328
"CVOE_B",1006,1,2,19,"D 02","","",FALSE,"CV","q",761,"cv","D",2,"c","c",TRUE,1,-0.528216846357113
"CVOE_B",1006,1,2,20,"P 81","","",TRUE,"CV","q",2443,"cv","P",1,"c","c",TRUE,1,0.295945411565913
"CVOE_B",1006,1,2,21,"J 58","","",FALSE,"CV","q",1440,"cv","J",8,"c","c",TRUE,1,-0.19551400858676
"CVOE_B",1006,1,2,22,"A 22","","",TRUE,"CV","p",666,"cv","A",2,"v","v",TRUE,1,-0.574765844277855
"CVOE_B",1006,1,2,23,"J 72","","",FALSE,"CV","q",606,"cv","J",2,"c","c",TRUE,1,-0.604165211385692
"CVOE_B",1006,1,2,24,"P 91","","",TRUE,"CV","q",563,"cv","P",1,"c","c",TRUE,1,-0.625234757812975
"CVOE_B",1006,1,2,25,"E 19","","",FALSE,"CV","p",605,"cv","E",9,"v","v",TRUE,1,-0.604655200837489
"CVOE_B",1006,1,2,26,"I 30","","",TRUE,"CV","p",1724,"cv","I",0,"v","v",TRUE,1,-0.0563570042763318
"CVOE_B",1006,1,2,27,"D 91","","",TRUE,"CV","q",536,"cv","D",1,"c","c",TRUE,1,-0.638464473011501
"CVOE_B",1006,1,2,28,"O 48","","",TRUE,"CV","p",619,"cv","O",8,"v","v",TRUE,1,-0.597795348512327
"CVOE_B",1006,1,2,29,"A 89","","",FALSE,"CV","p",887,"cv","A",9,"v","v",TRUE,1,-0.466478175430656
"CVOE_B",1006,1,2,30,"U 11","","",FALSE,"CV","p",800,"cv","U",1,"v","v",TRUE,1,-0.509107257737019
"CVOE_B",1006,1,2,31,"I 76","","",TRUE,"CV","p",1328,"cv","I",6,"v","v",TRUE,1,-0.250392827188055
"CVOE_B",1006,1,2,32,"U 89","","",FALSE,"CV","p",897,"cv","U",9,"v","v",TRUE,1,-0.461578280912683
"CVOE_B",1006,1,2,33,"D 63","","",TRUE,"CV","q",542,"cv","D",3,"c","c",TRUE,1,-0.635524536300718
"CVOE_B",1006,1,2,34,"H 70","","",FALSE,"CV","q",566,"cv","H",0,"c","c",TRUE,1,-0.623764789457583
"CVOE_B",1006,1,2,35,"D 48","","",FALSE,"CV","q",634,"cv","D",8,"c","c",TRUE,1,-0.590445506735368
"CVOE_B",1006,1,2,36,"P 56","","",FALSE,"CV","q",740,"cv","P",6,"c","c",TRUE,1,-0.538506624844856
"CVOE_B",1006,1,2,37,"O 77","","",FALSE,"CV","p",604,"cv","O",7,"v","v",TRUE,1,-0.605145190289286
"CVOE_B",1006,1,2,38,"P 42","","",FALSE,"CV","q",646,"cv","P",2,"c","c",TRUE,1,-0.5845656333138
"CVOE_B",1006,1,2,39,"H 22","","",FALSE,"CV","q",625,"cv","H",2,"c","c",TRUE,1,-0.594855411801543
"CVOE_B",1006,1,2,40,"E 42","","",TRUE,"CV","p",623,"cv","E",2,"v","v",TRUE,1,-0.595835390705138
"CVOE_B",1006,1,2,41,"J 28","","",FALSE,"CV","q",571,"cv","J",8,"c","c",TRUE,1,-0.621314842198596
"CVOE_B",1006,1,2,42,"E 95","","",FALSE,"CV","p",557,"cv","E",5,"v","v",TRUE,1,-0.628174694523758
"CVOE_B",1006,1,2,43,"S 63","","",TRUE,"CV","q",683,"cv","S",3,"c","c",TRUE,1,-0.566436023597301
"CVOE_B",1006,1,2,44,"H 50","","",FALSE,"CV","q",641,"cv","H",0,"c","c",TRUE,1,-0.587015580572787
"CVOE_B",1006,1,2,45,"S 33","","",TRUE,"CV","q",719,"cv","S",3,"c","c",TRUE,1,-0.548796403332599
"CVOE_B",1006,1,2,46,"P 57","","",TRUE,"CV","q",581,"cv","P",7,"c","c",TRUE,1,-0.616414947680624
"CVOE_B",1006,1,2,47,"E 23","","",FALSE,"CV","p",638,"cv","E",3,"v","v",TRUE,1,-0.588485548928179
"CVOE_B",1006,1,2,48,"S 61","","",TRUE,"CV","q",1662,"cv","S",1,"c","c",TRUE,1,-0.0867363502877632
"CVOE_B",1006,1,2,49,"U 67","","",FALSE,"CV","p",689,"cv","U",7,"v","v",TRUE,1,-0.563496086886517
"CVOE_B",1006,1,2,50,"H 32","","",FALSE,"CV","q",1637,"cv","H",2,"c","c",TRUE,1,-0.0989860865826953
"CVOE_B",1006,1,2,51,"U 50","","",TRUE,"CV","p",616,"cv","U",0,"v","v",TRUE,1,-0.599265316867719
"CVOE_B",1006,1,2,52,"O 49","","",FALSE,"CV","p",623,"cv","O",9,"v","v",TRUE,1,-0.595835390705138
"CVOE_B",1006,1,2,53,"U 32","","",TRUE,"CV","p",608,"cv","U",2,"v","v",TRUE,1,-0.603185232482097
"CVOE_B",1006,1,2,54,"J 78","","",FALSE,"CV","q",605,"cv","J",8,"c","c",TRUE,1,-0.604655200837489
"CVOE_B",1006,1,2,55,"S 54","","",FALSE,"CV","q",1530,"cv","S",4,"c","c",TRUE,1,-0.151414957925004
"CVOE_B",1006,1,2,56,"J 27","","",TRUE,"CV","q",653,"cv","J",7,"c","c",TRUE,1,-0.581135707151219
"CVOE_B",1006,1,2,57,"S 06","","",FALSE,"CV","q",557,"cv","S",6,"c","c",TRUE,1,-0.628174694523758
"CVOE_B",1006,1,2,58,"D 67","","",TRUE,"CV","q",592,"cv","D",7,"c","c",TRUE,1,-0.611025063710854
"CVOE_B",1006,1,2,59,"A 79","","",FALSE,"CV","p",428,"cv","A",9,"v","v",TRUE,1,-0.691383333805608
"CVOE_B",1006,1,2,60,"S 52","","",FALSE,"CV","q",555,"cv","S",2,"c","c",TRUE,1,-0.629154673427353
"CVOE_B",1006,1,2,61,"U 16","","",TRUE,"CV","p",594,"cv","U",6,"v","v",TRUE,1,-0.610045084807259
"CVOE_B",1006,1,2,62,"O 82","","",TRUE,"CV","p",789,"cv","O",2,"v","v",TRUE,1,-0.514497141706789
"CVOE_B",1006,1,2,63,"H 87","","",TRUE,"CV","q",504,"cv","H",7,"c","c",TRUE,1,-0.654144135469014
"CVOE_B",1006,1,2,64,"I 32","","",TRUE,"CV","p",562,"cv","I",2,"v","v",TRUE,1,-0.625724747264772
"CVOE_B",1006,1,2,65,"U 37","","",FALSE,"CV","p",1075,"cv","U",7,"v","v",TRUE,1,-0.374360158492767
"CVOE_B",1006,1,2,66,"I 42","","",TRUE,"CV","p",614,"cv","I",2,"v","v",TRUE,1,-0.600245295771313
"CVOE_B",1006,1,2,67,"D 65","","",TRUE,"CV","q",626,"cv","D",5,"c","c",TRUE,1,-0.594365422349746
"CVOE_B",1006,1,2,68,"U 77","","",FALSE,"CV","p",702,"cv","U",7,"v","v",TRUE,1,-0.557126224013153
"CVOE_B",1006,1,2,69,"E 12","","",TRUE,"CV","p",624,"cv","E",2,"v","v",TRUE,1,-0.595345401253341
"CVOE_B",1006,1,2,70,"I 60","","",TRUE,"CV","p",552,"cv","I",0,"v","v",TRUE,1,-0.630624641782745
"CVOE_B",1006,1,2,71,"J 36","","",FALSE,"CV","q",643,"cv","J",6,"c","c",TRUE,1,-0.586035601669192
"CVOE_B",1006,1,2,72,"H 75","","",TRUE,"CV","q",864,"cv","H",5,"c","c",TRUE,1,-0.477747932821993
"CVOE_B",1006,1,2,73,"I 50","","",TRUE,"CV","p",555,"cv","I",0,"v","v",TRUE,1,-0.629154673427353
"CVOE_B",1006,1,2,74,"E 99","","",FALSE,"CV","p",707,"cv","E",9,"v","v",TRUE,1,-0.554676276754166
"CVOE_B",1006,1,2,75,"A 86","","",TRUE,"CV","p",460,"cv","A",6,"v","v",TRUE,1,-0.675703671348095
"CVOE_B",1006,1,2,76,"U 48","","",TRUE,"CV","p",541,"cv","U",8,"v","v",TRUE,1,-0.636014525752515
"CVOE_B",1006,1,2,77,"E 01","","",FALSE,"CV","p",573,"cv","E",1,"v","v",TRUE,1,-0.620334863295002
"CVOE_B",1006,1,2,78,"A 78","","",TRUE,"CV","p",546,"cv","A",8,"v","v",TRUE,1,-0.633564578493529
"CVOE_B",1006,1,2,79,"P 60","","",FALSE,"CV","q",582,"cv","P",0,"c","c",TRUE,1,-0.615924958228826
"CVOE_B",1006,1,2,80,"E 43","","",FALSE,"CV","p",916,"cv","E",3,"v","v",TRUE,1,-0.452268481328535
"CVOE_B",1006,1,2,81,"D 69","","",TRUE,"CV","q",557,"cv","D",9,"c","c",TRUE,1,-0.628174694523758
"CVOE_B",1006,1,2,82,"H 11","","",TRUE,"CV","q",877,"cv","H",1,"c","c",TRUE,1,-0.471378069948629
"CVOE_B",1006,1,2,83,"P 43","","",TRUE,"CV","q",547,"cv","P",3,"c","c",TRUE,1,-0.633074589041731
"CVOE_B",1006,1,2,84,"O 67","","",FALSE,"CV","p",545,"cv","O",7,"v","v",TRUE,1,-0.634054567945326
"CVOE_B",1006,1,2,85,"S 91","","",FALSE,"CV","q",875,"cv","S",1,"c","c",TRUE,1,-0.472358048852223
"CVOE_B",1006,1,2,86,"J 68","","",TRUE,"CV","q",737,"cv","J",8,"c","c",TRUE,1,-0.539976593200248
"CVOE_B",1006,1,2,87,"S 47","","",FALSE,"CV","q",491,"cv","S",7,"c","c",TRUE,1,-0.660513998342379
"CVOE_B",1006,1,2,88,"I 81","","",TRUE,"CV","p",528,"cv","I",1,"v","v",TRUE,1,-0.64238438862588
"CVOE_B",1006,1,2,89,"J 39","","",FALSE,"CV","q",1999,"cv","J",9,"c","c",TRUE,1,0.0783900949679203
"CVOE_B",1006,1,2,90,"A 11","","",TRUE,"CV","p",670,"cv","A",1,"v","v",TRUE,1,-0.572805886470666
"CVOE_B",1006,1,2,91,"O 76","","",FALSE,"CV","p",449,"cv","O",6,"v","v",TRUE,1,-0.681093555317865
"CVOE_B",1006,1,2,92,"A 62","","",FALSE,"CV","p",529,"cv","A",2,"v","v",TRUE,1,-0.641894399174082
"CVOE_B",1006,1,2,93,"O 27","","",TRUE,"CV","p",473,"cv","O",7,"v","v",TRUE,1,-0.66933380847473
"CVOE_B",1006,1,2,94,"E 66","","",FALSE,"CV","p",526,"cv","E",6,"v","v",TRUE,1,-0.643364367529474
"CVOE_B",1006,1,2,95,"J 62","","",TRUE,"CV","q",532,"cv","J",2,"c","c",TRUE,1,-0.64042443081869
"CVOE_B",1006,1,2,96,"H 72","","",TRUE,"CV","q",521,"cv","H",2,"c","c",TRUE,1,-0.645814314788461
"CVOE_B",1006,1,2,97,"E 49","","",TRUE,"CV","p",560,"cv","E",9,"v","v",TRUE,1,-0.626704726168367
"CVOE_B",1006,1,2,98,"D 52","","",TRUE,"CV","q",841,"cv","D",2,"c","c",TRUE,1,-0.489017690213331
"CVOE_B",1006,1,2,99,"H 62","","",TRUE,"CV","q",572,"cv","H",2,"c","c",TRUE,1,-0.620824852746799
"CVOE_B",1006,1,2,100,"I 11","","",TRUE,"CV","p",592,"cv","I",1,"v","v",TRUE,1,-0.611025063710854
"CVOE_B",1006,1,2,101,"A 98","","",FALSE,"CV","p",477,"cv","A",8,"v","v",TRUE,1,-0.667373850667541
"CVOE_B",1006,1,2,102,"H 29","","",FALSE,"CV","q",1082,"cv","H",9,"c","c",TRUE,1,-0.370930232330186
"CVOE_B",1006,1,2,103,"E 83","","",TRUE,"CV","p",672,"cv","E",3,"v","v",TRUE,1,-0.571825907567071
"CVOE_B",1006,1,2,104,"D 43","","",FALSE,"CV","q",904,"cv","D",3,"c","c",TRUE,1,-0.458148354750102
"CVOE_B",1006,1,2,105,"P 45","","",TRUE,"CV","q",640,"cv","P",5,"c","c",TRUE,1,-0.587505570024584
"CVOE_B",1006,1,2,106,"J 17","","",TRUE,"CV","q",567,"cv","J",7,"c","c",TRUE,1,-0.623274800005786
"CVOE_B",1010,1,2,12,"I 66","","",TRUE,"CV","p",2345,"cv","I",6,"v","v",TRUE,1,0.247926445289779
"CVOE_B",1010,1,2,13,"S 30","","",FALSE,"CV","q",1734,"cv","S",0,"c","c",TRUE,1,-0.051457109758359
"CVOE_B",1010,1,2,14,"D 20","","",FALSE,"CV","q",2100,"cv","D",0,"c","c",TRUE,1,0.127879029599446
"CVOE_B",1010,1,2,16,"P 16","","",FALSE,"CV","q",2655,"cv","P",6,"c","c",TRUE,1,0.399823175346937
"CVOE_B",1010,1,2,17,"A 49","","",FALSE,"CV","p",1261,"cv","A",9,"v","v",TRUE,1,-0.283222120458473
"CVOE_B",1010,1,2,18,"O 64","","",TRUE,"CV","p",3823,"cv","O",4,"v","v",TRUE,1,0.97213085504616
"CVOE_B",1010,1,2,19,"D 02","","",FALSE,"CV","q",2386,"cv","D",2,"c","c",TRUE,1,0.268016012813468
"CVOE_B",1010,1,2,20,"P 81","","",TRUE,"CV","q",2728,"cv","P",1,"c","c",TRUE,1,0.435592405328138
"CVOE_B",1010,1,2,21,"J 58","","",FALSE,"CV","q",2067,"cv","J",8,"c","c",TRUE,1,0.111709377690135
"CVOE_B",1010,1,2,22,"A 22","","",TRUE,"CV","p",2113,"cv","A",2,"v","v",TRUE,1,0.13424889247281
"CVOE_B",1010,1,2,23,"J 72","","",FALSE,"CV","q",4983,"cv","J",2,"c","c",TRUE,1,1.54051861913101
"CVOE_B",1010,1,2,24,"P 91","","",TRUE,"CV","q",4028,"cv","P",1,"c","c",TRUE,1,1.0725786926646
"CVOE_B",1010,1,2,25,"E 19","","",FALSE,"CV","p",1636,"cv","E",9,"v","v",TRUE,1,-0.0994760760344925
"CVOE_B",1010,1,2,26,"I 30","","",TRUE,"CV","p",1653,"cv","I",0,"v","v",TRUE,1,-0.0911462553539388
"CVOE_B",1010,1,2,27,"D 91","","",TRUE,"CV","q",1532,"cv","D",1,"c","c",TRUE,1,-0.15043497902141
"CVOE_B",1010,1,2,28,"O 48","","",TRUE,"CV","p",1424,"cv","O",8,"v","v",TRUE,1,-0.203353839815516
"CVOE_B",1010,1,2,29,"A 89","","",FALSE,"CV","p",962,"cv","A",9,"v","v",TRUE,1,-0.42972896654586
"CVOE_B",1010,1,2,30,"U 11","","",FALSE,"CV","p",978,"cv","U",1,"v","v",TRUE,1,-0.421889135317103
"CVOE_B",1010,1,2,31,"I 76","","",TRUE,"CV","p",2328,"cv","I",6,"v","v",TRUE,1,0.239596624609226
"CVOE_B",1010,1,2,32,"U 89","","",FALSE,"CV","p",1311,"cv","U",9,"v","v",TRUE,1,-0.258722647868609
"CVOE_B",1010,1,2,33,"D 63","","",TRUE,"CV","q",5272,"cv","D",3,"c","c",TRUE,1,1.68212557070042
"CVOE_B",1010,1,2,34,"H 70","","",FALSE,"CV","q",1872,"cv","H",0,"c","c",TRUE,1,0.0161614345896657
"CVOE_B",1010,1,2,35,"D 48","","",FALSE,"CV","q",1847,"cv","D",8,"c","c",TRUE,1,0.00391169829473368
"CVOE_B",1010,1,2,36,"P 56","","",FALSE,"CV","q",1442,"cv","P",6,"c","c",TRUE,1,-0.194534029683165
"CVOE_B",1010,1,2,37,"O 77","","",FALSE,"CV","p",1866,"cv","O",7,"v","v",TRUE,1,0.013221497878882
"CVOE_B",1010,1,2,38,"P 42","","",FALSE,"CV","q",1646,"cv","P",2,"c","c",TRUE,1,-0.0945761815165197
"CVOE_B",1010,1,2,39,"H 22","","",FALSE,"CV","q",1233,"cv","H",2,"c","c",TRUE,1,-0.296941825108797
"CVOE_B",1010,1,2,40,"E 42","","",TRUE,"CV","p",1279,"cv","E",2,"v","v",TRUE,1,-0.274402310326122
"CVOE_B",1010,1,2,41,"J 28","","",FALSE,"CV","q",1484,"cv","J",8,"c","c",TRUE,1,-0.173954472707679
"CVOE_B",1010,1,2,42,"E 95","","",FALSE,"CV","p",1762,"cv","E",5,"v","v",TRUE,1,-0.0377374051080352
"CVOE_B",1010,1,2,43,"S 63","","",TRUE,"CV","q",2427,"cv","S",3,"c","c",TRUE,1,0.288105580337156
"CVOE_B",1010,1,2,44,"H 50","","",FALSE,"CV","q",2038,"cv","H",0,"c","c",TRUE,1,0.0974996835880143
"CVOE_B",1010,1,2,45,"S 33","","",TRUE,"CV","q",1591,"cv","S",3,"c","c",TRUE,1,-0.12152560136537
"CVOE_B",1010,1,2,46,"P 57","","",TRUE,"CV","q",1450,"cv","P",7,"c","c",TRUE,1,-0.190614114068787
"CVOE_B",1010,1,2,47,"E 23","","",FALSE,"CV","p",742,"cv","E",3,"v","v",TRUE,1,-0.537526645941262
"CVOE_B",1010,1,2,48,"S 61","","",TRUE,"CV","q",1034,"cv","S",1,"c","c",TRUE,1,-0.394449726016456
"CVOE_B",1010,1,2,49,"U 67","","",FALSE,"CV","p",1006,"cv","U",7,"v","v",TRUE,1,-0.408169430666779
"CVOE_B",1010,1,2,50,"H 32","","",FALSE,"CV","q",1312,"cv","H",2,"c","c",TRUE,1,-0.258232658416811
"CVOE_B",1010,1,2,51,"U 50","","",TRUE,"CV","p",1685,"cv","U",0,"v","v",TRUE,1,-0.0754665928964258
"CVOE_B",1010,1,2,52,"O 49","","",FALSE,"CV","p",2763,"cv","O",9,"v","v",TRUE,1,0.452742036141043
"CVOE_B",1010,1,2,53,"U 32","","",TRUE,"CV","p",2352,"cv","U",2,"v","v",TRUE,1,0.25135637145236
"CVOE_B",1010,1,2,54,"J 78","","",FALSE,"CV","q",1883,"cv","J",8,"c","c",TRUE,1,0.0215513185594358
"CVOE_B",1010,1,2,55,"S 54","","",FALSE,"CV","q",2015,"cv","S",4,"c","c",TRUE,1,0.0862299261966768
"CVOE_B",1010,1,2,56,"J 27","","",TRUE,"CV","q",1936,"cv","J",7,"c","c",TRUE,1,0.0475207595046917
"CVOE_B",1010,1,2,57,"S 06","","",FALSE,"CV","q",1687,"cv","S",6,"c","c",TRUE,1,-0.0744866139928312
"CVOE_B",1010,1,2,58,"D 67","","",TRUE,"CV","q",1484,"cv","D",7,"c","c",TRUE,1,-0.173954472707679
"CVOE_B",1010,1,2,59,"A 79","","",FALSE,"CV","p",537,"cv","A",9,"v","v",TRUE,1,-0.637974483559704
"CVOE_B",1010,1,2,60,"S 52","","",FALSE,"CV","q",944,"cv","S",2,"c","c",TRUE,1,-0.438548776678211
"CVOE_B",1010,1,2,61,"U 16","","",TRUE,"CV","p",6273,"cv","U",6,"v","v",TRUE,1,2.1726050119495
"CVOE_B",1010,1,2,62,"O 82","","",TRUE,"CV","p",1417,"cv","O",2,"v","v",TRUE,1,-0.206783765978097
"CVOE_B",1010,1,2,63,"H 87","","",TRUE,"CV","q",2325,"cv","H",7,"c","c",TRUE,1,0.238126656253834
"CVOE_B",1010,1,2,64,"I 32","","",TRUE,"CV","p",1020,"cv","I",2,"v","v",TRUE,1,-0.401309578341617
"CVOE_B",1010,1,2,65,"U 37","","",FALSE,"CV","p",911,"cv","U",7,"v","v",TRUE,1,-0.454718428587521
"CVOE_B",1010,1,2,66,"I 42","","",TRUE,"CV","p",1097,"cv","I",2,"v","v",TRUE,1,-0.363580390553227
"CVOE_B",1010,1,2,67,"D 65","","",TRUE,"CV","q",1263,"cv","D",5,"c","c",TRUE,1,-0.282242141554878
"CVOE_B",1010,1,2,68,"U 77","","",FALSE,"CV","p",1071,"cv","U",7,"v","v",TRUE,1,-0.376320116299956
"CVOE_B",1010,1,2,69,"E 12","","",TRUE,"CV","p",1493,"cv","E",2,"v","v",TRUE,1,-0.169544567641504
"CVOE_B",1010,1,2,70,"I 60","","",TRUE,"CV","p",1375,"cv","I",0,"v","v",TRUE,1,-0.227363322953583
"CVOE_B",1010,1,2,71,"J 36","","",FALSE,"CV","q",856,"cv","J",6,"c","c",TRUE,1,-0.481667848436372
"CVOE_B",1010,1,2,72,"H 75","","",TRUE,"CV","q",1192,"cv","H",5,"c","c",TRUE,1,-0.317031392632485
"CVOE_B",1010,1,2,73,"I 50","","",TRUE,"CV","p",2037,"cv","I",0,"v","v",TRUE,1,0.097009694136217
"CVOE_B",1010,1,2,74,"E 99","","",FALSE,"CV","p",1392,"cv","E",9,"v","v",TRUE,1,-0.219033502273029
"CVOE_B",1010,1,2,75,"A 86","","",TRUE,"CV","p",996,"cv","A",6,"v","v",TRUE,1,-0.413069325184752
"CVOE_B",1010,1,2,76,"U 48","","",TRUE,"CV","p",710,"cv","U",8,"v","v",TRUE,1,-0.553206308398774
"CVOE_B",1010,1,2,77,"E 01","","",FALSE,"CV","p",1009,"cv","E",1,"v","v",TRUE,1,-0.406699462311388
"CVOE_B",1010,1,2,78,"A 78","","",TRUE,"CV","p",622,"cv","A",8,"v","v",TRUE,1,-0.596325380156935
"CVOE_B",1010,1,2,79,"P 60","","",FALSE,"CV","q",1532,"cv","P",0,"c","c",TRUE,1,-0.15043497902141
"CVOE_B",1010,1,2,80,"E 43","","",FALSE,"CV","p",1206,"cv","E",3,"v","v",TRUE,1,-0.310171540307323
"CVOE_B",1010,1,2,81,"D 69","","",TRUE,"CV","q",923,"cv","D",9,"c","c",TRUE,1,-0.448838555165954
"CVOE_B",1010,1,2,82,"H 11","","",TRUE,"CV","q",1727,"cv","H",1,"c","c",TRUE,1,-0.05488703592094
"CVOE_B",1010,1,2,83,"P 43","","",TRUE,"CV","q",869,"cv","P",3,"c","c",TRUE,1,-0.475297985563007
"CVOE_B",1010,1,2,84,"O 67","","",FALSE,"CV","p",705,"cv","O",7,"v","v",TRUE,1,-0.555656255657761
"CVOE_B",1010,1,2,85,"S 91","","",FALSE,"CV","q",794,"cv","S",1,"c","c",TRUE,1,-0.512047194447803
"CVOE_B",1010,1,2,86,"J 68","","",TRUE,"CV","q",852,"cv","J",8,"c","c",TRUE,1,-0.483627806243561
"CVOE_B",1010,1,2,87,"S 47","","",FALSE,"CV","q",2035,"cv","S",7,"c","c",TRUE,1,0.0960297152326225
"CVOE_B",1010,1,2,88,"I 81","","",TRUE,"CV","p",892,"cv","I",1,"v","v",TRUE,1,-0.464028228171669
"CVOE_B",1010,1,2,89,"J 39","","",FALSE,"CV","q",887,"cv","J",9,"c","c",TRUE,1,-0.466478175430656
"CVOE_B",1010,1,2,90,"A 11","","",TRUE,"CV","p",841,"cv","A",1,"v","v",TRUE,1,-0.489017690213331
"CVOE_B",1010,1,2,91,"O 76","","",FALSE,"CV","p",1202,"cv","O",6,"v","v",TRUE,1,-0.312131498114512
"CVOE_B",1010,1,2,92,"A 62","","",FALSE,"CV","p",644,"cv","A",2,"v","v",TRUE,1,-0.585545612217395
"CVOE_B",1010,1,2,93,"O 27","","",TRUE,"CV","p",807,"cv","O",7,"v","v",TRUE,1,-0.505677331574438
"CVOE_B",1010,1,2,94,"E 66","","",FALSE,"CV","p",946,"cv","E",6,"v","v",TRUE,1,-0.437568797774616
"CVOE_B",1010,1,2,95,"J 62","","",TRUE,"CV","q",866,"cv","J",2,"c","c",TRUE,1,-0.476767953918399
"CVOE_B",1010,1,2,96,"H 72","","",TRUE,"CV","q",3066,"cv","H",2,"c","c",TRUE,1,0.601208840035619
"CVOE_B",1010,1,2,97,"E 49","","",TRUE,"CV","p",877,"cv","E",9,"v","v",TRUE,1,-0.471378069948629
"CVOE_B",1010,1,2,98,"D 52","","",TRUE,"CV","q",976,"cv","D",2,"c","c",TRUE,1,-0.422869114220698
"CVOE_B",1010,1,2,99,"H 62","","",TRUE,"CV","q",1788,"cv","H",2,"c","c",TRUE,1,-0.0249976793613059
"CVOE_B",1010,1,2,100,"I 11","","",TRUE,"CV","p",786,"cv","I",1,"v","v",TRUE,1,-0.515967110062181
"CVOE_B",1010,1,2,101,"A 98","","",FALSE,"CV","p",844,"cv","A",8,"v","v",TRUE,1,-0.487547721857939
"CVOE_B",1010,1,2,102,"H 29","","",FALSE,"CV","q",873,"cv","H",9,"c","c",TRUE,1,-0.473338027755818
"CVOE_B",1010,1,2,103,"E 83","","",TRUE,"CV","p",879,"cv","E",3,"v","v",TRUE,1,-0.470398091045034
"CVOE_B",1010,1,2,104,"D 43","","",FALSE,"CV","q",2124,"cv","D",3,"c","c",TRUE,1,0.13963877644258
"CVOE_B",1010,1,2,105,"P 45","","",TRUE,"CV","q",2672,"cv","P",5,"c","c",TRUE,1,0.40815299602749
"CVOE_B",1010,1,2,106,"J 17","","",TRUE,"CV","q",740,"cv","J",7,"c","c",TRUE,1,-0.538506624844856
"CVOE_B",1014,1,2,11,"A 71","","",FALSE,"CV","p",6441,"cv","A",1,"v","v",TRUE,1,2.25492323985144
"CVOE_B",1014,1,2,12,"I 66","","",TRUE,"CV","p",1758,"cv","I",6,"v","v",TRUE,1,-0.0396973629152243
"CVOE_B",1014,1,2,13,"S 30","","",FALSE,"CV","q",1304,"cv","S",0,"c","c",TRUE,1,-0.26215257403119
"CVOE_B",1014,1,2,14,"D 20","","",FALSE,"CV","q",1589,"cv","D",0,"c","c",TRUE,1,-0.122505580268965
"CVOE_B",1014,1,2,15,"I 31","","",FALSE,"CV","p",1236,"cv","I",1,"v","v",TRUE,1,-0.295471856753405
"CVOE_B",1014,1,2,16,"P 16","","",FALSE,"CV","q",1802,"cv","P",6,"c","c",TRUE,1,-0.018137827036144
"CVOE_B",1014,1,2,17,"A 49","","",FALSE,"CV","p",784,"cv","A",9,"v","v",TRUE,1,-0.516947088965776
"CVOE_B",1014,1,2,18,"O 64","","",TRUE,"CV","p",1388,"cv","O",4,"v","v",TRUE,1,-0.220993460080218
"CVOE_B",1014,1,2,19,"D 02","","",FALSE,"CV","q",920,"cv","D",2,"c","c",TRUE,1,-0.450308523521346
"CVOE_B",1014,1,2,20,"P 81","","",TRUE,"CV","q",1494,"cv","P",1,"c","c",TRUE,1,-0.169054578189706
"CVOE_B",1014,1,2,21,"J 58","","",FALSE,"CV","q",1865,"cv","J",8,"c","c",TRUE,1,0.0127315084270847
"CVOE_B",1014,1,2,22,"A 22","","",TRUE,"CV","p",1246,"cv","A",2,"v","v",TRUE,1,-0.290571962235432
"CVOE_B",1014,1,2,23,"J 72","","",FALSE,"CV","q",1157,"cv","J",2,"c","c",TRUE,1,-0.33418102344539
"CVOE_B",1014,1,2,24,"P 91","","",TRUE,"CV","q",1122,"cv","P",1,"c","c",TRUE,1,-0.351330654258295
"CVOE_B",1014,1,2,25,"E 19","","",FALSE,"CV","p",2058,"cv","E",9,"v","v",TRUE,1,0.10729947262396
"CVOE_B",1014,1,2,26,"I 30","","",TRUE,"CV","p",1031,"cv","I",0,"v","v",TRUE,1,-0.395919694371847
"CVOE_B",1014,1,2,27,"D 91","","",TRUE,"CV","q",805,"cv","D",1,"c","c",TRUE,1,-0.506657310478033
"CVOE_B",1014,1,2,28,"O 48","","",TRUE,"CV","p",882,"cv","O",8,"v","v",TRUE,1,-0.468928122689642
"CVOE_B",1014,1,2,29,"A 89","","",FALSE,"CV","p",3123,"cv","A",9,"v","v",TRUE,1,0.629138238788064
"CVOE_B",1014,1,2,30,"U 11","","",FALSE,"CV","p",1049,"cv","U",1,"v","v",TRUE,1,-0.387099884239496
"CVOE_B",1014,1,2,31,"I 76","","",TRUE,"CV","p",806,"cv","I",6,"v","v",TRUE,1,-0.506167321026236
"CVOE_B",1014,1,2,32,"U 89","","",FALSE,"CV","p",1157,"cv","U",9,"v","v",TRUE,1,-0.33418102344539
"CVOE_B",1014,1,2,33,"D 63","","",TRUE,"CV","q",680,"cv","D",3,"c","c",TRUE,1,-0.567905991952693
"CVOE_B",1014,1,2,34,"H 70","","",FALSE,"CV","q",1146,"cv","H",0,"c","c",TRUE,1,-0.33957090741516
"CVOE_B",1014,1,2,35,"D 48","","",FALSE,"CV","q",689,"cv","D",8,"c","c",TRUE,1,-0.563496086886517
"CVOE_B",1014,1,2,36,"P 56","","",FALSE,"CV","q",1005,"cv","P",6,"c","c",TRUE,1,-0.408659420118577
"CVOE_B",1014,1,2,37,"O 77","","",FALSE,"CV","p",728,"cv","O",7,"v","v",TRUE,1,-0.544386498266423
"CVOE_B",1014,1,2,38,"P 42","","",FALSE,"CV","q",970,"cv","P",2,"c","c",TRUE,1,-0.425809050931482
"CVOE_B",1014,1,2,39,"H 22","","",FALSE,"CV","q",734,"cv","H",2,"c","c",TRUE,1,-0.54144656155564
"CVOE_B",1014,1,2,40,"E 42","","",TRUE,"CV","p",767,"cv","E",2,"v","v",TRUE,1,-0.525276909646329
"CVOE_B",1014,1,2,41,"J 28","","",FALSE,"CV","q",861,"cv","J",8,"c","c",TRUE,1,-0.479217901177385
"CVOE_B",1014,1,2,42,"E 95","","",FALSE,"CV","p",828,"cv","E",5,"v","v",TRUE,1,-0.495387553086695
"CVOE_B",1014,1,2,43,"S 63","","",TRUE,"CV","q",1118,"cv","S",3,"c","c",TRUE,1,-0.353290612065484
"CVOE_B",1014,1,2,44,"H 50","","",FALSE,"CV","q",910,"cv","H",0,"c","c",TRUE,1,-0.455208418039318
"CVOE_B",1014,1,2,45,"S 33","","",TRUE,"CV","q",639,"cv","S",3,"c","c",TRUE,1,-0.587995559476381
"CVOE_B",1014,1,2,46,"P 57","","",TRUE,"CV","q",1040,"cv","P",7,"c","c",TRUE,1,-0.391509789305672
"CVOE_B",1014,1,2,47,"E 23","","",FALSE,"CV","p",832,"cv","E",3,"v","v",TRUE,1,-0.493427595279506
"CVOE_B",1014,1,2,48,"S 61","","",TRUE,"CV","q",750,"cv","S",1,"c","c",TRUE,1,-0.533606730326883
"CVOE_B",1014,1,2,49,"U 67","","",FALSE,"CV","p",721,"cv","U",7,"v","v",TRUE,1,-0.547816424429004
"CVOE_B",1014,1,2,50,"H 32","","",FALSE,"CV","q",696,"cv","H",2,"c","c",TRUE,1,-0.560066160723936
"CVOE_B",1014,1,2,51,"U 50","","",TRUE,"CV","p",1094,"cv","U",0,"v","v",TRUE,1,-0.365050358908619
"CVOE_B",1014,1,2,52,"O 49","","",FALSE,"CV","p",804,"cv","O",9,"v","v",TRUE,1,-0.50714729992983
"CVOE_B",1014,1,2,53,"U 32","","",TRUE,"CV","p",697,"cv","U",2,"v","v",TRUE,1,-0.559576171272139
"CVOE_B",1014,1,2,54,"J 78","","",FALSE,"CV","q",697,"cv","J",8,"c","c",TRUE,1,-0.559576171272139
"CVOE_B",1014,1,2,55,"S 54","","",FALSE,"CV","q",803,"cv","S",4,"c","c",TRUE,1,-0.507637289381627
"CVOE_B",1014,1,2,56,"J 27","","",TRUE,"CV","q",1606,"cv","J",7,"c","c",TRUE,1,-0.114175759588411
"CVOE_B",1014,1,2,57,"S 06","","",FALSE,"CV","q",661,"cv","S",6,"c","c",TRUE,1,-0.577215791536841
"CVOE_B",1014,1,2,58,"D 67","","",TRUE,"CV","q",857,"cv","D",7,"c","c",TRUE,1,-0.481177858984574
"CVOE_B",1014,1,2,59,"A 79","","",FALSE,"CV","p",798,"cv","A",9,"v","v",TRUE,1,-0.510087236640614
"CVOE_B",1014,1,2,60,"S 52","","",FALSE,"CV","q",772,"cv","S",2,"c","c",TRUE,1,-0.522826962387343
"CVOE_B",1014,1,2,61,"U 16","","",TRUE,"CV","p",829,"cv","U",6,"v","v",TRUE,1,-0.494897563634898
"CVOE_B",1014,1,2,62,"O 82","","",TRUE,"CV","p",738,"cv","O",2,"v","v",TRUE,1,-0.539486603748451
"CVOE_B",1014,1,2,63,"H 87","","",TRUE,"CV","q",711,"cv","H",7,"c","c",TRUE,1,-0.552716318946977
"CVOE_B",1014,1,2,64,"I 32","","",TRUE,"CV","p",751,"cv","I",2,"v","v",TRUE,1,-0.533116740875086
"CVOE_B",1014,1,2,65,"U 37","","",FALSE,"CV","p",1500,"cv","U",7,"v","v",TRUE,1,-0.166114641478923
"CVOE_B",1014,1,2,66,"I 42","","",TRUE,"CV","p",566,"cv","I",2,"v","v",TRUE,1,-0.623764789457583
"CVOE_B",1014,1,2,67,"D 65","","",TRUE,"CV","q",608,"cv","D",5,"c","c",TRUE,1,-0.603185232482097
"CVOE_B",1014,1,2,68,"U 77","","",FALSE,"CV","p",624,"cv","U",7,"v","v",TRUE,1,-0.595345401253341
"CVOE_B",1014,1,2,69,"E 12","","",TRUE,"CV","p",607,"cv","E",2,"v","v",TRUE,1,-0.603675221933894
"CVOE_B",1014,1,2,70,"I 60","","",TRUE,"CV","p",796,"cv","I",0,"v","v",TRUE,1,-0.511067215544208
"CVOE_B",1014,1,2,71,"J 36","","",FALSE,"CV","q",558,"cv","J",6,"c","c",TRUE,1,-0.627684705071961
"CVOE_B",1014,1,2,72,"H 75","","",TRUE,"CV","q",834,"cv","H",5,"c","c",TRUE,1,-0.492447616375912
"CVOE_B",1014,1,2,73,"I 50","","",TRUE,"CV","p",670,"cv","I",0,"v","v",TRUE,1,-0.572805886470666
"CVOE_B",1014,1,2,74,"E 99","","",FALSE,"CV","p",984,"cv","E",9,"v","v",TRUE,1,-0.41894919860632
"CVOE_B",1014,1,2,75,"A 86","","",TRUE,"CV","p",1330,"cv","A",6,"v","v",TRUE,1,-0.24941284828446
"CVOE_B",1014,1,2,76,"U 48","","",TRUE,"CV","p",719,"cv","U",8,"v","v",TRUE,1,-0.548796403332599
"CVOE_B",1014,1,2,77,"E 01","","",FALSE,"CV","p",625,"cv","E",1,"v","v",TRUE,1,-0.594855411801543
"CVOE_B",1014,1,2,78,"A 78","","",TRUE,"CV","p",824,"cv","A",8,"v","v",TRUE,1,-0.497347510893884
"CVOE_B",1014,1,2,79,"P 60","","",FALSE,"CV","q",654,"cv","P",0,"c","c",TRUE,1,-0.580645717699422
"CVOE_B",1014,1,2,80,"E 43","","",FALSE,"CV","p",2018,"cv","E",3,"v","v",TRUE,1,0.0876998945520687
"CVOE_B",1014,1,2,81,"D 69","","",TRUE,"CV","q",545,"cv","D",9,"c","c",TRUE,1,-0.634054567945326
"CVOE_B",1014,1,2,82,"H 11","","",TRUE,"CV","q",772,"cv","H",1,"c","c",TRUE,1,-0.522826962387343
"CVOE_B",1014,1,2,83,"P 43","","",TRUE,"CV","q",765,"cv","P",3,"c","c",TRUE,1,-0.526256888549924
