"ExperimentName","Subject","Group","Block","Trial","STIM","TASK","Switch","Congruent","CVOE","Response","RT","block_type","letter","number","key2","response2","match2","score2","zRT"
"CVOE updated",1001,1,1,11,"A 71","","",FALSE,"CV","p",4811,"cv","A",1,"v","v",TRUE,1,0.886641099316862
"CVOE updated",1001,1,1,12,"I 66","","",TRUE,"CV","p",1960,"cv","I",6,"v","v",TRUE,1,-0.0795358602275538
"CVOE updated",1001,1,1,13,"S 30","","",FALSE,"CV","q",918,"cv","S",0,"c","c",TRUE,1,-0.432659813873742
"CVOE updated",1001,1,1,14,"D 20","","",FALSE,"CV","q",790,"cv","D",0,"c","c",TRUE,1,-0.476037804340836
"CVOE updated",1001,1,1,15,"I 31","","",FALSE,"CV","p",874,"cv","I",1,"v","v",TRUE,1,-0.447570998096805
"CVOE updated",1001,1,1,16,"P 16","","",FALSE,"CV","q",700,"cv","P",6,"c","c",TRUE,1,-0.506537953888011
"CVOE updated",1001,1,1,17,"A 49","","",FALSE,"CV","p",1100,"cv","A",9,"v","v",TRUE,1,-0.370981733678342
"CVOE updated",1001,1,1,18,"O 64","","",TRUE,"CV","p",1100,"cv","O",4,"v","v",TRUE,1,-0.370981733678342
"CVOE updated",1001,1,1,19,"D 02","","",FALSE,"CV","q",892,"cv","D",2,"c","c",TRUE,1,-0.44147096818737
"CVOE updated",1001,1,1,20,"P 81","","",TRUE,"CV","q",1116,"cv","P",1,"c","c",TRUE,1,-0.365559484869955
"CVOE updated",1001,1,1,21,"J 58","","",FALSE,"CV","q",828,"cv","J",8,"c","c",TRUE,1,-0.463159963420917
"CVOE updated",1001,1,1,22,"A 22","","",TRUE,"CV","p",679,"cv","A",2,"v","v",TRUE,1,-0.513654655449019
"CVOE updated",1001,1,1,23,"J 72","","",FALSE,"CV","q",999,"cv","J",2,"c","c",TRUE,1,-0.405209679281284
"CVOE updated",1001,1,1,24,"P 91","","",TRUE,"CV","q",1027,"cv","P",1,"c","c",TRUE,1,-0.395720743866607
"CVOE updated",1001,1,1,25,"E 19","","",FALSE,"CV","p",622,"cv","E",9,"v","v",TRUE,1,-0.532971416828897
"CVOE updated",1001,1,1,26,"I 30","","",TRUE,"CV","p",618,"cv","I",0,"v","v",TRUE,1,-0.534326979030993
"CVOE updated",1001,1,1,27,"D 91","","",TRUE,"CV","q",717,"cv","D",1,"c","c",TRUE,1,-0.5007768145291
"CVOE updated",1001,1,1,28,"O 48","","",TRUE,"CV","p",636,"cv","O",8,"v","v",TRUE,1,-0.528226949121558
"CVOE updated",1001,1,1,29,"A 89","","",FALSE,"CV","p",1127,"cv","A",9,"v","v",TRUE,1,-0.36183168881419
"CVOE updated",1001,1,1,30,"U 11","","",FALSE,"CV","p",886,"cv","U",1,"v","v",TRUE,1,-0.443504311490515
"CVOE updated",1001,1,1,31,"I 76","","",TRUE,"CV","p",726,"cv","I",6,"v","v",TRUE,1,-0.497726799574383
"CVOE updated",1001,1,1,32,"U 89","","",FALSE,"CV","p",669,"cv","U",9,"v","v",TRUE,1,-0.517043560954261
"CVOE updated",1001,1,1,33,"D 63","","",TRUE,"CV","q",758,"cv","D",3,"c","c",TRUE,1,-0.486882301957609
"CVOE updated",1001,1,1,34,"H 70","","",FALSE,"CV","q",1052,"cv","H",0,"c","c",TRUE,1,-0.387248480103502
"CVOE updated",1001,1,1,35,"D 48","","",FALSE,"CV","q",591,"cv","D",8,"c","c",TRUE,1,-0.543477023895146
"CVOE updated",1001,1,1,36,"P 56","","",FALSE,"CV","q",635,"cv","P",6,"c","c",TRUE,1,-0.528565839672082
"CVOE updated",1001,1,1,37,"O 77","","",FALSE,"CV","p",645,"cv","O",7,"v","v",TRUE,1,-0.525176934166841
"CVOE updated",1001,1,1,38,"P 42","","",FALSE,"CV","q",776,"cv","P",2,"c","c",TRUE,1,-0.480782272048174
"CVOE updated",1001,1,1,39,"H 22","","",FALSE,"CV","q",668,"cv","H",2,"c","c",TRUE,1,-0.517382451504785
"CVOE updated",1001,1,1,40,"E 42","","",TRUE,"CV","p",574,"cv","E",2,"v","v",TRUE,1,-0.549238163254057
"CVOE updated",1001,1,1,41,"J 28","","",FALSE,"CV","q",690,"cv","J",8,"c","c",TRUE,1,-0.509926859393253
"CVOE updated",1001,1,1,42,"E 95","","",FALSE,"CV","p",787,"cv","E",5,"v","v",TRUE,1,-0.477054475992408
"CVOE updated",1001,1,1,43,"S 63","","",TRUE,"CV","q",1031,"cv","S",3,"c","c",TRUE,1,-0.39436518166451
"CVOE updated",1001,1,1,44,"H 50","","",FALSE,"CV","q",602,"cv","H",0,"c","c",TRUE,1,-0.53974922783938
"CVOE updated",1001,1,1,45,"S 33","","",TRUE,"CV","q",646,"cv","S",3,"c","c",TRUE,1,-0.524838043616316
"CVOE updated",1001,1,1,46,"P 57","","",TRUE,"CV","q",632,"cv","P",7,"c","c",TRUE,1,-0.529582511323655
"CVOE updated",1001,1,1,47,"E 23","","",FALSE,"CV","p",699,"cv","E",3,"v","v",TRUE,1,-0.506876844438535
"CVOE updated",1001,1,1,48,"S 61","","",TRUE,"CV","q",763,"cv","S",1,"c","c",TRUE,1,-0.485187849204988
"CVOE updated",1001,1,1,49,"U 67","","",FALSE,"CV","p",560,"cv","U",7,"v","v",TRUE,1,-0.553982630961395
"CVOE updated",1001,1,1,50,"H 32","","",FALSE,"CV","q",685,"cv","H",2,"c","c",TRUE,1,-0.511621312145874
"CVOE updated",1001,1,1,51,"U 50","","",TRUE,"CV","p",502,"cv","U",0,"v","v",TRUE,1,-0.573638282891797
"CVOE updated",1001,1,1,52,"O 49","","",FALSE,"CV","p",630,"cv","O",9,"v","v",TRUE,1,-0.530260292424703
"CVOE updated",1001,1,1,53,"U 32","","",TRUE,"CV","p",609,"cv","U",2,"v","v",TRUE,1,-0.537376993985711
"CVOE updated",1001,1,1,54,"J 78","","",FALSE,"CV","q",716,"cv","J",8,"c","c",TRUE,1,-0.501115705079624
"CVOE updated",1001,1,1,55,"S 54","","",FALSE,"CV","q",635,"cv","S",4,"c","c",TRUE,1,-0.528565839672082
"CVOE updated",1001,1,1,56,"J 27","","",TRUE,"CV","q",566,"cv","J",7,"c","c",TRUE,1,-0.55194928765825
"CVOE updated",1001,1,1,57,"S 06","","",FALSE,"CV","q",635,"cv","S",6,"c","c",TRUE,1,-0.528565839672082
"CVOE updated",1001,1,1,58,"D 67","","",TRUE,"CV","q",766,"cv","D",7,"c","c",TRUE,1,-0.484171177553416
"CVOE updated",1001,1,1,59,"A 79","","",FALSE,"CV","p",771,"cv","A",9,"v","v",TRUE,1,-0.482476724800795
"CVOE updated",1001,1,1,60,"S 52","","",FALSE,"CV","q",768,"cv","S",2,"c","c",TRUE,1,-0.483493396452367
"CVOE updated",1001,1,1,61,"U 16","","",TRUE,"CV","p",702,"cv","U",6,"v","v",TRUE,1,-0.505860172786963
"CVOE updated",1001,1,1,62,"O 82","","",TRUE,"CV","p",590,"cv","O",2,"v","v",TRUE,1,-0.54381591444567
"CVOE updated",1001,1,1,63,"H 87","","",TRUE,"CV","q",722,"cv","H",7,"c","c",TRUE,1,-0.499082361776479
"CVOE updated",1001,1,1,64,"I 32","","",TRUE,"CV","p",1330,"cv","I",2,"v","v",TRUE,1,-0.293036907057782
"CVOE updated",1001,1,1,65,"U 37","","",FALSE,"CV","p",833,"cv","U",7,"v","v",TRUE,1,-0.461465510668296
"CVOE updated",1001,1,1,66,"I 42","","",TRUE,"CV","p",620,"cv","I",2,"v","v",TRUE,1,-0.533649197929945
"CVOE updated",1001,1,1,67,"D 65","","",TRUE,"CV","q",679,"cv","D",5,"c","c",TRUE,1,-0.513654655449019
"CVOE updated",1001,1,1,68,"U 77","","",FALSE,"CV","p",743,"cv","U",7,"v","v",TRUE,1,-0.491965660215472
"CVOE updated",1001,1,1,69,"E 12","","",TRUE,"CV","p",1326,"cv","E",2,"v","v",TRUE,1,-0.294392469259879
"CVOE updated",1001,1,1,70,"I 60","","",TRUE,"CV","p",565,"cv","I",0,"v","v",TRUE,1,-0.552288178208775
"CVOE updated",1001,1,1,71,"J 36","","",FALSE,"CV","q",698,"cv","J",6,"c","c",TRUE,1,-0.50721573498906
"CVOE updated",1001,1,1,72,"H 75","","",TRUE,"CV","q",778,"cv","H",5,"c","c",TRUE,1,-0.480104490947126
"CVOE updated",1001,1,1,73,"I 50","","",TRUE,"CV","p",742,"cv","I",0,"v","v",TRUE,1,-0.492304550765996
"CVOE updated",1001,1,1,74,"E 99","","",FALSE,"CV","p",725,"cv","E",9,"v","v",TRUE,1,-0.498065690124907
"CVOE updated",1001,1,1,75,"A 86","","",TRUE,"CV","p",1019,"cv","A",6,"v","v",TRUE,1,-0.3984318682708
"CVOE updated",1001,1,1,76,"U 48","","",TRUE,"CV","p",631,"cv","U",8,"v","v",TRUE,1,-0.529921401874179
"CVOE updated",1001,1,1,77,"E 01","","",FALSE,"CV","p",649,"cv","E",1,"v","v",TRUE,1,-0.523821371964744
"CVOE updated",1001,1,1,78,"A 78","","",TRUE,"CV","p",699,"cv","A",8,"v","v",TRUE,1,-0.506876844438535
"CVOE updated",1001,1,1,79,"P 60","","",FALSE,"CV","q",803,"cv","P",0,"c","c",TRUE,1,-0.471632227184021
"CVOE updated",1001,1,1,80,"E 43","","",FALSE,"CV","p",975,"cv","E",3,"v","v",TRUE,1,-0.413343052493864
"CVOE updated",1001,1,1,81,"D 69","","",TRUE,"CV","q",924,"cv","D",9,"c","c",TRUE,1,-0.430626470570597
"CVOE updated",1001,1,1,82,"H 11","","",TRUE,"CV","q",612,"cv","H",1,"c","c",TRUE,1,-0.536360322334138
"CVOE updated",1001,1,1,83,"P 43","","",TRUE,"CV","q",543,"cv","P",3,"c","c",TRUE,1,-0.559743770320306
"CVOE updated",1001,1,1,84,"O 67","","",FALSE,"CV","p",613,"cv","O",7,"v","v",TRUE,1,-0.536021431783614
"CVOE updated",1001,1,1,85,"S 91","","",FALSE,"CV","q",728,"cv","S",1,"c","c",TRUE,1,-0.497049018473334
"CVOE updated",1001,1,1,86,"J 68","","",TRUE,"CV","q",671,"cv","J",8,"c","c",TRUE,1,-0.516365779853212
"CVOE updated",1001,1,1,87,"S 47","","",FALSE,"CV","q",624,"cv","S",7,"c","c",TRUE,1,-0.532293635727848
"CVOE updated",1001,1,1,88,"I 81","","",TRUE,"CV","p",659,"cv","I",1,"v","v",TRUE,1,-0.520432466459502
"CVOE updated",1001,1,1,89,"J 39","","",FALSE,"CV","q",805,"cv","J",9,"c","c",TRUE,1,-0.470954446082973
"CVOE updated",1001,1,1,90,"A 11","","",TRUE,"CV","p",793,"cv","A",1,"v","v",TRUE,1,-0.475021132689263
"CVOE updated",1001,1,1,91,"O 76","","",FALSE,"CV","p",541,"cv","O",6,"v","v",TRUE,1,-0.560421551421355
"CVOE updated",1001,1,1,92,"A 62","","",FALSE,"CV","p",547,"cv","A",2,"v","v",TRUE,1,-0.55838820811821
"CVOE updated",1001,1,1,93,"O 27","","",TRUE,"CV","p",545,"cv","O",7,"v","v",TRUE,1,-0.559065989219258
"CVOE updated",1001,1,1,94,"E 66","","",FALSE,"CV","p",607,"cv","E",6,"v","v",TRUE,1,-0.538054775086759
"CVOE updated",1001,1,1,95,"J 62","","",TRUE,"CV","q",531,"cv","J",2,"c","c",TRUE,1,-0.563810456926596
"CVOE updated",1001,1,1,96,"H 72","","",TRUE,"CV","q",546,"cv","H",2,"c","c",TRUE,1,-0.558727098668734
"CVOE updated",1001,1,1,97,"E 49","","",TRUE,"CV","p",680,"cv","E",9,"v","v",TRUE,1,-0.513315764898495
"CVOE updated",1001,1,1,98,"D 52","","",TRUE,"CV","q",800,"cv","D",2,"c","c",TRUE,1,-0.472648898835594
"CVOE updated",1001,1,1,99,"H 62","","",TRUE,"CV","q",516,"cv","H",2,"c","c",TRUE,1,-0.568893815184459
"CVOE updated",1001,1,1,100,"I 11","","",TRUE,"CV","p",660,"cv","I",1,"v","v",TRUE,1,-0.520093575908978
"CVOE updated",1001,1,1,101,"A 98","","",FALSE,"CV","p",1221,"cv","A",8,"v","v",TRUE,1,-0.329975977064917
"CVOE updated",1001,1,1,102,"H 29","","",FALSE,"CV","q",776,"cv","H",9,"c","c",TRUE,1,-0.480782272048174
"CVOE updated",1001,1,1,103,"E 83","","",TRUE,"CV","p",773,"cv","E",3,"v","v",TRUE,1,-0.481798943699747
"CVOE updated",1001,1,1,104,"D 43","","",FALSE,"CV","q",627,"cv","D",3,"c","c",TRUE,1,-0.531276964076276
"CVOE updated",1001,1,1,105,"P 45","","",TRUE,"CV","q",1253,"cv","P",5,"c","c",TRUE,1,-0.319131479448144
"CVOE updated",1001,1,1,106,"J 17","","",TRUE,"CV","q",1015,"cv","J",7,"c","c",TRUE,1,-0.399787430472897
"CVOE_C",2003,1,2,13,"S 30","","",FALSE,"CV","q",8787,"cv","S",0,"c","c",TRUE,1,2.23406992820097
"CVOE_C",2003,1,2,14,"D 20","","",FALSE,"CV","q",6059,"cv","D",0,"c","c",TRUE,1,1.30957650637103
"CVOE_C",2003,1,2,15,"I 31","","",FALSE,"CV","p",7456,"cv","I",1,"v","v",TRUE,1,1.7830066054533
"CVOE_C",2003,1,2,16,"P 16","","",FALSE,"CV","q",3365,"cv","P",6,"c","c",TRUE,1,0.396605363258909
"CVOE_C",2003,1,2,17,"A 49","","",FALSE,"CV","p",4379,"cv","A",9,"v","v",TRUE,1,0.74024038149042
"CVOE_C",2003,1,2,19,"D 02","","",FALSE,"CV","q",4660,"cv","D",2,"c","c",TRUE,1,0.835468626187712
"CVOE_C",2003,1,2,20,"P 81","","",TRUE,"CV","q",7495,"cv","P",1,"c","c",TRUE,1,1.79622333692374
"CVOE_C",2003,1,2,21,"J 58","","",FALSE,"CV","q",1930,"cv","J",8,"c","c",TRUE,1,-0.089702576743279
"CVOE_C",2003,1,2,22,"A 22","","",TRUE,"CV","p",1737,"cv","A",2,"v","v",TRUE,1,-0.155108452994444
"CVOE_C",2003,1,2,23,"J 72","","",FALSE,"CV","q",1793,"cv","J",2,"c","c",TRUE,1,-0.136130582165091
"CVOE_C",2003,1,2,24,"P 91","","",TRUE,"CV","q",1853,"cv","P",1,"c","c",TRUE,1,-0.11579714913364
"CVOE_C",2003,1,2,25,"E 19","","",FALSE,"CV","p",4512,"cv","E",9,"v","v",TRUE,1,0.785312824710135
"CVOE_C",2003,1,2,26,"I 30","","",TRUE,"CV","p",9577,"cv","I",0,"v","v",TRUE,1,2.50179346311507
"CVOE_C",2003,1,2,27,"D 91","","",TRUE,"CV","q",1259,"cv","D",1,"c","c",TRUE,1,-0.317098136144999
"CVOE_C",2003,1,2,28,"O 48","","",TRUE,"CV","p",3972,"cv","O",8,"v","v",TRUE,1,0.602311927427081
"CVOE_C",2003,1,2,29,"A 89","","",FALSE,"CV","p",1315,"cv","A",9,"v","v",TRUE,1,-0.298120265315645
"CVOE_C",2003,1,2,30,"U 11","","",FALSE,"CV","p",2275,"cv","U",1,"v","v",TRUE,1,0.0272146631875606
"CVOE_C",2003,1,2,31,"I 76","","",TRUE,"CV","p",6389,"cv","I",6,"v","v",TRUE,1,1.42141038804401
"CVOE_C",2003,1,2,32,"U 89","","",FALSE,"CV","q",2796,"cv","U",9,"v","c",FALSE,0,0.203776640010654
"CVOE_C",2003,1,2,33,"D 63","","",TRUE,"CV","q",2449,"cv","D",3,"c","c",TRUE,1,0.0861816189787666
"CVOE_C",2003,1,2,34,"H 70","","",FALSE,"CV","q",1572,"cv","H",0,"c","c",TRUE,1,-0.211025393830933
"CVOE_C",2003,1,2,35,"D 48","","",FALSE,"CV","q",1426,"cv","D",8,"c","c",TRUE,1,-0.260503414207462
"CVOE_C",2003,1,2,36,"P 56","","",FALSE,"CV","q",2693,"cv","P",6,"c","c",TRUE,1,0.168870913306665
"CVOE_C",2003,1,2,37,"O 77","","",FALSE,"CV","p",2982,"cv","O",7,"v","v",TRUE,1,0.266810282408151
"CVOE_C",2003,1,2,38,"P 42","","",FALSE,"CV","q",1972,"cv","P",2,"c","c",TRUE,1,-0.0754691736212637
"CVOE_C",2003,1,2,40,"E 42","","",TRUE,"CV","p",2898,"cv","E",2,"v","v",TRUE,1,0.23834347616412
"CVOE_C",2003,1,2,41,"J 28","","",FALSE,"CV","q",3203,"cv","J",8,"c","c",TRUE,1,0.341705094073993
"CVOE_C",2003,1,2,42,"E 95","","",FALSE,"CV","p",4152,"cv","E",5,"v","v",TRUE,1,0.663312226521432
"CVOE_C",2003,1,2,43,"S 63","","",TRUE,"CV","q",1904,"cv","S",3,"c","c",TRUE,1,-0.0985137310569074
"CVOE_C",2003,1,2,44,"H 50","","",FALSE,"CV","q",1361,"cv","H",0,"c","c",TRUE,1,-0.282531299991533
"CVOE_C",2003,1,2,45,"S 33","","",TRUE,"CV","q",1086,"cv","S",3,"c","c",TRUE,1,-0.375726201385681
"CVOE_C",2003,1,2,46,"P 57","","",TRUE,"CV","q",1287,"cv","P",7,"c","c",TRUE,1,-0.307609200730322
"CVOE_C",2003,1,2,47,"E 23","","",FALSE,"CV","p",2384,"cv","E",3,"v","v",TRUE,1,0.0641537331946954
"CVOE_C",2003,1,2,48,"S 61","","",TRUE,"CV","q",2086,"cv","S",1,"c","c",TRUE,1,-0.036835650861508
"CVOE_C",2003,1,2,49,"U 67","","",FALSE,"CV","p",2423,"cv","U",7,"v","v",TRUE,1,0.0773704646651381
"CVOE_C",2003,1,2,50,"H 32","","",FALSE,"CV","q",2699,"cv","H",2,"c","c",TRUE,1,0.17090425660981
"CVOE_C",2003,1,2,51,"U 50","","",TRUE,"CV","q",1813,"cv","U",0,"v","c",FALSE,0,-0.129352771154607
"CVOE_C",2003,1,2,52,"O 49","","",FALSE,"CV","p",5305,"cv","O",9,"v","v",TRUE,1,1.0540530312758
"CVOE_C",2003,1,2,53,"U 32","","",TRUE,"CV","p",10707,"cv","U",2,"v","v",TRUE,1,2.88473978520738
"CVOE_C",2003,1,2,54,"J 78","","",FALSE,"CV","q",1864,"cv","J",8,"c","c",TRUE,1,-0.112069353077874
"CVOE_C",2003,1,2,55,"S 54","","",FALSE,"CV","q",1978,"cv","S",4,"c","c",TRUE,1,-0.0734358303181187
"CVOE_C",2003,1,2,56,"J 27","","",TRUE,"CV","q",1615,"cv","J",7,"c","c",TRUE,1,-0.196453100158393
"CVOE_C",2003,1,2,57,"S 06","","",FALSE,"CV","q",1483,"cv","S",6,"c","c",TRUE,1,-0.241186652827584
"CVOE_C",2003,1,2,58,"D 67","","",TRUE,"CV","q",1660,"cv","D",7,"c","c",TRUE,1,-0.181203025384806
"CVOE_C",2003,1,2,59,"A 79","","",FALSE,"CV","p",1798,"cv","A",9,"v","v",TRUE,1,-0.13443612941247
"CVOE_C",2003,1,2,60,"S 52","","",FALSE,"CV","q",1283,"cv","S",2,"c","c",TRUE,1,-0.308964762932419
"CVOE_C",2003,1,2,61,"U 16","","",TRUE,"CV","q",1883,"cv","U",6,"v","c",FALSE,0,-0.105630432617915
"CVOE_C",2003,1,2,62,"O 82","","",TRUE,"CV","p",2933,"cv","O",2,"v","v",TRUE,1,0.250204645432466
"CVOE_C",2003,1,2,63,"H 87","","",TRUE,"CV","q",1741,"cv","H",7,"c","c",TRUE,1,-0.153752890792348
"CVOE_C",2003,1,2,64,"I 32","","",TRUE,"CV","p",7972,"cv","I",2,"v","v",TRUE,1,1.95787412952377
"CVOE_C",2003,1,2,65,"U 37","","",FALSE,"CV","q",2141,"cv","U",7,"v","c",FALSE,0,-0.0181966705826785
"CVOE_C",2003,1,2,66,"I 42","","",TRUE,"CV","p",2524,"cv","I",2,"v","v",TRUE,1,0.11159841026808
"CVOE_C",2003,1,2,67,"D 65","","",TRUE,"CV","q",3244,"cv","D",5,"c","c",TRUE,1,0.355599606645484
"CVOE_C",2003,1,2,68,"U 77","","",FALSE,"CV","p",2288,"cv","U",7,"v","v",TRUE,1,0.0316202403443748
"CVOE_C",2003,1,2,70,"I 60","","",TRUE,"CV","p",7080,"cv","I",0,"v","v",TRUE,1,1.65558375845621
"CVOE_C",2003,1,2,71,"J 36","","",FALSE,"CV","q",2132,"cv","J",6,"c","c",TRUE,1,-0.0212466855373961
"CVOE_C",2003,1,2,72,"H 75","","",TRUE,"CV","q",1979,"cv","H",5,"c","c",TRUE,1,-0.0730969397675945
"CVOE_C",2003,1,2,73,"I 50","","",TRUE,"CV","p",2232,"cv","I",0,"v","v",TRUE,1,0.0126423695150212
"CVOE_C",2003,1,2,74,"E 99","","",FALSE,"CV","p",6068,"cv","E",9,"v","v",TRUE,1,1.31262652132575
"CVOE_C",2003,1,2,75,"A 86","","",TRUE,"CV","p",2272,"cv","A",6,"v","v",TRUE,1,0.0261979915359881
"CVOE_C",2003,1,2,76,"U 48","","",TRUE,"CV","p",3234,"cv","U",8,"v","v",TRUE,1,0.352210701140242
"CVOE_C",2003,1,2,77,"E 01","","",FALSE,"CV","p",6230,"cv","E",1,"v","v",TRUE,1,1.36752679051066
"CVOE_C",2003,1,2,78,"A 78","","",TRUE,"CV","p",2644,"cv","A",8,"v","v",TRUE,1,0.15226527633098
"CVOE_C",2003,1,2,79,"P 60","","",FALSE,"CV","q",4191,"cv","P",0,"c","c",TRUE,1,0.676528957991875
"CVOE_C",2003,1,2,80,"E 43","","",FALSE,"CV","p",4877,"cv","E",3,"v","v",TRUE,1,0.909007875651458
"CVOE_C",2003,1,2,81,"D 69","","",TRUE,"CV","q",3680,"cv","D",9,"c","c",TRUE,1,0.503355886674023
"CVOE_C",2003,1,2,82,"H 11","","",TRUE,"CV","q",1386,"cv","H",1,"c","c",TRUE,1,-0.274059036228429
"CVOE_C",2003,1,2,83,"P 43","","",TRUE,"CV","q",1351,"cv","P",3,"c","c",TRUE,1,-0.285920205496775
"CVOE_C",2003,1,2,84,"O 67","","",FALSE,"CV","p",3565,"cv","O",7,"v","v",TRUE,1,0.464383473363743
"CVOE_C",2003,1,2,85,"S 91","","",FALSE,"CV","q",1756,"cv","S",1,"c","c",TRUE,1,-0.148669532534485
"CVOE_C",2003,1,2,86,"J 68","","",TRUE,"CV","q",1259,"cv","J",8,"c","c",TRUE,1,-0.317098136144999
"CVOE_C",2003,1,2,87,"S 47","","",FALSE,"CV","q",1452,"cv","S",7,"c","c",TRUE,1,-0.251692259893833
"CVOE_C",2003,1,2,88,"I 81","","",TRUE,"CV","p",2511,"cv","I",1,"v","v",TRUE,1,0.107192833111265
"CVOE_C",2003,1,2,89,"J 39","","",FALSE,"CV","q",2263,"cv","J",9,"c","c",TRUE,1,0.0231479765812705
"CVOE_C",2003,1,2,90,"A 11","","",TRUE,"CV","p",3945,"cv","A",1,"v","v",TRUE,1,0.593161882562929
"CVOE_C",2003,1,2,91,"O 76","","",FALSE,"CV","p",3041,"cv","O",6,"v","v",TRUE,1,0.286804824889077
"CVOE_C",2003,1,2,92,"A 62","","",FALSE,"CV","p",4052,"cv","A",2,"v","v",TRUE,1,0.629423171469015
"CVOE_C",2003,1,2,93,"O 27","","",TRUE,"CV","p",5488,"cv","O",7,"v","v",TRUE,1,1.11607000202173
"CVOE_C",2003,1,2,94,"E 66","","",FALSE,"CV","p",4084,"cv","E",6,"v","v",TRUE,1,0.640267669085789
"CVOE_C",2003,1,2,95,"J 62","","",TRUE,"CV","q",1814,"cv","J",2,"c","c",TRUE,1,-0.129013880604083
"CVOE_C",2003,1,2,96,"H 72","","",TRUE,"CV","q",1730,"cv","H",2,"c","c",TRUE,1,-0.157480686848113
"CVOE_C",2003,1,2,97,"E 49","","",TRUE,"CV","p",2281,"cv","E",9,"v","v",TRUE,1,0.0292480064907056
"CVOE_C",2003,1,2,98,"D 52","","",TRUE,"CV","q",1955,"cv","D",2,"c","c",TRUE,1,-0.0812303129801746
"CVOE_C",2003,1,2,99,"H 62","","",TRUE,"CV","q",1697,"cv","H",2,"c","c",TRUE,1,-0.168664075015411
"CVOE_C",2003,1,2,100,"I 11","","",TRUE,"CV","p",2418,"cv","I",1,"v","v",TRUE,1,0.0756760119125172
"CVOE_C",2003,1,2,101,"A 98","","",FALSE,"CV","p",2798,"cv","A",8,"v","v",TRUE,1,0.204454421111703
"CVOE_C",2003,1,2,102,"H 29","","",FALSE,"CV","q",4971,"cv","H",9,"c","c",TRUE,1,0.94086358740073
"CVOE_C",2003,1,2,103,"E 83","","",TRUE,"CV","p",3643,"cv","E",3,"v","v",TRUE,1,0.490816936304629
"CVOE_C",2003,1,2,104,"D 43","","",FALSE,"CV","q",2207,"cv","D",3,"c","c",TRUE,1,0.00417010575191684
"CVOE_C",2003,1,2,105,"P 45","","",TRUE,"CV","q",1323,"cv","P",5,"c","c",TRUE,1,-0.295409140911452
"CVOE_C",2003,1,2,106,"J 17","","",TRUE,"CV","q",1619,"cv","J",7,"c","c",TRUE,1,-0.195097537956297
"CVOE updated",2001,1,1,11,"A 71","","",FALSE,"CV","p",4796,"cv","A",1,"v","v",TRUE,1,0.881557741059
"CVOE updated",2001,1,1,12,"I 66","","",TRUE,"CV","p",1007,"cv","I",6,"v","v",TRUE,1,-0.40249855487709
"CVOE updated",2001,1,1,13,"S 30","","",FALSE,"CV","q",1346,"cv","S",0,"c","c",TRUE,1,-0.287614658249396
"CVOE updated",2001,1,1,14,"D 20","","",FALSE,"CV","q",1432,"cv","D",0,"c","c",TRUE,1,-0.258470070904317
"CVOE updated",2001,1,1,15,"I 31","","",FALSE,"CV","p",1395,"cv","I",1,"v","v",TRUE,1,-0.271009021273711
"CVOE updated",2001,1,1,16,"P 16","","",FALSE,"CV","q",1118,"cv","P",6,"c","c",TRUE,1,-0.364881703768907
"CVOE updated",2001,1,1,17,"A 49","","",FALSE,"CV","p",1321,"cv","A",9,"v","v",TRUE,1,-0.2960869220125
"CVOE updated",2001,1,1,18,"O 64","","",TRUE,"CV","p",1105,"cv","O",4,"v","v",TRUE,1,-0.369287280925721
"CVOE updated",2001,1,1,19,"D 02","","",FALSE,"CV","q",932,"cv","D",2,"c","c",TRUE,1,-0.427915346166403
"CVOE updated",2001,1,1,20,"P 81","","",TRUE,"CV","q",1202,"cv","P",1,"c","c",TRUE,1,-0.336414897524877
"CVOE updated",2001,1,1,21,"J 58","","",FALSE,"CV","q",1125,"cv","J",8,"c","c",TRUE,1,-0.362509469915238
"CVOE updated",2001,1,1,22,"A 22","","",TRUE,"CV","p",1484,"cv","A",2,"v","v",TRUE,1,-0.24084776227706
"CVOE updated",2001,1,1,23,"J 72","","",FALSE,"CV","q",2416,"cv","J",2,"c","c",TRUE,1,0.0749982308114689
"CVOE updated",2001,1,1,24,"P 91","","",TRUE,"CV","q",1316,"cv","P",1,"c","c",TRUE,1,-0.297781374765121
"CVOE updated",2001,1,1,25,"E 19","","",FALSE,"CV","p",1122,"cv","E",9,"v","v",TRUE,1,-0.36352614156681
"CVOE updated",2001,1,1,26,"I 30","","",TRUE,"CV","p",1207,"cv","I",0,"v","v",TRUE,1,-0.334720444772256
"CVOE updated",2001,1,1,27,"D 91","","",TRUE,"CV","q",974,"cv","D",1,"c","c",TRUE,1,-0.413681943044388
"CVOE updated",2001,1,1,28,"O 48","","",TRUE,"CV","p",1406,"cv","O",8,"v","v",TRUE,1,-0.267281225217945
"CVOE updated",2001,1,1,29,"A 89","","",FALSE,"CV","p",1363,"cv","A",9,"v","v",TRUE,1,-0.281853518890485
"CVOE updated",2001,1,1,30,"U 11","","",FALSE,"CV","p",1158,"cv","U",1,"v","v",TRUE,1,-0.35132608174794
"CVOE updated",2001,1,1,31,"I 76","","",TRUE,"CV","p",1014,"cv","I",6,"v","v",TRUE,1,-0.400126321023421
"CVOE updated",2001,1,1,32,"U 89","","",FALSE,"CV","p",768,"cv","U",9,"v","v",TRUE,1,-0.483493396452367
"CVOE updated",2001,1,1,33,"D 63","","",TRUE,"CV","q",948,"cv","D",3,"c","c",TRUE,1,-0.422493097358016
"CVOE updated",2001,1,1,34,"H 70","","",FALSE,"CV","q",967,"cv","H",0,"c","c",TRUE,1,-0.416054176898057
"CVOE updated",2001,1,1,35,"D 48","","",FALSE,"CV","q",1163,"cv","D",8,"c","c",TRUE,1,-0.349631628995319
"CVOE updated",2001,1,1,36,"P 56","","",FALSE,"CV","q",1590,"cv","P",6,"c","c",TRUE,1,-0.204925363921498
"CVOE updated",2001,1,1,37,"O 77","","",FALSE,"CV","p",972,"cv","O",7,"v","v",TRUE,1,-0.414359724145436
"CVOE updated",2001,1,1,38,"P 42","","",FALSE,"CV","q",1130,"cv","P",2,"c","c",TRUE,1,-0.360815017162617
"CVOE updated",2001,1,1,39,"H 22","","",FALSE,"CV","q",1120,"cv","H",2,"c","c",TRUE,1,-0.364203922667859
"CVOE updated",2001,1,1,40,"E 42","","",TRUE,"CV","p",1126,"cv","E",2,"v","v",TRUE,1,-0.362170579364714
"CVOE updated",2001,1,1,41,"J 28","","",FALSE,"CV","q",1312,"cv","J",8,"c","c",TRUE,1,-0.299136936967218
"CVOE updated",2001,1,1,42,"E 95","","",FALSE,"CV","p",1354,"cv","E",5,"v","v",TRUE,1,-0.284903533845202
"CVOE updated",2001,1,1,43,"S 63","","",TRUE,"CV","q",969,"cv","S",3,"c","c",TRUE,1,-0.415376395797009
"CVOE updated",2001,1,1,44,"H 50","","",FALSE,"CV","q",1009,"cv","H",0,"c","c",TRUE,1,-0.401820773776042
"CVOE updated",2001,1,1,45,"S 33","","",TRUE,"CV","q",1155,"cv","S",3,"c","c",TRUE,1,-0.352342753399513
"CVOE updated",2001,1,1,46,"P 57","","",TRUE,"CV","q",1247,"cv","P",7,"c","c",TRUE,1,-0.321164822751289
"CVOE updated",2001,1,1,47,"E 23","","",FALSE,"CV","p",1002,"cv","E",3,"v","v",TRUE,1,-0.404193007629711
"CVOE updated",2001,1,1,48,"S 61","","",TRUE,"CV","q",929,"cv","S",1,"c","c",TRUE,1,-0.428932017817976
"CVOE updated",2001,1,1,49,"U 67","","",FALSE,"CV","p",1199,"cv","U",7,"v","v",TRUE,1,-0.337431569176449
"CVOE updated",2001,1,1,50,"H 32","","",FALSE,"CV","q",848,"cv","H",2,"c","c",TRUE,1,-0.456382152410434
"CVOE updated",2001,1,1,51,"U 50","","",TRUE,"CV","p",1083,"cv","U",0,"v","v",TRUE,1,-0.376742873037253
"CVOE updated",2001,1,1,52,"O 49","","",FALSE,"CV","p",967,"cv","O",9,"v","v",TRUE,1,-0.416054176898057
"CVOE updated",2001,1,1,53,"U 32","","",TRUE,"CV","p",889,"cv","U",2,"v","v",TRUE,1,-0.442487639838943
"CVOE updated",2001,1,1,54,"J 78","","",FALSE,"CV","q",1639,"cv","J",8,"c","c",TRUE,1,-0.188319726945813
"CVOE updated",2001,1,1,55,"S 54","","",FALSE,"CV","p",1284,"cv","S",4,"c","v",FALSE,0,-0.308625872381894
"CVOE updated",2001,1,1,56,"J 27","","",TRUE,"CV","q",4611,"cv","J",7,"c","c",TRUE,1,0.818862989212028
"CVOE updated",2001,1,1,57,"S 06","","",FALSE,"CV","q",1201,"cv","S",6,"c","c",TRUE,1,-0.336753788075401
"CVOE updated",2001,1,1,58,"D 67","","",TRUE,"CV","q",969,"cv","D",7,"c","c",TRUE,1,-0.415376395797009
"CVOE updated",2001,1,1,59,"A 79","","",FALSE,"CV","p",1087,"cv","A",9,"v","v",TRUE,1,-0.375387310835156
"CVOE updated",2001,1,1,60,"S 52","","",FALSE,"CV","q",853,"cv","S",2,"c","c",TRUE,1,-0.454687699657813
"CVOE updated",2001,1,1,61,"U 16","","",TRUE,"CV","p",1009,"cv","U",6,"v","v",TRUE,1,-0.401820773776042
"CVOE updated",2001,1,1,62,"O 82","","",TRUE,"CV","p",898,"cv","O",2,"v","v",TRUE,1,-0.439437624884225
"CVOE updated",2001,1,1,63,"H 87","","",TRUE,"CV","q",809,"cv","H",7,"c","c",TRUE,1,-0.469598883880876
"CVOE updated",2001,1,1,64,"I 32","","",TRUE,"CV","p",961,"cv","I",2,"v","v",TRUE,1,-0.418087520201202
"CVOE updated",2001,1,1,65,"U 37","","",FALSE,"CV","p",1157,"cv","U",7,"v","v",TRUE,1,-0.351664972298464
"CVOE updated",2001,1,1,66,"I 42","","",TRUE,"CV","p",895,"cv","I",2,"v","v",TRUE,1,-0.440454296535798
"CVOE updated",2001,1,1,67,"D 65","","",TRUE,"CV","p",1002,"cv","D",5,"c","v",FALSE,0,-0.404193007629711
"CVOE updated",2001,1,1,68,"U 77","","",FALSE,"CV","q",264,"cv","U",7,"v","c",FALSE,0,-0.65429423391655
"CVOE updated",2001,1,1,69,"E 12","","",TRUE,"CV","q",1358,"cv","E",2,"v","c",FALSE,0,-0.283547971643106
"CVOE updated",2001,1,1,70,"I 60","","",TRUE,"CV","p",1601,"cv","I",0,"v","v",TRUE,1,-0.201197567865732
"CVOE updated",2001,1,1,71,"J 36","","",FALSE,"CV","p",4726,"cv","J",6,"c","v",FALSE,0,0.857835402522307
"CVOE updated",2001,1,1,72,"H 75","","",TRUE,"CV","q",1122,"cv","H",5,"c","c",TRUE,1,-0.36352614156681
"CVOE updated",2001,1,1,73,"I 50","","",TRUE,"CV","p",1051,"cv","I",0,"v","v",TRUE,1,-0.387587370654027
"CVOE updated",2001,1,1,74,"E 99","","",FALSE,"CV","p",1198,"cv","E",9,"v","v",TRUE,1,-0.337770459726973
"CVOE updated",2001,1,1,75,"A 86","","",TRUE,"CV","p",1160,"cv","A",6,"v","v",TRUE,1,-0.350648300646892
"CVOE updated",2001,1,1,76,"U 48","","",TRUE,"CV","p",921,"cv","U",8,"v","v",TRUE,1,-0.431643142222169
"CVOE updated",2001,1,1,77,"E 01","","",FALSE,"CV","p",1207,"cv","E",1,"v","v",TRUE,1,-0.334720444772256
"CVOE updated",2001,1,1,78,"A 78","","",TRUE,"CV","p",777,"cv","A",8,"v","v",TRUE,1,-0.48044338149765
"CVOE updated",2001,1,1,79,"P 60","","",FALSE,"CV","q",1041,"cv","P",0,"c","c",TRUE,1,-0.390976276159268
"CVOE updated",2001,1,1,80,"E 43","","",FALSE,"CV","p",974,"cv","E",3,"v","v",TRUE,1,-0.413681943044388
"CVOE updated",2001,1,1,81,"D 69","","",TRUE,"CV","q",1036,"cv","D",9,"c","c",TRUE,1,-0.392670728911889
"CVOE updated",2001,1,1,82,"H 11","","",TRUE,"CV","q",1010,"cv","H",1,"c","c",TRUE,1,-0.401481883225518
"CVOE updated",2001,1,1,83,"P 43","","",TRUE,"CV","q",960,"cv","P",3,"c","c",TRUE,1,-0.418426410751726
"CVOE updated",2001,1,1,84,"O 67","","",FALSE,"CV","p",843,"cv","O",7,"v","v",TRUE,1,-0.458076605163055
"CVOE updated",2001,1,1,85,"S 91","","",FALSE,"CV","q",806,"cv","S",1,"c","c",TRUE,1,-0.470615555532449
"CVOE updated",2001,1,1,86,"J 68","","",TRUE,"CV","q",1520,"cv","J",8,"c","c",TRUE,1,-0.22864770245819
"CVOE updated",2001,1,1,87,"S 47","","",FALSE,"CV","q",1008,"cv","S",7,"c","c",TRUE,1,-0.402159664326566
"CVOE updated",2001,1,1,88,"I 81","","",TRUE,"CV","p",998,"cv","I",1,"v","v",TRUE,1,-0.405548569831808
"CVOE updated",2001,1,1,89,"J 39","","",FALSE,"CV","q",1553,"cv","J",9,"c","c",TRUE,1,-0.217464314290892
"CVOE updated",2001,1,1,90,"A 11","","",TRUE,"CV","p",1142,"cv","A",1,"v","v",TRUE,1,-0.356748330556327
"CVOE updated",2001,1,1,91,"O 76","","",FALSE,"CV","p",1076,"cv","O",6,"v","v",TRUE,1,-0.379115106890922
"CVOE updated",2001,1,1,92,"A 62","","",FALSE,"CV","p",999,"cv","A",2,"v","v",TRUE,1,-0.405209679281284
"CVOE updated",2001,1,1,93,"O 27","","",TRUE,"CV","p",809,"cv","O",7,"v","v",TRUE,1,-0.469598883880876
"CVOE updated",2001,1,1,94,"E 66","","",FALSE,"CV","p",1196,"cv","E",6,"v","v",TRUE,1,-0.338448240828022
"CVOE updated",2001,1,1,95,"J 62","","",TRUE,"CV","q",1197,"cv","J",2,"c","c",TRUE,1,-0.338109350277497
"CVOE updated",2001,1,1,96,"H 72","","",TRUE,"CV","q",1238,"cv","H",2,"c","c",TRUE,1,-0.324214837706006
"CVOE updated",2001,1,1,97,"E 49","","",TRUE,"CV","p",932,"cv","E",9,"v","v",TRUE,1,-0.427915346166403
"CVOE updated",2001,1,1,98,"D 52","","",TRUE,"CV","q",887,"cv","D",2,"c","c",TRUE,1,-0.443165420939991
"CVOE updated",2001,1,1,99,"H 62","","",TRUE,"CV","q",1050,"cv","H",2,"c","c",TRUE,1,-0.387926261204551
"CVOE updated",2001,1,1,100,"I 11","","",TRUE,"CV","p",928,"cv","I",1,"v","v",TRUE,1,-0.4292709083685
"CVOE updated",2001,1,1,101,"A 98","","",FALSE,"CV","p",1079,"cv","A",8,"v","v",TRUE,1,-0.37809843523935
"CVOE updated",2001,1,1,102,"H 29","","",FALSE,"CV","q",1119,"cv","H",9,"c","c",TRUE,1,-0.364542813218383
"CVOE updated",2001,1,1,103,"E 83","","",TRUE,"CV","p",1244,"cv","E",3,"v","v",TRUE,1,-0.322181494402861
"CVOE updated",2001,1,1,104,"D 43","","",FALSE,"CV","q",843,"cv","D",3,"c","c",TRUE,1,-0.458076605163055
"CVOE updated",2001,1,1,105,"P 45","","",TRUE,"CV","p",1039,"cv","P",5,"c","v",FALSE,0,-0.391654057260317
"CVOE updated",2001,1,1,106,"J 17","","",TRUE,"CV","q",2383,"cv","J",7,"c","c",TRUE,1,0.0638148426441712
"CVOE_B",1002,1,2,11,"A 71","","",FALSE,"CV","p",4490,"cv","A",1,"v","v",TRUE,1,0.777857232598603
"CVOE_B",1002,1,2,12,"I 66","","",TRUE,"CV","p",1197,"cv","I",6,"v","v",TRUE,1,-0.338109350277497
"CVOE_B",1002,1,2,13,"S 30","","",FALSE,"CV","q",1276,"cv","S",0,"c","c",TRUE,1,-0.311336996786088
"CVOE_B",1002,1,2,14,"D 20","","",FALSE,"CV","q",1076,"cv","D",0,"c","c",TRUE,1,-0.379115106890922
"CVOE_B",1002,1,2,15,"I 31","","",FALSE,"CV","p",921,"cv","I",1,"v","v",TRUE,1,-0.431643142222169
"CVOE_B",1002,1,2,16,"P 16","","",FALSE,"CV","q",931,"cv","P",6,"c","c",TRUE,1,-0.428254236716927
"CVOE_B",1002,1,2,17,"A 49","","",FALSE,"CV","p",886,"cv","A",9,"v","v",TRUE,1,-0.443504311490515
"CVOE_B",1002,1,2,18,"O 64","","",TRUE,"CV","p",734,"cv","O",4,"v","v",TRUE,1,-0.495015675170189
"CVOE_B",1002,1,2,19,"D 02","","",FALSE,"CV","q",812,"cv","D",2,"c","c",TRUE,1,-0.468582212229304
"CVOE_B",1002,1,2,20,"P 81","","",TRUE,"CV","q",1079,"cv","P",1,"c","c",TRUE,1,-0.37809843523935
"CVOE_B",1002,1,2,21,"J 58","","",FALSE,"CV","q",1119,"cv","J",8,"c","c",TRUE,1,-0.364542813218383
"CVOE_B",1002,1,2,22,"A 22","","",TRUE,"CV","p",928,"cv","A",2,"v","v",TRUE,1,-0.4292709083685
"CVOE_B",1002,1,2,23,"J 72","","",FALSE,"CV","q",883,"cv","J",2,"c","c",TRUE,1,-0.444520983142088
"CVOE_B",1002,1,2,24,"P 91","","",TRUE,"CV","q",966,"cv","P",1,"c","c",TRUE,1,-0.416393067448581
"CVOE_B",1002,1,2,25,"E 19","","",FALSE,"CV","p",811,"cv","E",9,"v","v",TRUE,1,-0.468921102779828
"CVOE_B",1002,1,2,26,"I 30","","",TRUE,"CV","p",883,"cv","I",0,"v","v",TRUE,1,-0.444520983142088
"CVOE_B",1002,1,2,27,"D 91","","",TRUE,"CV","q",927,"cv","D",1,"c","c",TRUE,1,-0.429609798919024
"CVOE_B",1002,1,2,28,"O 48","","",TRUE,"CV","p",726,"cv","O",8,"v","v",TRUE,1,-0.497726799574383
"CVOE_B",1002,1,2,29,"A 89","","",FALSE,"CV","p",802,"cv","A",9,"v","v",TRUE,1,-0.471971117734546
"CVOE_B",1002,1,2,30,"U 11","","",FALSE,"CV","q",773,"cv","U",1,"v","c",FALSE,0,-0.481798943699747
"CVOE_B",1002,1,2,31,"I 76","","",TRUE,"CV","p",1857,"cv","I",6,"v","v",TRUE,1,-0.114441586931544
"CVOE_B",1002,1,2,32,"U 89","","",FALSE,"CV","p",1167,"cv","U",9,"v","v",TRUE,1,-0.348276066793223
"CVOE_B",1002,1,2,33,"D 63","","",TRUE,"CV","q",965,"cv","D",3,"c","c",TRUE,1,-0.416731957999105
"CVOE_B",1002,1,2,34,"H 70","","",FALSE,"CV","q",1982,"cv","H",0,"c","c",TRUE,1,-0.072080268116022
"CVOE_B",1002,1,2,35,"D 48","","",FALSE,"CV","q",1354,"cv","D",8,"c","c",TRUE,1,-0.284903533845202
"CVOE_B",1002,1,2,36,"P 56","","",FALSE,"CV","q",891,"cv","P",6,"c","c",TRUE,1,-0.441809858737894
"CVOE_B",1002,1,2,37,"O 77","","",FALSE,"CV","p",723,"cv","O",7,"v","v",TRUE,1,-0.498743471225955
"CVOE_B",1002,1,2,38,"P 42","","",FALSE,"CV","q",660,"cv","P",2,"c","c",TRUE,1,-0.520093575908978
"CVOE_B",1002,1,2,39,"H 22","","",FALSE,"CV","q",843,"cv","H",2,"c","c",TRUE,1,-0.458076605163055
"CVOE_B",1002,1,2,40,"E 42","","",TRUE,"CV","p",725,"cv","E",2,"v","v",TRUE,1,-0.498065690124907
"CVOE_B",1002,1,2,41,"J 28","","",FALSE,"CV","q",997,"cv","J",8,"c","c",TRUE,1,-0.405887460382332
"CVOE_B",1002,1,2,42,"E 95","","",FALSE,"CV","p",690,"cv","E",5,"v","v",TRUE,1,-0.509926859393253
"CVOE_B",1002,1,2,43,"S 63","","",TRUE,"CV","q",817,"cv","S",3,"c","c",TRUE,1,-0.466887759476683
"CVOE_B",1002,1,2,44,"H 50","","",FALSE,"CV","q",889,"cv","H",0,"c","c",TRUE,1,-0.442487639838943
"CVOE_B",1002,1,2,45,"S 33","","",TRUE,"CV","q",1285,"cv","S",3,"c","c",TRUE,1,-0.30828698183137
"CVOE_B",1002,1,2,46,"P 57","","",TRUE,"CV","q",1632,"cv","P",7,"c","c",TRUE,1,-0.190691960799482
"CVOE_B",1002,1,2,47,"E 23","","",FALSE,"CV","p",728,"cv","E",3,"v","v",TRUE,1,-0.497049018473334
"CVOE_B",1002,1,2,48,"S 61","","",TRUE,"CV","q",649,"cv","S",1,"c","c",TRUE,1,-0.523821371964744
"CVOE_B",1002,1,2,49,"U 67","","",FALSE,"CV","p",614,"cv","U",7,"v","v",TRUE,1,-0.53568254123309
"CVOE_B",1002,1,2,50,"H 32","","",FALSE,"CV","q",690,"cv","H",2,"c","c",TRUE,1,-0.509926859393253
"CVOE_B",1002,1,2,51,"U 50","","",TRUE,"CV","p",645,"cv","U",0,"v","v",TRUE,1,-0.525176934166841
"CVOE_B",1002,1,2,52,"O 49","","",FALSE,"CV","p",766,"cv","O",9,"v","v",TRUE,1,-0.484171177553416
"CVOE_B",1002,1,2,53,"U 32","","",TRUE,"CV","p",631,"cv","U",2,"v","v",TRUE,1,-0.529921401874179
"CVOE_B",1002,1,2,54,"J 78","","",FALSE,"CV","q",848,"cv","J",8,"c","c",TRUE,1,-0.456382152410434
"CVOE_B",1002,1,2,55,"S 54","","",FALSE,"CV","q",886,"cv","S",4,"c","c",TRUE,1,-0.443504311490515
"CVOE_B",1002,1,2,56,"J 27","","",TRUE,"CV","q",1400,"cv","J",7,"c","c",TRUE,1,-0.26931456852109
"CVOE_B",1002,1,2,57,"S 06","","",FALSE,"CV","q",651,"cv","S",6,"c","c",TRUE,1,-0.523143590863696
"CVOE_B",1002,1,2,58,"D 67","","",TRUE,"CV","q",736,"cv","D",7,"c","c",TRUE,1,-0.494337894069141
"CVOE_B",1002,1,2,59,"A 79","","",FALSE,"CV","p",735,"cv","A",9,"v","v",TRUE,1,-0.494676784619665
"CVOE_B",1002,1,2,60,"S 52","","",FALSE,"CV","q",812,"cv","S",2,"c","c",TRUE,1,-0.468582212229304
"CVOE_B",1002,1,2,61,"U 16","","",TRUE,"CV","p",649,"cv","U",6,"v","v",TRUE,1,-0.523821371964744
"CVOE_B",1002,1,2,62,"O 82","","",TRUE,"CV","p",614,"cv","O",2,"v","v",TRUE,1,-0.53568254123309
"CVOE_B",1002,1,2,63,"H 87","","",TRUE,"CV","q",730,"cv","H",7,"c","c",TRUE,1,-0.496371237372286
"CVOE_B",1002,1,2,64,"I 32","","",TRUE,"CV","p",807,"cv","I",2,"v","v",TRUE,1,-0.470276664981925
"CVOE_B",1002,1,2,65,"U 37","","",FALSE,"CV","p",762,"cv","U",7,"v","v",TRUE,1,-0.485526739755512
"CVOE_B",1002,1,2,66,"I 42","","",TRUE,"CV","p",766,"cv","I",2,"v","v",TRUE,1,-0.484171177553416
"CVOE_B",1002,1,2,67,"D 65","","",TRUE,"CV","q",693,"cv","D",5,"c","c",TRUE,1,-0.50891018774168
"CVOE_B",1002,1,2,68,"U 77","","",FALSE,"CV","p",646,"cv","U",7,"v","v",TRUE,1,-0.524838043616316
"CVOE_B",1002,1,2,69,"E 12","","",TRUE,"CV","p",611,"cv","E",2,"v","v",TRUE,1,-0.536699212884662
"CVOE_B",1002,1,2,70,"I 60","","",TRUE,"CV","p",727,"cv","I",0,"v","v",TRUE,1,-0.497387909023859
"CVOE_B",1002,1,2,71,"J 36","","",FALSE,"CV","q",687,"cv","J",6,"c","c",TRUE,1,-0.510943531044825
"CVOE_B",1002,1,2,72,"H 75","","",TRUE,"CV","q",814,"cv","H",5,"c","c",TRUE,1,-0.467904431128256
"CVOE_B",1002,1,2,73,"I 50","","",TRUE,"CV","p",769,"cv","I",0,"v","v",TRUE,1,-0.483154505901843
"CVOE_B",1002,1,2,74,"E 99","","",FALSE,"CV","p",734,"cv","E",9,"v","v",TRUE,1,-0.495015675170189
"CVOE_B",1002,1,2,75,"A 86","","",TRUE,"CV","p",772,"cv","A",6,"v","v",TRUE,1,-0.482137834250271
"CVOE_B",1002,1,2,76,"U 48","","",TRUE,"CV","p",737,"cv","U",8,"v","v",TRUE,1,-0.493999003518617
"CVOE_B",1002,1,2,77,"E 01","","",FALSE,"CV","p",737,"cv","E",1,"v","v",TRUE,1,-0.493999003518617
"CVOE_B",1002,1,2,78,"A 78","","",TRUE,"CV","p",870,"cv","A",8,"v","v",TRUE,1,-0.448926560298902
"CVOE_B",1002,1,2,79,"P 60","","",FALSE,"CV","q",1243,"cv","P",0,"c","c",TRUE,1,-0.322520384953385
"CVOE_B",1002,1,2,80,"E 43","","",FALSE,"CV","p",763,"cv","E",3,"v","v",TRUE,1,-0.485187849204988
"CVOE_B",1002,1,2,81,"D 69","","",TRUE,"CV","q",1003,"cv","D",9,"c","c",TRUE,1,-0.403854117079187
"CVOE_B",1002,1,2,82,"H 11","","",TRUE,"CV","q",1126,"cv","H",1,"c","c",TRUE,1,-0.362170579364714
"CVOE_B",1002,1,2,83,"P 43","","",TRUE,"CV","q",1075,"cv","P",3,"c","c",TRUE,1,-0.379453997441446
"CVOE_B",1002,1,2,84,"O 67","","",FALSE,"CV","p",645,"cv","O",7,"v","v",TRUE,1,-0.525176934166841
"CVOE_B",1002,1,2,85,"S 91","","",FALSE,"CV","q",649,"cv","S",1,"c","c",TRUE,1,-0.523821371964744
"CVOE_B",1002,1,2,86,"J 68","","",TRUE,"CV","q",693,"cv","J",8,"c","c",TRUE,1,-0.50891018774168
"CVOE_B",1002,1,2,87,"S 47","","",FALSE,"CV","q",724,"cv","S",7,"c","c",TRUE,1,-0.498404580675431
"CVOE_B",1002,1,2,88,"I 81","","",TRUE,"CV","p",762,"cv","I",1,"v","v",TRUE,1,-0.485526739755512
"CVOE_B",1002,1,2,89,"J 39","","",FALSE,"CV","q",649,"cv","J",9,"c","c",TRUE,1,-0.523821371964744
"CVOE_B",1002,1,2,90,"A 11","","",TRUE,"CV","p",656,"cv","A",1,"v","v",TRUE,1,-0.521449138111075
"CVOE_B",1002,1,2,91,"O 76","","",FALSE,"CV","p",560,"cv","O",6,"v","v",TRUE,1,-0.553982630961395
"CVOE_B",1002,1,2,92,"A 62","","",FALSE,"CV","p",608,"cv","A",2,"v","v",TRUE,1,-0.537715884536235
"CVOE_B",1002,1,2,93,"O 27","","",TRUE,"CV","p",920,"cv","O",7,"v","v",TRUE,1,-0.431982032772693
"CVOE_B",1002,1,2,94,"E 66","","",FALSE,"CV","p",657,"cv","E",6,"v","v",TRUE,1,-0.521110247560551
"CVOE_B",1002,1,2,95,"J 62","","",TRUE,"CV","q",762,"cv","J",2,"c","c",TRUE,1,-0.485526739755512
"CVOE_B",1002,1,2,96,"H 72","","",TRUE,"CV","q",610,"cv","H",2,"c","c",TRUE,1,-0.537038103435187
"CVOE_B",1002,1,2,97,"E 49","","",TRUE,"CV","p",726,"cv","E",9,"v","v",TRUE,1,-0.497726799574383
"CVOE_B",1002,1,2,98,"D 52","","",TRUE,"CV","q",607,"cv","D",2,"c","c",TRUE,1,-0.538054775086759
"CVOE_B",1002,1,2,99,"H 62","","",TRUE,"CV","q",722,"cv","H",2,"c","c",TRUE,1,-0.499082361776479
"CVOE_B",1002,1,2,100,"I 11","","",TRUE,"CV","p",738,"cv","I",1,"v","v",TRUE,1,-0.493660112968093
"CVOE_B",1002,1,2,101,"A 98","","",FALSE,"CV","p",620,"cv","A",8,"v","v",TRUE,1,-0.533649197929945
"CVOE_B",1002,1,2,102,"H 29","","",FALSE,"CV","q",697,"cv","H",9,"c","c",TRUE,1,-0.507554625539584
"CVOE_B",1002,1,2,103,"E 83","","",TRUE,"CV","p",689,"cv","E",3,"v","v",TRUE,1,-0.510265749943777
"CVOE_B",1002,1,2,104,"D 43","","",FALSE,"CV","q",817,"cv","D",3,"c","c",TRUE,1,-0.466887759476683
"CVOE_B",1002,1,2,105,"P 45","","",TRUE,"CV","q",654,"cv","P",5,"c","c",TRUE,1,-0.522126919212123
"CVOE_B",1002,1,2,106,"J 17","","",TRUE,"CV","q",699,"cv","J",7,"c","c",TRUE,1,-0.506876844438535
"CVOE_B",2002,1,2,11,"A 71","","",FALSE,"CV","p",5270,"cv","A",1,"v","v",TRUE,1,1.04219186200746
"CVOE_B",2002,1,2,12,"I 66","","",TRUE,"CV","p",1304,"cv","I",6,"v","v",TRUE,1,-0.301848061371411
"CVOE_B",2002,1,2,13,"S 30","","",FALSE,"CV","q",891,"cv","S",0,"c","c",TRUE,1,-0.441809858737894
"CVOE_B",2002,1,2,14,"D 20","","",FALSE,"CV","q",1271,"cv","D",0,"c","c",TRUE,1,-0.313031449538709
"CVOE_B",2002,1,2,15,"I 31","","",FALSE,"CV","p",618,"cv","I",1,"v","v",TRUE,1,-0.534326979030993
"CVOE_B",2002,1,2,16,"P 16","","",FALSE,"CV","q",655,"cv","P",6,"c","c",TRUE,1,-0.521788028661599
"CVOE_B",2002,1,2,17,"A 49","","",FALSE,"CV","p",738,"cv","A",9,"v","v",TRUE,1,-0.493660112968093
"CVOE_B",2002,1,2,18,"O 64","","",TRUE,"CV","p",698,"cv","O",4,"v","v",TRUE,1,-0.50721573498906
"CVOE_B",2002,1,2,19,"D 02","","",FALSE,"CV","q",809,"cv","D",2,"c","c",TRUE,1,-0.469598883880876
"CVOE_B",2002,1,2,20,"P 81","","",TRUE,"CV","p",608,"cv","P",1,"c","v",FALSE,0,-0.537715884536235
"CVOE_B",2002,1,2,21,"J 58","","",FALSE,"CV","p",489,"cv","J",8,"c","v",FALSE,0,-0.578043860048612
"CVOE_B",2002,1,2,22,"A 22","","",TRUE,"CV","q",543,"cv","A",2,"v","c",FALSE,0,-0.559743770320306
"CVOE_B",2002,1,2,23,"J 72","","",FALSE,"CV","q",2409,"cv","J",2,"c","c",TRUE,1,0.0726259969577997
"CVOE_B",2002,1,2,24,"P 91","","",TRUE,"CV","q",1519,"cv","P",1,"c","c",TRUE,1,-0.228986593008714
"CVOE_B",2002,1,2,25,"E 19","","",FALSE,"CV","p",615,"cv","E",9,"v","v",TRUE,1,-0.535343650682566
"CVOE_B",2002,1,2,26,"I 30","","",TRUE,"CV","p",1827,"cv","I",0,"v","v",TRUE,1,-0.124608303447269
"CVOE_B",2002,1,2,27,"D 91","","",TRUE,"CV","q",801,"cv","D",1,"c","c",TRUE,1,-0.47231000828507
"CVOE_B",2002,1,2,28,"O 48","","",TRUE,"CV","p",655,"cv","O",8,"v","v",TRUE,1,-0.521788028661599
"CVOE_B",2002,1,2,29,"A 89","","",FALSE,"CV","p",816,"cv","A",9,"v","v",TRUE,1,-0.467226650027207
"CVOE_B",2002,1,2,30,"U 11","","",FALSE,"CV","p",653,"cv","U",1,"v","v",TRUE,1,-0.522465809762647
"CVOE_B",2002,1,2,31,"I 76","","",TRUE,"CV","p",597,"cv","I",6,"v","v",TRUE,1,-0.541443680592001
"CVOE_B",2002,1,2,32,"U 89","","",FALSE,"CV","p",573,"cv","U",9,"v","v",TRUE,1,-0.549577053804581
"CVOE_B",2002,1,2,33,"D 63","","",TRUE,"CV","q",974,"cv","D",3,"c","c",TRUE,1,-0.413681943044388
"CVOE_B",2002,1,2,34,"H 70","","",FALSE,"CV","q",896,"cv","H",0,"c","c",TRUE,1,-0.440115405985273
"CVOE_B",2002,1,2,35,"D 48","","",FALSE,"CV","q",571,"cv","D",8,"c","c",TRUE,1,-0.550254834905629
"CVOE_B",2002,1,2,36,"P 56","","",FALSE,"CV","q",659,"cv","P",6,"c","c",TRUE,1,-0.520432466459502
"CVOE_B",2002,1,2,37,"O 77","","",FALSE,"CV","p",610,"cv","O",7,"v","v",TRUE,1,-0.537038103435187
"CVOE_B",2002,1,2,38,"P 42","","",FALSE,"CV","q",648,"cv","P",2,"c","c",TRUE,1,-0.524160262515268
"CVOE_B",2002,1,2,39,"H 22","","",FALSE,"CV","q",535,"cv","H",2,"c","c",TRUE,1,-0.5624548947245
"CVOE_B",2002,1,2,40,"E 42","","",TRUE,"CV","p",617,"cv","E",2,"v","v",TRUE,1,-0.534665869581518
"CVOE_B",2002,1,2,41,"J 28","","",FALSE,"CV","q",537,"cv","J",8,"c","c",TRUE,1,-0.561777113623451
"CVOE_B",2002,1,2,42,"E 95","","",FALSE,"CV","p",542,"cv","E",5,"v","v",TRUE,1,-0.56008266087083
"CVOE_B",2002,1,2,43,"S 63","","",TRUE,"CV","q",820,"cv","S",3,"c","c",TRUE,1,-0.46587108782511
"CVOE_B",2002,1,2,44,"H 50","","",FALSE,"CV","q",539,"cv","H",0,"c","c",TRUE,1,-0.561099332522403
"CVOE_B",2002,1,2,45,"S 33","","",TRUE,"CV","q",487,"cv","S",3,"c","c",TRUE,1,-0.57872164114966
"CVOE_B",2002,1,2,46,"P 57","","",TRUE,"CV","q",502,"cv","P",7,"c","c",TRUE,1,-0.573638282891797
"CVOE_B",2002,1,2,47,"E 23","","",FALSE,"CV","p",540,"cv","E",3,"v","v",TRUE,1,-0.560760441971879
"CVOE_B",2002,1,2,48,"S 61","","",TRUE,"CV","q",528,"cv","S",1,"c","c",TRUE,1,-0.564827128578169
"CVOE_B",2002,1,2,49,"U 67","","",FALSE,"CV","p",649,"cv","U",7,"v","v",TRUE,1,-0.523821371964744
"CVOE_B",2002,1,2,50,"H 32","","",FALSE,"CV","q",1045,"cv","H",2,"c","c",TRUE,1,-0.389620713957172
"CVOE_B",2002,1,2,51,"U 50","","",TRUE,"CV","p",570,"cv","U",0,"v","v",TRUE,1,-0.550593725456154
"CVOE_B",2002,1,2,52,"O 49","","",FALSE,"CV","p",596,"cv","O",9,"v","v",TRUE,1,-0.541782571142525
"CVOE_B",2002,1,2,53,"U 32","","",TRUE,"CV","p",573,"cv","U",2,"v","v",TRUE,1,-0.549577053804581
"CVOE_B",2002,1,2,54,"J 78","","",FALSE,"CV","q",700,"cv","J",8,"c","c",TRUE,1,-0.506537953888011
"CVOE_B",2002,1,2,55,"S 54","","",FALSE,"CV","q",615,"cv","S",4,"c","c",TRUE,1,-0.535343650682566
"CVOE_B",2002,1,2,56,"J 27","","",TRUE,"CV","q",614,"cv","J",7,"c","c",TRUE,1,-0.53568254123309
"CVOE_B",2002,1,2,57,"S 06","","",FALSE,"CV","q",769,"cv","S",6,"c","c",TRUE,1,-0.483154505901843
"CVOE_B",2002,1,2,58,"D 67","","",TRUE,"CV","q",1792,"cv","D",7,"c","c",TRUE,1,-0.136469472715615
"CVOE_B",2002,1,2,59,"A 79","","",FALSE,"CV","p",464,"cv","A",9,"v","v",TRUE,1,-0.586516123811716
"CVOE_B",2002,1,2,60,"S 52","","",FALSE,"CV","q",847,"cv","S",2,"c","c",TRUE,1,-0.456721042960958
"CVOE_B",2002,1,2,61,"U 16","","",TRUE,"CV","p",456,"cv","U",6,"v","v",TRUE,1,-0.589227248215909
"CVOE_B",2002,1,2,62,"O 82","","",TRUE,"CV","p",661,"cv","O",2,"v","v",TRUE,1,-0.519754685358454
"CVOE_B",2002,1,2,63,"H 87","","",TRUE,"CV","q",1041,"cv","H",7,"c","c",TRUE,1,-0.390976276159268
"CVOE_B",2002,1,2,64,"I 32","","",TRUE,"CV","p",584,"cv","I",2,"v","v",TRUE,1,-0.545849257748815
"CVOE_B",2002,1,2,65,"U 37","","",FALSE,"CV","p",499,"cv","U",7,"v","v",TRUE,1,-0.57465495454337
"CVOE_B",2002,1,2,66,"I 42","","",TRUE,"CV","p",458,"cv","I",2,"v","v",TRUE,1,-0.588549467114861
"CVOE_B",2002,1,2,67,"D 65","","",TRUE,"CV","q",685,"cv","D",5,"c","c",TRUE,1,-0.511621312145874
"CVOE_B",2002,1,2,68,"U 77","","",FALSE,"CV","p",422,"cv","U",7,"v","v",TRUE,1,-0.600749526933731
"CVOE_B",2002,1,2,69,"E 12","","",TRUE,"CV","p",621,"cv","E",2,"v","v",TRUE,1,-0.533310307379421
"CVOE_B",2002,1,2,70,"I 60","","",TRUE,"CV","p",502,"cv","I",0,"v","v",TRUE,1,-0.573638282891797
"CVOE_B",2002,1,2,71,"J 36","","",FALSE,"CV","q",618,"cv","J",6,"c","c",TRUE,1,-0.534326979030993
"CVOE_B",2002,1,2,72,"H 75","","",TRUE,"CV","p",460,"cv","H",5,"c","v",FALSE,0,-0.587871686013813
"CVOE_B",2002,1,2,73,"I 50","","",TRUE,"CV","q",1235,"cv","I",0,"v","c",FALSE,0,-0.325231509357579
"CVOE_B",2002,1,2,74,"E 99","","",FALSE,"CV","p",733,"cv","E",9,"v","v",TRUE,1,-0.495354565720714
"CVOE_B",2002,1,2,75,"A 86","","",TRUE,"CV","p",967,"cv","A",6,"v","v",TRUE,1,-0.416054176898057
"CVOE_B",2002,1,2,76,"U 48","","",TRUE,"CV","p",615,"cv","U",8,"v","v",TRUE,1,-0.535343650682566
"CVOE_B",2002,1,2,77,"E 01","","",FALSE,"CV","p",748,"cv","E",1,"v","v",TRUE,1,-0.490271207462851
"CVOE_B",2002,1,2,78,"A 78","","",TRUE,"CV","p",1200,"cv","A",8,"v","v",TRUE,1,-0.337092678625925
"CVOE_B",2002,1,2,79,"P 60","","",FALSE,"CV","q",731,"cv","P",0,"c","c",TRUE,1,-0.496032346821762
"CVOE_B",2002,1,2,80,"E 43","","",FALSE,"CV","p",574,"cv","E",3,"v","v",TRUE,1,-0.549238163254057
"CVOE_B",2002,1,2,81,"D 69","","",TRUE,"CV","q",645,"cv","D",9,"c","c",TRUE,1,-0.525176934166841
"CVOE_B",2002,1,2,82,"H 11","","",TRUE,"CV","q",571,"cv","H",1,"c","c",TRUE,1,-0.550254834905629
"CVOE_B",2002,1,2,83,"P 43","","",TRUE,"CV","q",581,"cv","P",3,"c","c",TRUE,1,-0.546865929400388
"CVOE_B",2002,1,2,84,"O 67","","",FALSE,"CV","p",652,"cv","O",7,"v","v",TRUE,1,-0.522804700313171
"CVOE_B",2002,1,2,85,"S 91","","",FALSE,"CV","q",735,"cv","S",1,"c","c",TRUE,1,-0.494676784619665
"CVOE_B",2002,1,2,86,"J 68","","",TRUE,"CV","q",852,"cv","J",8,"c","c",TRUE,1,-0.455026590208337
"CVOE_B",2002,1,2,87,"S 47","","",FALSE,"CV","q",538,"cv","S",7,"c","c",TRUE,1,-0.561438223072927
"CVOE_B",2002,1,2,88,"I 81","","",TRUE,"CV","p",581,"cv","I",1,"v","v",TRUE,1,-0.546865929400388
"CVOE_B",2002,1,2,89,"J 39","","",FALSE,"CV","q",614,"cv","J",9,"c","c",TRUE,1,-0.53568254123309
"CVOE_B",2002,1,2,90,"A 11","","",TRUE,"CV","p",612,"cv","A",1,"v","v",TRUE,1,-0.536360322334138
"CVOE_B",2002,1,2,91,"O 76","","",FALSE,"CV","p",1276,"cv","O",6,"v","v",TRUE,1,-0.311336996786088
"CVOE_B",2002,1,2,92,"A 62","","",FALSE,"CV","p",841,"cv","A",2,"v","v",TRUE,1,-0.458754386264103
"CVOE_B",2002,1,2,93,"O 27","","",TRUE,"CV","p",527,"cv","O",7,"v","v",TRUE,1,-0.565166019128693
"CVOE_B",2002,1,2,94,"E 66","","",FALSE,"CV","p",573,"cv","E",6,"v","v",TRUE,1,-0.549577053804581
"CVOE_B",2002,1,2,95,"J 62","","",TRUE,"CV","q",854,"cv","J",2,"c","c",TRUE,1,-0.454348809107289
"CVOE_B",2002,1,2,96,"H 72","","",TRUE,"CV","q",1206,"cv","H",2,"c","c",TRUE,1,-0.33505933532278
"CVOE_B",2002,1,2,97,"E 49","","",TRUE,"CV","p",1324,"cv","E",9,"v","v",TRUE,1,-0.295070250360928
"CVOE_B",2002,1,2,98,"D 52","","",TRUE,"CV","q",895,"cv","D",2,"c","c",TRUE,1,-0.440454296535798
"CVOE_B",2002,1,2,99,"H 62","","",TRUE,"CV","q",805,"cv","H",2,"c","c",TRUE,1,-0.470954446082973
"CVOE_B",2002,1,2,100,"I 11","","",TRUE,"CV","p",620,"cv","I",1,"v","v",TRUE,1,-0.533649197929945
"CVOE_B",2002,1,2,101,"A 98","","",FALSE,"CV","p",736,"cv","A",8,"v","v",TRUE,1,-0.494337894069141
"CVOE_B",2002,1,2,102,"H 29","","",FALSE,"CV","q",735,"cv","H",9,"c","c",TRUE,1,-0.494676784619665
"CVOE_B",2002,1,2,103,"E 83","","",TRUE,"CV","q",1009,"cv","E",3,"v","c",FALSE,0,-0.401820773776042
"CVOE_B",2002,1,2,104,"D 43","","",FALSE,"CV","p",998,"cv","D",3,"c","v",FALSE,0,-0.405548569831808
"CVOE_B",2002,1,2,105,"P 45","","",TRUE,"CV","q",2646,"cv","P",5,"c","c",TRUE,1,0.152943057432029
"CVOE_B",2002,1,2,106,"J 17","","",TRUE,"CV","q",1315,"cv","J",7,"c","c",TRUE,1,-0.298120265315645
"CVOE_C",1003,1,2,11,"A 71","","",FALSE,"CV","q",7567,"cv","A",1,"v","c",FALSE,0,1.82062345656148
"CVOE_C",1003,1,2,12,"I 66","","",TRUE,"CV","p",3313,"cv","I",6,"v","v",TRUE,1,0.378983054631652
"CVOE_C",1003,1,2,13,"S 30","","",FALSE,"CV","q",1991,"cv","S",0,"c","c",TRUE,1,-0.0690302531613044
"CVOE_C",1003,1,2,14,"D 20","","",FALSE,"CV","q",3828,"cv","D",0,"c","c",TRUE,1,0.553511688151601
"CVOE_C",1003,1,2,15,"I 31","","",FALSE,"CV","p",1479,"cv","I",1,"v","v",TRUE,1,-0.242542215029681
"CVOE_C",1003,1,2,16,"P 16","","",FALSE,"CV","q",1039,"cv","P",6,"c","c",TRUE,1,-0.391654057260317
"CVOE_C",1003,1,2,17,"A 49","","",FALSE,"CV","p",1795,"cv","A",9,"v","v",TRUE,1,-0.135452801064042
"CVOE_C",1003,1,2,18,"O 64","","",TRUE,"CV","p",724,"cv","O",4,"v","v",TRUE,1,-0.498404580675431
"CVOE_C",1003,1,2,19,"D 02","","",FALSE,"CV","q",801,"cv","D",2,"c","c",TRUE,1,-0.47231000828507
"CVOE_C",1003,1,2,20,"P 81","","",TRUE,"CV","q",1086,"cv","P",1,"c","c",TRUE,1,-0.375726201385681
"CVOE_C",1003,1,2,21,"J 58","","",FALSE,"CV","q",813,"cv","J",8,"c","c",TRUE,1,-0.46824332167878
"CVOE_C",1003,1,2,22,"A 22","","",TRUE,"CV","p",650,"cv","A",2,"v","v",TRUE,1,-0.52348248141422
"CVOE_C",1003,1,2,23,"J 72","","",FALSE,"CV","q",1320,"cv","J",2,"c","c",TRUE,1,-0.296425812563024
"CVOE_C",1003,1,2,24,"P 91","","",TRUE,"CV","q",1087,"cv","P",1,"c","c",TRUE,1,-0.375387310835156
"CVOE_C",1003,1,2,25,"E 19","","",FALSE,"CV","p",657,"cv","E",9,"v","v",TRUE,1,-0.521110247560551
"CVOE_C",1003,1,2,26,"I 30","","",TRUE,"CV","p",857,"cv","I",0,"v","v",TRUE,1,-0.453332137455716
"CVOE_C",1003,1,2,27,"D 91","","",TRUE,"CV","q",857,"cv","D",1,"c","c",TRUE,1,-0.453332137455716
"CVOE_C",1003,1,2,28,"O 48","","",TRUE,"CV","p",856,"cv","O",8,"v","v",TRUE,1,-0.45367102800624
"CVOE_C",1003,1,2,29,"A 89","","",FALSE,"CV","p",2774,"cv","A",9,"v","v",TRUE,1,0.196321047899123
"CVOE_C",1003,1,2,30,"U 11","","",FALSE,"CV","p",969,"cv","U",1,"v","v",TRUE,1,-0.415376395797009
"CVOE_C",1003,1,2,31,"I 76","","",TRUE,"CV","p",1243,"cv","I",6,"v","v",TRUE,1,-0.322520384953385
"CVOE_C",1003,1,2,32,"U 89","","",FALSE,"CV","p",1076,"cv","U",9,"v","v",TRUE,1,-0.379115106890922
"CVOE_C",1003,1,2,33,"D 63","","",TRUE,"CV","q",959,"cv","D",3,"c","c",TRUE,1,-0.41876530130225
"CVOE_C",1003,1,2,34,"H 70","","",FALSE,"CV","q",685,"cv","H",0,"c","c",TRUE,1,-0.511621312145874
"CVOE_C",1003,1,2,35,"D 48","","",FALSE,"CV","q",618,"cv","D",8,"c","c",TRUE,1,-0.534326979030993
"CVOE_C",1003,1,2,36,"P 56","","",FALSE,"CV","q",930,"cv","P",6,"c","c",TRUE,1,-0.428593127267452
"CVOE_C",1003,1,2,37,"O 77","","",FALSE,"CV","p",1003,"cv","O",7,"v","v",TRUE,1,-0.403854117079187
"CVOE_C",1003,1,2,38,"P 42","","",FALSE,"CV","q",1634,"cv","P",2,"c","c",TRUE,1,-0.190014179698434
"CVOE_C",1003,1,2,39,"H 22","","",FALSE,"CV","q",813,"cv","H",2,"c","c",TRUE,1,-0.46824332167878
"CVOE_C",1003,1,2,40,"E 42","","",TRUE,"CV","p",766,"cv","E",2,"v","v",TRUE,1,-0.484171177553416
"CVOE_C",1003,1,2,41,"J 28","","",FALSE,"CV","q",849,"cv","J",8,"c","c",TRUE,1,-0.456043261859909
"CVOE_C",1003,1,2,42,"E 95","","",FALSE,"CV","p",653,"cv","E",5,"v","v",TRUE,1,-0.522465809762647
"CVOE_C",1003,1,2,43,"S 63","","",TRUE,"CV","q",932,"cv","S",3,"c","c",TRUE,1,-0.427915346166403
"CVOE_C",1003,1,2,44,"H 50","","",FALSE,"CV","q",653,"cv","H",0,"c","c",TRUE,1,-0.522465809762647
"CVOE_C",1003,1,2,45,"S 33","","",TRUE,"CV","q",501,"cv","S",3,"c","c",TRUE,1,-0.573977173442322
"CVOE_C",1003,1,2,46,"P 57","","",TRUE,"CV","q",577,"cv","P",7,"c","c",TRUE,1,-0.548221491602484
"CVOE_C",1003,1,2,47,"E 23","","",FALSE,"CV","p",688,"cv","E",3,"v","v",TRUE,1,-0.510604640494301
"CVOE_C",1003,1,2,48,"S 61","","",TRUE,"CV","q",581,"cv","S",1,"c","c",TRUE,1,-0.546865929400388
"CVOE_C",1003,1,2,49,"U 67","","",FALSE,"CV","p",848,"cv","U",7,"v","v",TRUE,1,-0.456382152410434
"CVOE_C",1003,1,2,50,"H 32","","",FALSE,"CV","q",772,"cv","H",2,"c","c",TRUE,1,-0.482137834250271
"CVOE_C",1003,1,2,51,"U 50","","",TRUE,"CV","p",699,"cv","U",0,"v","v",TRUE,1,-0.506876844438535
"CVOE_C",1003,1,2,52,"O 49","","",FALSE,"CV","p",770,"cv","O",9,"v","v",TRUE,1,-0.482815615351319
"CVOE_C",1003,1,2,53,"U 32","","",TRUE,"CV","p",853,"cv","U",2,"v","v",TRUE,1,-0.454687699657813
"CVOE_C",1003,1,2,54,"J 78","","",FALSE,"CV","q",735,"cv","J",8,"c","c",TRUE,1,-0.494676784619665
"CVOE_C",1003,1,2,55,"S 54","","",FALSE,"CV","q",1949,"cv","S",4,"c","c",TRUE,1,-0.0832636562833197
"CVOE_C",1003,1,2,56,"J 27","","",TRUE,"CV","q",688,"cv","J",7,"c","c",TRUE,1,-0.510604640494301
"CVOE_C",1003,1,2,57,"S 06","","",FALSE,"CV","q",662,"cv","S",6,"c","c",TRUE,1,-0.51941579480793
"CVOE_C",1003,1,2,58,"D 67","","",TRUE,"CV","q",963,"cv","D",7,"c","c",TRUE,1,-0.417409739100154
"CVOE_C",1003,1,2,59,"A 79","","",FALSE,"CV","p",610,"cv","A",9,"v","v",TRUE,1,-0.537038103435187
"CVOE_C",1003,1,2,60,"S 52","","",FALSE,"CV","q",648,"cv","S",2,"c","c",TRUE,1,-0.524160262515268
"CVOE_C",1003,1,2,61,"U 16","","",TRUE,"CV","p",731,"cv","U",6,"v","v",TRUE,1,-0.496032346821762
"CVOE_C",1003,1,2,62,"O 82","","",TRUE,"CV","p",730,"cv","O",2,"v","v",TRUE,1,-0.496371237372286
"CVOE_C",1003,1,2,63,"H 87","","",TRUE,"CV","q",809,"cv","H",7,"c","c",TRUE,1,-0.469598883880876
"CVOE_C",1003,1,2,64,"I 32","","",TRUE,"CV","q",1193,"cv","I",2,"v","c",FALSE,0,-0.339464912479594
"CVOE_C",1003,1,2,65,"U 37","","",FALSE,"CV","p",920,"cv","U",7,"v","v",TRUE,1,-0.431982032772693
"CVOE_C",1003,1,2,66,"I 42","","",TRUE,"CV","p",736,"cv","I",2,"v","v",TRUE,1,-0.494337894069141
"CVOE_C",1003,1,2,67,"D 65","","",TRUE,"CV","q",1323,"cv","D",5,"c","c",TRUE,1,-0.295409140911452
"CVOE_C",1003,1,2,68,"U 77","","",FALSE,"CV","p",1167,"cv","U",7,"v","v",TRUE,1,-0.348276066793223
"CVOE_C",1003,1,2,69,"E 12","","",TRUE,"CV","p",811,"cv","E",2,"v","v",TRUE,1,-0.468921102779828
"CVOE_C",1003,1,2,70,"I 60","","",TRUE,"CV","p",687,"cv","I",0,"v","v",TRUE,1,-0.510943531044825
"CVOE_C",1003,1,2,71,"J 36","","",FALSE,"CV","q",698,"cv","J",6,"c","c",TRUE,1,-0.50721573498906
"CVOE_C",1003,1,2,72,"H 75","","",TRUE,"CV","q",1121,"cv","H",5,"c","c",TRUE,1,-0.363865032117335
"CVOE_C",1003,1,2,73,"I 50","","",TRUE,"CV","p",619,"cv","I",0,"v","v",TRUE,1,-0.533988088480469
"CVOE_C",1003,1,2,74,"E 99","","",FALSE,"CV","p",635,"cv","E",9,"v","v",TRUE,1,-0.528565839672082
"CVOE_C",1003,1,2,75,"A 86","","",TRUE,"CV","q",1205,"cv","A",6,"v","c",FALSE,0,-0.335398225873304
"CVOE_C",1003,1,2,76,"U 48","","",TRUE,"CV","p",1832,"cv","U",8,"v","v",TRUE,1,-0.122913850694648
"CVOE_C",1003,1,2,77,"E 01","","",FALSE,"CV","p",902,"cv","E",1,"v","v",TRUE,1,-0.438082062682128
"CVOE_C",1003,1,2,78,"A 78","","",TRUE,"CV","p",2026,"cv","A",8,"v","v",TRUE,1,-0.0571690838929584
"CVOE_C",1003,1,2,79,"P 60","","",FALSE,"CV","q",1247,"cv","P",0,"c","c",TRUE,1,-0.321164822751289
"CVOE_C",1003,1,2,80,"E 43","","",FALSE,"CV","p",1511,"cv","E",3,"v","v",TRUE,1,-0.231697717412907
"CVOE_C",1003,1,2,81,"D 69","","",TRUE,"CV","q",959,"cv","D",9,"c","c",TRUE,1,-0.41876530130225
"CVOE_C",1003,1,2,82,"H 11","","",TRUE,"CV","q",686,"cv","H",1,"c","c",TRUE,1,-0.51128242159535
"CVOE_C",1003,1,2,83,"P 43","","",TRUE,"CV","q",1126,"cv","P",3,"c","c",TRUE,1,-0.362170579364714
"CVOE_C",1003,1,2,84,"O 67","","",FALSE,"CV","p",646,"cv","O",7,"v","v",TRUE,1,-0.524838043616316
"CVOE_C",1003,1,2,85,"S 91","","",FALSE,"CV","q",729,"cv","S",1,"c","c",TRUE,1,-0.49671012792281
"CVOE_C",1003,1,2,86,"J 68","","",TRUE,"CV","q",1394,"cv","J",8,"c","c",TRUE,1,-0.271347911824235
"CVOE_C",1003,1,2,87,"S 47","","",FALSE,"CV","q",646,"cv","S",7,"c","c",TRUE,1,-0.524838043616316
"CVOE_C",1003,1,2,88,"I 81","","",TRUE,"CV","q",533,"cv","I",1,"v","c",FALSE,0,-0.563132675825548
"CVOE_C",1003,1,2,89,"J 39","","",FALSE,"CV","q",970,"cv","J",9,"c","c",TRUE,1,-0.415037505246485
"CVOE_C",1003,1,2,90,"A 11","","",TRUE,"CV","p",891,"cv","A",1,"v","v",TRUE,1,-0.441809858737894
"CVOE_C",1003,1,2,91,"O 76","","",FALSE,"CV","p",584,"cv","O",6,"v","v",TRUE,1,-0.545849257748815
"CVOE_C",1003,1,2,92,"A 62","","",FALSE,"CV","p",1439,"cv","A",2,"v","v",TRUE,1,-0.256097837050648
"CVOE_C",1003,1,2,93,"O 27","","",TRUE,"CV","p",579,"cv","O",7,"v","v",TRUE,1,-0.547543710501436
"CVOE_C",1003,1,2,94,"E 66","","",FALSE,"CV","p",612,"cv","E",6,"v","v",TRUE,1,-0.536360322334138
"CVOE_C",1003,1,2,95,"J 62","","",TRUE,"CV","q",611,"cv","J",2,"c","c",TRUE,1,-0.536699212884662
"CVOE_C",1003,1,2,96,"H 72","","",TRUE,"CV","q",844,"cv","H",2,"c","c",TRUE,1,-0.45773771461253
"CVOE_C",1003,1,2,97,"E 49","","",TRUE,"CV","p",649,"cv","E",9,"v","v",TRUE,1,-0.523821371964744
"CVOE_C",1003,1,2,98,"D 52","","",TRUE,"CV","q",731,"cv","D",2,"c","c",TRUE,1,-0.496032346821762
"CVOE_C",1003,1,2,99,"H 62","","",TRUE,"CV","q",1712,"cv","H",2,"c","c",TRUE,1,-0.163580716757549
"CVOE_C",1003,1,2,100,"I 11","","",TRUE,"CV","p",568,"cv","I",1,"v","v",TRUE,1,-0.551271506557202
"CVOE_C",1003,1,2,101,"A 98","","",FALSE,"CV","q",617,"cv","A",8,"v","c",FALSE,0,-0.534665869581518
"CVOE_C",1003,1,2,102,"H 29","","",FALSE,"CV","q",1986,"cv","H",9,"c","c",TRUE,1,-0.0707247059139253
"CVOE_C",1003,1,2,103,"E 83","","",TRUE,"CV","p",1006,"cv","E",3,"v","v",TRUE,1,-0.402837445427614
"CVOE_C",1003,1,2,104,"D 43","","",FALSE,"CV","q",620,"cv","D",3,"c","c",TRUE,1,-0.533649197929945
"CVOE_C",1003,1,2,105,"P 45","","",TRUE,"CV","q",1207,"cv","P",5,"c","c",TRUE,1,-0.334720444772256
"CVOE_C",1003,1,2,106,"J 17","","",TRUE,"CV","q",816,"cv","J",7,"c","c",TRUE,1,-0.467226650027207
"CVOE updated",1001,1,2,11,"A 24","","",TRUE,"OE","p",2238,"oe","A",4,"e","e",TRUE,1,0.0146757128181662
"CVOE updated",1001,1,2,12,"O 83","","",FALSE,"OE","q",818,"oe","O",3,"o","o",TRUE,1,-0.466548868926159
"CVOE updated",1001,1,2,13,"H 55","","",TRUE,"OE","q",701,"oe","H",5,"o","o",TRUE,1,-0.506199063337487
"CVOE updated",1001,1,2,14,"P 10","","",FALSE,"OE","p",653,"oe","P",0,"e","e",TRUE,1,-0.522465809762647
"CVOE updated",1001,1,2,15,"D 30","","",FALSE,"OE","p",599,"oe","D",0,"e","e",TRUE,1,-0.540765899490953
"CVOE updated",1001,1,2,16,"U 62","","",TRUE,"OE","p",611,"oe","U",2,"e","e",TRUE,1,-0.536699212884662
"CVOE updated",1001,1,2,17,"P 95","","",TRUE,"OE","q",734,"oe","P",5,"o","o",TRUE,1,-0.495015675170189
"CVOE updated",1001,1,2,18,"U 06","","",TRUE,"OE","p",757,"oe","U",6,"e","e",TRUE,1,-0.487221192508133
"CVOE updated",1001,1,2,19,"E 75","","",FALSE,"OE","q",659,"oe","E",5,"o","o",TRUE,1,-0.520432466459502
"CVOE updated",1001,1,2,20,"I 67","","",FALSE,"OE","q",589,"oe","I",7,"o","o",TRUE,1,-0.544154804996194
"CVOE updated",1001,1,2,21,"S 13","","",TRUE,"OE","q",649,"oe","S",3,"o","o",TRUE,1,-0.523821371964744
"CVOE updated",1001,1,2,22,"P 78","","",FALSE,"OE","p",787,"oe","P",8,"e","e",TRUE,1,-0.477054475992408
"CVOE updated",1001,1,2,23,"I 15","","",FALSE,"OE","q",672,"oe","I",5,"o","o",TRUE,1,-0.516026889302688
"CVOE updated",1001,1,2,24,"D 27","","",TRUE,"OE","q",673,"oe","D",7,"o","o",TRUE,1,-0.515687998752164
"CVOE updated",1001,1,2,25,"O 94","","",TRUE,"OE","p",714,"oe","O",4,"e","e",TRUE,1,-0.501793486180673
"CVOE updated",1001,1,2,26,"A 65","","",FALSE,"OE","q",690,"oe","A",5,"o","o",TRUE,1,-0.509926859393253
"CVOE updated",1001,1,2,27,"I 42","","",TRUE,"OE","p",546,"oe","I",2,"e","e",TRUE,1,-0.558727098668734
"CVOE updated",1001,1,2,28,"E 25","","",FALSE,"OE","q",680,"oe","E",5,"o","o",TRUE,1,-0.513315764898495
"CVOE updated",1001,1,2,29,"H 49","","",TRUE,"OE","q",745,"oe","H",9,"o","o",TRUE,1,-0.491287879114423
"CVOE updated",1001,1,2,30,"S 18","","",FALSE,"OE","p",1271,"oe","S",8,"e","e",TRUE,1,-0.313031449538709
"CVOE updated",1001,1,2,31,"H 51","","",TRUE,"OE","q",1393,"oe","H",1,"o","o",TRUE,1,-0.27168680237476
"CVOE updated",1001,1,2,32,"U 14","","",TRUE,"OE","p",677,"oe","U",4,"e","e",TRUE,1,-0.514332436550067
"CVOE updated",1001,1,2,33,"E 02","","",TRUE,"OE","p",526,"oe","E",2,"e","e",TRUE,1,-0.565504909679217
"CVOE updated",1001,1,2,34,"J 26","","",FALSE,"OE","p",532,"oe","J",6,"e","e",TRUE,1,-0.563471566376072
"CVOE updated",1001,1,2,35,"D 24","","",FALSE,"OE","p",515,"oe","D",4,"e","e",TRUE,1,-0.569232705734983
"CVOE updated",1001,1,2,36,"O 50","","",TRUE,"OE","p",618,"oe","O",0,"e","e",TRUE,1,-0.534326979030993
"CVOE updated",1001,1,2,37,"U 16","","",TRUE,"OE","p",605,"oe","U",6,"e","e",TRUE,1,-0.538732556187808
"CVOE updated",1001,1,2,38,"O 15","","",FALSE,"OE","q",801,"oe","O",5,"o","o",TRUE,1,-0.47231000828507
"CVOE updated",1001,1,2,39,"D 32","","",FALSE,"OE","p",941,"oe","D",2,"e","e",TRUE,1,-0.424865331211686
"CVOE updated",1001,1,2,40,"S 67","","",TRUE,"OE","q",620,"oe","S",7,"o","o",TRUE,1,-0.533649197929945
"CVOE updated",1001,1,2,41,"J 74","","",FALSE,"OE","p",1095,"oe","J",4,"e","e",TRUE,1,-0.372676186430963
"CVOE updated",1001,1,2,42,"D 92","","",FALSE,"OE","p",600,"oe","D",2,"e","e",TRUE,1,-0.540427008940428
"CVOE updated",1001,1,2,43,"A 65","","",FALSE,"OE","q",644,"oe","A",5,"o","o",TRUE,1,-0.525515824717365
"CVOE updated",1001,1,2,44,"I 87","","",FALSE,"OE","q",558,"oe","I",7,"o","o",TRUE,1,-0.554660412062444
"CVOE updated",1001,1,2,45,"H 61","","",TRUE,"OE","q",643,"oe","H",1,"o","o",TRUE,1,-0.525854715267889
"CVOE updated",1001,1,2,46,"E 59","","",FALSE,"OE","q",517,"oe","E",9,"o","o",TRUE,1,-0.568554924633935
"CVOE updated",1001,1,2,47,"I 33","","",FALSE,"OE","q",605,"oe","I",3,"o","o",TRUE,1,-0.538732556187808
"CVOE updated",1001,1,2,48,"O 90","","",TRUE,"OE","p",793,"oe","O",0,"e","e",TRUE,1,-0.475021132689263
"CVOE updated",1001,1,2,49,"U 51","","",FALSE,"OE","q",901,"oe","U",1,"o","o",TRUE,1,-0.438420953232653
"CVOE updated",1001,1,2,50,"A 10","","",TRUE,"OE","p",869,"oe","A",0,"e","e",TRUE,1,-0.449265450849426
"CVOE updated",1001,1,2,51,"E 50","","",TRUE,"OE","p",686,"oe","E",0,"e","e",TRUE,1,-0.51128242159535
"CVOE updated",1001,1,2,52,"D 92","","",FALSE,"OE","p",527,"oe","D",2,"e","e",TRUE,1,-0.565166019128693
"CVOE updated",1001,1,2,53,"E 60","","",TRUE,"OE","p",573,"oe","E",0,"e","e",TRUE,1,-0.549577053804581
"CVOE updated",1001,1,2,54,"A 95","","",FALSE,"OE","q",715,"oe","A",5,"o","o",TRUE,1,-0.501454595630149
"CVOE updated",1001,1,2,55,"E 64","","",TRUE,"OE","p",842,"oe","E",4,"e","e",TRUE,1,-0.458415495713579
"CVOE updated",1001,1,2,56,"P 20","","",FALSE,"OE","p",788,"oe","P",0,"e","e",TRUE,1,-0.476715585441884
"CVOE updated",1001,1,2,57,"S 06","","",FALSE,"OE","p",681,"oe","S",6,"e","e",TRUE,1,-0.51297687434797
"CVOE updated",1001,1,2,58,"P 64","","",FALSE,"OE","p",624,"oe","P",4,"e","e",TRUE,1,-0.532293635727848
"CVOE updated",1001,1,2,59,"U 70","","",TRUE,"OE","p",660,"oe","U",0,"e","e",TRUE,1,-0.520093575908978
"CVOE updated",1001,1,2,60,"S 16","","",FALSE,"OE","p",613,"oe","S",6,"e","e",TRUE,1,-0.536021431783614
"CVOE updated",1001,1,2,61,"E 35","","",FALSE,"OE","q",760,"oe","E",5,"o","o",TRUE,1,-0.486204520856561
"CVOE updated",1001,1,2,62,"I 93","","",FALSE,"OE","q",789,"oe","I",3,"o","o",TRUE,1,-0.47637669489136
"CVOE updated",1001,1,2,63,"D 63","","",TRUE,"OE","q",562,"oe","D",3,"o","o",TRUE,1,-0.553304849860347
"CVOE updated",1001,1,2,64,"U 89","","",FALSE,"OE","q",655,"oe","U",9,"o","o",TRUE,1,-0.521788028661599
"CVOE updated",1001,1,2,65,"E 91","","",FALSE,"OE","q",649,"oe","E",1,"o","o",TRUE,1,-0.523821371964744
"CVOE updated",1001,1,2,66,"A 12","","",TRUE,"OE","p",755,"oe","A",2,"e","e",TRUE,1,-0.487898973609182
"CVOE updated",1001,1,2,67,"P 56","","",FALSE,"OE","p",985,"oe","P",6,"e","e",TRUE,1,-0.409954146988622
"CVOE updated",1001,1,2,68,"S 65","","",TRUE,"OE","q",758,"oe","S",5,"o","o",TRUE,1,-0.486882301957609
"CVOE updated",1001,1,2,69,"P 07","","",TRUE,"OE","q",883,"oe","P",7,"o","o",TRUE,1,-0.444520983142088
"CVOE updated",1001,1,2,70,"I 77","","",FALSE,"OE","q",548,"oe","I",7,"o","o",TRUE,1,-0.558049317567685
"CVOE updated",1001,1,2,71,"J 19","","",TRUE,"OE","q",634,"oe","J",9,"o","o",TRUE,1,-0.528904730222607
"CVOE updated",1001,1,2,72,"O 59","","",FALSE,"OE","q",644,"oe","O",9,"o","o",TRUE,1,-0.525515824717365
"CVOE updated",1001,1,2,73,"J 15","","",TRUE,"OE","q",702,"oe","J",5,"o","o",TRUE,1,-0.505860172786963
"CVOE updated",1001,1,2,74,"I 89","","",FALSE,"OE","q",910,"oe","I",9,"o","o",TRUE,1,-0.435370938277935
"CVOE updated",1001,1,2,75,"O 97","","",FALSE,"OE","q",750,"oe","O",7,"o","o",TRUE,1,-0.489593426361803
"CVOE updated",1001,1,2,76,"A 92","","",TRUE,"OE","p",868,"oe","A",2,"e","e",TRUE,1,-0.44960434139995
"CVOE updated",1001,1,2,77,"J 90","","",FALSE,"OE","p",565,"oe","J",0,"e","e",TRUE,1,-0.552288178208775
"CVOE updated",1001,1,2,78,"H 65","","",TRUE,"OE","q",763,"oe","H",5,"o","o",TRUE,1,-0.485187849204988
"CVOE updated",1001,1,2,79,"H 17","","",TRUE,"OE","q",648,"oe","H",7,"o","o",TRUE,1,-0.524160262515268
"CVOE updated",1001,1,2,80,"S 26","","",FALSE,"OE","p",690,"oe","S",6,"e","e",TRUE,1,-0.509926859393253
"CVOE updated",1001,1,2,81,"D 56","","",FALSE,"OE","p",507,"oe","D",6,"e","e",TRUE,1,-0.571943830139176
"CVOE updated",1001,1,2,82,"I 91","","",FALSE,"OE","q",738,"oe","I",1,"o","o",TRUE,1,-0.493660112968093
"CVOE updated",1001,1,2,83,"J 11","","",TRUE,"OE","q",673,"oe","J",1,"o","o",TRUE,1,-0.515687998752164
"CVOE updated",1001,1,2,84,"O 28","","",TRUE,"OE","p",1050,"oe","O",8,"e","e",TRUE,1,-0.387926261204551
"CVOE updated",1001,1,2,85,"H 29","","",TRUE,"OE","q",685,"oe","H",9,"o","o",TRUE,1,-0.511621312145874
"CVOE updated",1001,1,2,86,"J 25","","",TRUE,"OE","q",813,"oe","J",5,"o","o",TRUE,1,-0.46824332167878
"CVOE updated",1001,1,2,87,"A 73","","",FALSE,"OE","q",521,"oe","A",3,"o","o",TRUE,1,-0.567199362431838
"CVOE updated",1001,1,2,88,"J 63","","",TRUE,"OE","q",552,"oe","J",3,"o","o",TRUE,1,-0.556693755365589
"CVOE updated",1001,1,2,89,"U 84","","",TRUE,"OE","p",758,"oe","U",4,"e","e",TRUE,1,-0.486882301957609
"CVOE updated",1001,1,2,90,"A 58","","",TRUE,"OE","p",547,"oe","A",8,"e","e",TRUE,1,-0.55838820811821
"CVOE updated",1001,1,2,91,"S 43","","",TRUE,"OE","q",681,"oe","S",3,"o","o",TRUE,1,-0.51297687434797
"CVOE updated",1001,1,2,92,"H 54","","",FALSE,"OE","p",794,"oe","H",4,"e","e",TRUE,1,-0.474682242138739
"CVOE updated",1001,1,2,93,"D 4","","",FALSE,"OE","p",798,"oe","D",NA,"o","e",FALSE,0,-0.473326679936642
"CVOE updated",1001,1,2,94,"J 75","","",TRUE,"OE","q",786,"oe","J",5,"o","o",TRUE,1,-0.477393366542932
"CVOE updated",1001,1,2,95,"D 19","","",TRUE,"OE","q",1327,"oe","D",9,"o","o",TRUE,1,-0.294053578709355
"CVOE updated",1001,1,2,96,"J 38","","",FALSE,"OE","p",1046,"oe","J",8,"e","e",TRUE,1,-0.389281823406647
"CVOE updated",1001,1,2,97,"I 56","","",TRUE,"OE","p",1232,"oe","I",6,"e","e",TRUE,1,-0.326248181009151
"CVOE updated",1001,1,2,98,"P 87","","",TRUE,"OE","q",763,"oe","P",7,"o","o",TRUE,1,-0.485187849204988
"CVOE updated",1001,1,2,99,"O 80","","",TRUE,"OE","p",1008,"oe","O",0,"e","e",TRUE,1,-0.402159664326566
"CVOE updated",1001,1,2,100,"U 60","","",TRUE,"OE","p",676,"oe","U",0,"e","e",TRUE,1,-0.514671327100591
"CVOE updated",1001,1,2,101,"P 48","","",FALSE,"OE","p",844,"oe","P",8,"e","e",TRUE,1,-0.45773771461253
"CVOE updated",1001,1,2,102,"H 64","","",FALSE,"OE","p",702,"oe","H",4,"e","e",TRUE,1,-0.505860172786963
"CVOE updated",1001,1,2,103,"A 13","","",FALSE,"OE","q",726,"oe","A",3,"o","o",TRUE,1,-0.497726799574383
"CVOE updated",1001,1,2,104,"H 68","","",FALSE,"OE","p",813,"oe","H",8,"e","e",TRUE,1,-0.46824332167878
"CVOE updated",1001,1,2,105,"E 16","","",TRUE,"OE","p",696,"oe","E",6,"e","e",TRUE,1,-0.507893516090108
"CVOE updated",1001,1,2,106,"S 71","","",TRUE,"OE","q",528,"oe","S",1,"o","o",TRUE,1,-0.564827128578169
"CVOE_C",2003,1,1,12,"O 83","","",FALSE,"OE","q",4426,"oe","O",3,"o","o",TRUE,1,0.756168237365056
"CVOE_C",2003,1,1,13,"H 55","","",TRUE,"OE","q",2678,"oe","H",5,"o","o",TRUE,1,0.163787555048802
"CVOE_C",2003,1,1,14,"P 10","","",FALSE,"OE","p",2056,"oe","P",0,"e","e",TRUE,1,-0.0470023673772332
"CVOE_C",2003,1,1,15,"D 30","","",FALSE,"OE","p",3555,"oe","D",0,"e","e",TRUE,1,0.460994567858501
"CVOE_C",2003,1,1,16,"U 62","","",TRUE,"OE","p",4066,"oe","U",2,"e","e",TRUE,1,0.634167639176354
"CVOE_C",2003,1,1,17,"P 95","","",TRUE,"OE","q",2062,"oe","P",5,"o","o",TRUE,1,-0.0449690240740882
"CVOE_C",2003,1,1,18,"U 06","","",TRUE,"OE","p",5272,"oe","U",6,"e","e",TRUE,1,1.04286964310851
"CVOE_C",2003,1,1,19,"E 75","","",FALSE,"OE","q",2956,"oe","E",5,"o","o",TRUE,1,0.257999128094522
"CVOE_C",2003,1,1,20,"I 67","","",FALSE,"OE","q",2019,"oe","I",7,"o","o",TRUE,1,-0.0595413177466276
"CVOE_C",2003,1,1,21,"S 13","","",TRUE,"OE","q",2351,"oe","S",3,"o","o",TRUE,1,0.0529703450273977
"CVOE_C",2003,1,1,22,"P 78","","",FALSE,"OE","p",4190,"oe","P",8,"e","e",TRUE,1,0.676190067441351
"CVOE_C",2003,1,1,23,"I 15","","",FALSE,"OE","q",1340,"oe","I",5,"o","o",TRUE,1,-0.289648001552541
"CVOE_C",2003,1,1,24,"D 27","","",TRUE,"OE","q",1331,"oe","D",7,"o","o",TRUE,1,-0.292698016507258
"CVOE_C",2003,1,1,25,"O 94","","",TRUE,"OE","q",3250,"oe","O",4,"e","o",FALSE,0,0.357632949948629
"CVOE_C",2003,1,1,26,"A 65","","",FALSE,"OE","q",2949,"oe","A",5,"o","o",TRUE,1,0.255626894240853
"CVOE_C",2003,1,1,27,"I 42","","",TRUE,"OE","p",2188,"oe","I",2,"e","e",TRUE,1,-0.00226881470804244
"CVOE_C",2003,1,1,28,"E 25","","",FALSE,"OE","q",1466,"oe","E",5,"o","o",TRUE,1,-0.246947792186495
"CVOE_C",2003,1,1,29,"H 49","","",TRUE,"OE","q",1643,"oe","H",9,"o","o",TRUE,1,-0.186964164743716
"CVOE_C",2003,1,1,30,"S 18","","",FALSE,"OE","p",3054,"oe","S",8,"e","e",TRUE,1,0.291210402045891
"CVOE_C",2003,1,1,31,"H 51","","",TRUE,"OE","q",1369,"oe","H",1,"o","o",TRUE,1,-0.27982017558734
"CVOE_C",2003,1,1,32,"U 14","","",TRUE,"OE","p",1807,"oe","U",4,"e","e",TRUE,1,-0.131386114457752
"CVOE_C",2003,1,1,33,"E 02","","",TRUE,"OE","p",2388,"oe","E",2,"e","e",TRUE,1,0.0655092953967921
"CVOE_C",2003,1,1,34,"J 26","","",FALSE,"OE","p",1281,"oe","J",6,"e","e",TRUE,1,-0.309642544033467
"CVOE_C",2003,1,1,35,"D 24","","",FALSE,"OE","p",1154,"oe","D",4,"e","e",TRUE,1,-0.352681643950037
"CVOE_C",2003,1,1,36,"O 50","","",TRUE,"OE","p",2200,"oe","O",0,"e","e",TRUE,1,0.00179787189824763
"CVOE_C",2003,1,1,37,"U 16","","",TRUE,"OE","p",1741,"oe","U",6,"e","e",TRUE,1,-0.153752890792348
"CVOE_C",2003,1,1,38,"O 15","","",FALSE,"OE","q",1604,"oe","O",5,"o","o",TRUE,1,-0.200180896214159
"CVOE_C",2003,1,1,39,"D 32","","",FALSE,"OE","q",1488,"oe","D",2,"e","o",FALSE,0,-0.239492200074963
"CVOE_C",2003,1,1,40,"S 67","","",TRUE,"OE","q",9033,"oe","S",7,"o","o",TRUE,1,2.31743700362992
"CVOE_C",2003,1,1,41,"J 74","","",FALSE,"OE","p",5256,"oe","J",4,"e","e",TRUE,1,1.03744739430012
"CVOE_C",2003,1,1,42,"D 92","","",FALSE,"OE","p",7844,"oe","D",2,"e","e",TRUE,1,1.91449613905668
"CVOE_C",2003,1,1,43,"A 65","","",FALSE,"OE","q",1874,"oe","A",5,"o","o",TRUE,1,-0.108680447572633
"CVOE_C",2003,1,1,44,"I 87","","",FALSE,"OE","q",2124,"oe","I",7,"o","o",TRUE,1,-0.0239578099415895
"CVOE_C",2003,1,1,45,"H 61","","",TRUE,"OE","q",1636,"oe","H",1,"o","o",TRUE,1,-0.189336398597386
"CVOE_C",2003,1,1,46,"E 59","","",FALSE,"OE","q",1799,"oe","E",9,"o","o",TRUE,1,-0.134097238861946
"CVOE_C",2003,1,1,47,"I 33","","",FALSE,"OE","q",7483,"oe","I",3,"o","o",TRUE,1,1.79215665031745
"CVOE_C",2003,1,1,48,"O 90","","",TRUE,"OE","p",5391,"oe","O",0,"e","e",TRUE,1,1.08319761862088
"CVOE_C",2003,1,1,49,"U 51","","",FALSE,"OE","q",1493,"oe","U",1,"o","o",TRUE,1,-0.237797747322342
"CVOE_C",2003,1,1,50,"A 10","","",TRUE,"OE","p",1910,"oe","A",0,"e","e",TRUE,1,-0.0964803877537624
"CVOE_C",2003,1,1,51,"E 50","","",TRUE,"OE","p",1350,"oe","E",0,"e","e",TRUE,1,-0.286259096047299
"CVOE_C",2003,1,1,52,"D 92","","",FALSE,"OE","q",2396,"oe","D",2,"e","o",FALSE,0,0.0682204198009854
"CVOE_C",2003,1,1,53,"E 60","","",TRUE,"OE","p",1697,"oe","E",0,"e","e",TRUE,1,-0.168664075015411
"CVOE_C",2003,1,1,54,"A 95","","",FALSE,"OE","q",2898,"oe","A",5,"o","o",TRUE,1,0.23834347616412
"CVOE_C",2003,1,1,55,"E 64","","",TRUE,"OE","p",7619,"oe","E",4,"e","e",TRUE,1,1.83824576518874
"CVOE_C",2003,1,1,56,"P 20","","",FALSE,"OE","p",1362,"oe","P",0,"e","e",TRUE,1,-0.282192409441009
"CVOE_C",2003,1,1,57,"S 06","","",FALSE,"OE","p",1376,"oe","S",6,"e","e",TRUE,1,-0.277447941733671
"CVOE_C",2003,1,1,58,"P 64","","",FALSE,"OE","p",1285,"oe","P",4,"e","e",TRUE,1,-0.30828698183137
"CVOE_C",2003,1,1,59,"U 70","","",TRUE,"OE","p",1342,"oe","U",0,"e","e",TRUE,1,-0.288970220451492
"CVOE_C",2003,1,1,60,"S 16","","",FALSE,"OE","p",1260,"oe","S",6,"e","e",TRUE,1,-0.316759245594475
"CVOE_C",2003,1,1,61,"E 35","","",FALSE,"OE","q",1902,"oe","E",5,"o","o",TRUE,1,-0.0991915121579558
"CVOE_C",2003,1,1,62,"I 93","","",FALSE,"OE","q",2542,"oe","I",3,"o","o",TRUE,1,0.117698440177515
"CVOE_C",2003,1,1,63,"D 63","","",TRUE,"OE","q",2077,"oe","D",3,"o","o",TRUE,1,-0.0398856658162256
"CVOE_C",2003,1,1,64,"U 89","","",FALSE,"OE","q",2063,"oe","U",9,"o","o",TRUE,1,-0.044630133523564
"CVOE_C",2003,1,1,65,"E 91","","",FALSE,"OE","q",1513,"oe","E",1,"o","o",TRUE,1,-0.231019936311859
"CVOE_C",2003,1,1,66,"A 12","","",TRUE,"OE","p",1688,"oe","A",2,"e","e",TRUE,1,-0.171714089970129
"CVOE_C",2003,1,1,67,"P 56","","",FALSE,"OE","p",4426,"oe","P",6,"e","e",TRUE,1,0.756168237365056
"CVOE_C",2003,1,1,68,"S 65","","",TRUE,"OE","q",1286,"oe","S",5,"o","o",TRUE,1,-0.307948091280846
"CVOE_C",2003,1,1,69,"P 07","","",TRUE,"OE","q",1455,"oe","P",7,"o","o",TRUE,1,-0.250675588242261
"CVOE_C",2003,1,1,70,"I 77","","",FALSE,"OE","q",1066,"oe","I",7,"o","o",TRUE,1,-0.382504012396164
"CVOE_C",2003,1,1,71,"J 19","","",TRUE,"OE","q",1715,"oe","J",9,"o","o",TRUE,1,-0.162564045105976
"CVOE_C",2003,1,1,72,"O 59","","",FALSE,"OE","q",1443,"oe","O",9,"o","o",TRUE,1,-0.254742274848551
"CVOE_C",2003,1,1,73,"J 15","","",TRUE,"OE","q",1126,"oe","J",5,"o","o",TRUE,1,-0.362170579364714
"CVOE_C",2003,1,1,74,"I 89","","",FALSE,"OE","q",1596,"oe","I",9,"o","o",TRUE,1,-0.202892020618353
"CVOE_C",2003,1,1,75,"O 97","","",FALSE,"OE","q",1225,"oe","O",7,"o","o",TRUE,1,-0.328620414862821
"CVOE_C",2003,1,1,76,"A 92","","",TRUE,"OE","q",2284,"oe","A",2,"e","o",FALSE,0,0.0302646781422781
"CVOE_C",2003,1,1,77,"J 90","","",FALSE,"OE","p",3853,"oe","J",0,"e","e",TRUE,1,0.561983951914705
"CVOE_C",2003,1,1,78,"H 65","","",TRUE,"OE","q",1569,"oe","H",5,"o","o",TRUE,1,-0.212042065482505
"CVOE_C",2003,1,1,79,"H 17","","",TRUE,"OE","q",863,"oe","H",7,"o","o",TRUE,1,-0.451298794152571
"CVOE_C",2003,1,1,80,"S 26","","",FALSE,"OE","p",1752,"oe","S",6,"e","e",TRUE,1,-0.150025094736582
"CVOE_C",2003,1,1,81,"D 56","","",FALSE,"OE","q",3007,"oe","D",6,"e","o",FALSE,0,0.275282546171255
"CVOE_C",2003,1,1,82,"I 91","","",FALSE,"OE","q",1948,"oe","I",1,"o","o",TRUE,1,-0.0836025468338439
"CVOE_C",2003,1,1,83,"J 11","","",TRUE,"OE","q",1474,"oe","J",1,"o","o",TRUE,1,-0.244236667782302
"CVOE_C",2003,1,1,84,"O 28","","",TRUE,"OE","p",2235,"oe","O",8,"e","e",TRUE,1,0.0136590411665937
"CVOE_C",2003,1,1,85,"H 29","","",TRUE,"OE","q",1775,"oe","H",9,"o","o",TRUE,1,-0.142230612074526
"CVOE_C",2003,1,1,86,"J 25","","",TRUE,"OE","p",1956,"oe","J",5,"o","e",FALSE,0,-0.0808914224296505
"CVOE_C",2003,1,1,87,"A 73","","",FALSE,"OE","q",1819,"oe","A",3,"o","o",TRUE,1,-0.127319427851462
"CVOE_C",2003,1,1,88,"J 63","","",TRUE,"OE","q",1679,"oe","J",3,"o","o",TRUE,1,-0.174764104924846
"CVOE_C",2003,1,1,89,"U 84","","",TRUE,"OE","p",1592,"oe","U",4,"e","e",TRUE,1,-0.204247582820449
"CVOE_C",2003,1,1,90,"A 58","","",TRUE,"OE","p",4252,"oe","A",8,"e","e",TRUE,1,0.69720128157385
"CVOE_C",2003,1,1,91,"S 43","","",TRUE,"OE","q",1624,"oe","S",3,"o","o",TRUE,1,-0.193403085203676
"CVOE_C",2003,1,1,92,"H 54","","",FALSE,"OE","p",2587,"oe","H",4,"e","e",TRUE,1,0.132948514951102
"CVOE_C",2003,1,1,93,"D 4","","",FALSE,"OE","p",729,"oe","D",NA,"o","e",FALSE,0,-0.49671012792281
"CVOE_C",2003,1,1,94,"J 75","","",TRUE,"OE","q",3568,"oe","J",5,"o","o",TRUE,1,0.465400145015316
"CVOE_C",2003,1,1,95,"D 19","","",TRUE,"OE","q",2455,"oe","D",9,"o","o",TRUE,1,0.0882149622819116
"CVOE_C",2003,1,1,96,"J 38","","",FALSE,"OE","p",8202,"oe","J",8,"e","e",TRUE,1,2.03581895614433
"CVOE_C",2003,1,1,97,"I 56","","",TRUE,"OE","q",4314,"oe","I",6,"e","o",FALSE,0,0.718212495706348
"CVOE_C",2003,1,1,98,"P 87","","",TRUE,"OE","q",1819,"oe","P",7,"o","o",TRUE,1,-0.127319427851462
"CVOE_C",2003,1,1,99,"O 80","","",TRUE,"OE","p",2399,"oe","O",0,"e","e",TRUE,1,0.069237091452558
"CVOE_C",2003,1,1,100,"U 60","","",TRUE,"OE","p",676,"oe","U",0,"e","e",TRUE,1,-0.514671327100591
"CVOE_C",2003,1,1,101,"P 48","","",FALSE,"OE","p",973,"oe","P",8,"e","e",TRUE,1,-0.414020833594912
"CVOE_C",2003,1,1,102,"H 64","","",FALSE,"OE","p",1210,"oe","H",4,"e","e",TRUE,1,-0.333703773120683
"CVOE_C",2003,1,1,103,"A 13","","",FALSE,"OE","q",1334,"oe","A",3,"o","o",TRUE,1,-0.291681344855686
"CVOE_C",2003,1,1,104,"H 68","","",FALSE,"OE","p",2245,"oe","H",8,"e","e",TRUE,1,0.0170479466718354
"CVOE_C",2003,1,1,105,"E 16","","",TRUE,"OE","p",927,"oe","E",6,"e","e",TRUE,1,-0.429609798919024
"CVOE_C",2003,1,1,106,"S 71","","",TRUE,"OE","q",1190,"oe","S",1,"o","o",TRUE,1,-0.340481584131167
"CVOE updated",2001,1,2,12,"O 83","","",FALSE,"OE","p",5667,"oe","O",3,"o","e",FALSE,0,1.17673141056555
"CVOE updated",2001,1,2,13,"H 55","","",TRUE,"OE","q",4456,"oe","H",5,"o","o",TRUE,1,0.766334953880781
"CVOE updated",2001,1,2,15,"D 30","","",FALSE,"OE","p",3037,"oe","D",0,"e","e",TRUE,1,0.28544926268698
"CVOE updated",2001,1,2,16,"U 62","","",TRUE,"OE","q",4999,"oe","U",2,"e","o",FALSE,0,0.950352522815407
"CVOE updated",2001,1,2,17,"P 95","","",TRUE,"OE","p",3282,"oe","P",5,"o","e",FALSE,0,0.368477447565402
"CVOE updated",2001,1,2,18,"U 06","","",TRUE,"OE","q",1115,"oe","U",6,"e","o",FALSE,0,-0.36589837542048
"CVOE updated",2001,1,2,19,"E 75","","",FALSE,"OE","p",4726,"oe","E",5,"o","e",FALSE,0,0.857835402522307
"CVOE updated",2001,1,2,20,"I 67","","",FALSE,"OE","q",3511,"oe","I",7,"o","o",TRUE,1,0.446083383635438
"CVOE updated",2001,1,2,21,"S 13","","",TRUE,"OE","q",6809,"oe","S",3,"o","o",TRUE,1,1.56374441926416
"CVOE updated",2001,1,2,22,"P 78","","",FALSE,"OE","q",5151,"oe","P",8,"e","o",FALSE,0,1.00186388649508
"CVOE updated",2001,1,2,23,"I 15","","",FALSE,"OE","p",2070,"oe","I",5,"o","e",FALSE,0,-0.0422578996698948
"CVOE updated",2001,1,2,24,"D 27","","",TRUE,"OE","p",4492,"oe","D",7,"o","e",FALSE,0,0.778535013699651
"CVOE updated",2001,1,2,25,"O 94","","",TRUE,"OE","p",3355,"oe","O",4,"e","e",TRUE,1,0.393216457753667
"CVOE updated",2001,1,2,26,"A 65","","",FALSE,"OE","q",1083,"oe","A",5,"o","o",TRUE,1,-0.376742873037253
"CVOE updated",2001,1,2,27,"I 42","","",TRUE,"OE","p",9625,"oe","I",2,"e","e",TRUE,1,2.51806020954023
"CVOE updated",2001,1,2,28,"E 25","","",FALSE,"OE","q",5980,"oe","E",5,"o","o",TRUE,1,1.28280415287962
"CVOE updated",2001,1,2,29,"H 49","","",TRUE,"OE","p",5900,"oe","H",9,"o","e",FALSE,0,1.25569290883769
"CVOE updated",2001,1,2,30,"S 18","","",FALSE,"OE","p",3593,"oe","S",8,"e","e",TRUE,1,0.47387240877842
"CVOE updated",2001,1,2,31,"H 51","","",TRUE,"OE","q",3359,"oe","H",1,"o","o",TRUE,1,0.394572019955764
"CVOE updated",2001,1,2,32,"U 14","","",TRUE,"OE","q",4652,"oe","U",4,"e","o",FALSE,0,0.832757501783519
"CVOE updated",2001,1,2,33,"E 02","","",TRUE,"OE","q",3990,"oe","E",2,"e","o",FALSE,0,0.608411957336517
"CVOE updated",2001,1,2,34,"J 26","","",FALSE,"OE","p",5430,"oe","J",6,"e","e",TRUE,1,1.09641435009133
"CVOE updated",2001,1,2,35,"D 24","","",FALSE,"OE","q",2965,"oe","D",4,"e","o",FALSE,0,0.26104914304924
"CVOE updated",2001,1,2,36,"O 50","","",TRUE,"OE","q",2370,"oe","O",0,"e","o",FALSE,0,0.059409265487357
"CVOE updated",2001,1,2,37,"U 16","","",TRUE,"OE","q",2807,"oe","U",6,"e","o",FALSE,0,0.20750443606642
"CVOE updated",2001,1,2,38,"O 15","","",FALSE,"OE","q",2106,"oe","O",5,"o","o",TRUE,1,-0.0300578398510246
"CVOE updated",2001,1,2,39,"D 32","","",FALSE,"OE","p",5395,"oe","D",2,"e","e",TRUE,1,1.08455318082298
"CVOE updated",2001,1,2,40,"S 67","","",TRUE,"OE","p",5118,"oe","S",7,"o","e",FALSE,0,0.990680498327783
"CVOE updated",2001,1,2,41,"J 74","","",FALSE,"OE","q",2893,"oe","J",4,"e","o",FALSE,0,0.236649023411499
"CVOE updated",2001,1,2,42,"D 92","","",FALSE,"OE","p",3438,"oe","D",2,"e","e",TRUE,1,0.421344373447173
"CVOE updated",2001,1,2,43,"A 65","","",FALSE,"OE","q",4529,"oe","A",5,"o","o",TRUE,1,0.791073964069046
"CVOE updated",2001,1,2,44,"I 87","","",FALSE,"OE","q",1126,"oe","I",7,"o","o",TRUE,1,-0.362170579364714
"CVOE updated",2001,1,2,45,"H 61","","",TRUE,"OE","q",3937,"oe","H",1,"o","o",TRUE,1,0.590450758158735
"CVOE updated",2001,1,2,46,"E 59","","",FALSE,"OE","q",1784,"oe","E",9,"o","o",TRUE,1,-0.139180597119808
"CVOE updated",2001,1,2,47,"I 33","","",FALSE,"OE","q",2456,"oe","I",3,"o","o",TRUE,1,0.0885538528324358
"CVOE updated",2001,1,2,48,"O 90","","",TRUE,"OE","q",2693,"oe","O",0,"e","o",FALSE,0,0.168870913306665
"CVOE updated",2001,1,2,49,"U 51","","",FALSE,"OE","q",5476,"oe","U",1,"o","o",TRUE,1,1.11200331541544
"CVOE updated",2001,1,2,51,"E 50","","",TRUE,"OE","q",8524,"oe","E",0,"e","o",FALSE,0,2.14494171341312
"CVOE updated",2001,1,2,52,"D 92","","",FALSE,"OE","p",2888,"oe","D",2,"e","e",TRUE,1,0.234954570658878
"CVOE updated",2001,1,2,53,"E 60","","",TRUE,"OE","p",7821,"oe","E",0,"e","e",TRUE,1,1.90670165639462
"CVOE updated",2001,1,2,54,"A 95","","",FALSE,"OE","q",4829,"oe","A",5,"o","o",TRUE,1,0.892741129226297
"CVOE updated",2001,1,2,55,"E 64","","",TRUE,"OE","q",6725,"oe","E",4,"e","o",FALSE,0,1.53527761302013
"CVOE updated",2001,1,2,56,"P 20","","",FALSE,"OE","q",3661,"oe","P",0,"e","o",FALSE,0,0.496916966214064
"CVOE updated",2001,1,2,57,"S 06","","",FALSE,"OE","q",5084,"oe","S",6,"e","o",FALSE,0,0.979158219609961
"CVOE updated",2001,1,2,58,"P 64","","",FALSE,"OE","p",4537,"oe","P",4,"e","e",TRUE,1,0.793785088473239
"CVOE updated",2001,1,2,59,"U 70","","",TRUE,"OE","p",8167,"oe","U",0,"e","e",TRUE,1,2.02395778687599
"CVOE updated",2001,1,2,60,"S 16","","",FALSE,"OE","q",6956,"oe","S",6,"e","o",FALSE,0,1.61356133019121
"CVOE updated",2001,1,2,61,"E 35","","",FALSE,"OE","p",6220,"oe","E",5,"o","e",FALSE,0,1.36413788500542
"CVOE updated",2001,1,2,62,"I 93","","",FALSE,"OE","q",4928,"oe","I",3,"o","o",TRUE,1,0.92629129372819
"CVOE updated",2001,1,2,63,"D 63","","",TRUE,"OE","q",3943,"oe","D",3,"o","o",TRUE,1,0.59248410146188
"CVOE updated",2001,1,2,64,"U 89","","",FALSE,"OE","p",2144,"oe","U",9,"o","e",FALSE,0,-0.017179998931106
"CVOE updated",2001,1,2,65,"E 91","","",FALSE,"OE","p",2189,"oe","E",1,"o","e",FALSE,0,-0.00192992415751827
"CVOE updated",2001,1,2,66,"A 12","","",TRUE,"OE","q",5335,"oe","A",2,"e","o",FALSE,0,1.06421974779153
"CVOE updated",2001,1,2,67,"P 56","","",FALSE,"OE","q",4928,"oe","P",6,"e","o",FALSE,0,0.92629129372819
"CVOE updated",2001,1,2,68,"S 65","","",TRUE,"OE","p",5746,"oe","S",5,"o","e",FALSE,0,1.20350376405696
"CVOE updated",2001,1,2,69,"P 07","","",TRUE,"OE","q",1631,"oe","P",7,"o","o",TRUE,1,-0.191030851350007
"CVOE updated",2001,1,2,70,"I 77","","",FALSE,"OE","p",4450,"oe","I",7,"o","e",FALSE,0,0.764301610577636
"CVOE updated",2001,1,2,71,"J 19","","",TRUE,"OE","p",4068,"oe","J",9,"o","e",FALSE,0,0.634845420277402
"CVOE updated",2001,1,2,72,"O 59","","",FALSE,"OE","q",4327,"oe","O",9,"o","o",TRUE,1,0.722618072863163
"CVOE updated",2001,1,2,73,"J 15","","",TRUE,"OE","q",5903,"oe","J",5,"o","o",TRUE,1,1.25670958048926
"CVOE updated",2001,1,2,74,"I 89","","",FALSE,"OE","q",4537,"oe","I",9,"o","o",TRUE,1,0.793785088473239
"CVOE updated",2001,1,2,75,"O 97","","",FALSE,"OE","q",7502,"oe","O",7,"o","o",TRUE,1,1.79859557077741
"CVOE updated",2001,1,2,76,"A 92","","",TRUE,"OE","p",1398,"oe","A",2,"e","e",TRUE,1,-0.269992349622139
"CVOE updated",2001,1,2,77,"J 90","","",FALSE,"OE","q",2452,"oe","J",0,"e","o",FALSE,0,0.0871982906303391
"CVOE updated",2001,1,2,78,"H 65","","",TRUE,"OE","p",2023,"oe","H",5,"o","e",FALSE,0,-0.0581857555445309
"CVOE updated",2001,1,2,79,"H 17","","",TRUE,"OE","p",2694,"oe","H",7,"o","e",FALSE,0,0.169209803857189
"CVOE updated",2001,1,2,80,"S 26","","",FALSE,"OE","q",6104,"oe","S",6,"e","o",FALSE,0,1.32482658114462
"CVOE updated",2001,1,2,81,"D 56","","",FALSE,"OE","p",7788,"oe","D",6,"e","e",TRUE,1,1.89551826822732
"CVOE updated",2001,1,2,82,"I 91","","",FALSE,"OE","q",1752,"oe","I",1,"o","o",TRUE,1,-0.150025094736582
"CVOE updated",2001,1,2,83,"J 11","","",TRUE,"OE","q",2103,"oe","J",1,"o","o",TRUE,1,-0.0310745115025971
"CVOE updated",2001,1,2,84,"O 28","","",TRUE,"OE","p",6412,"oe","O",8,"e","e",TRUE,1,1.42920487070606
"CVOE updated",2001,1,2,85,"H 29","","",TRUE,"OE","q",3157,"oe","H",9,"o","o",TRUE,1,0.326116128749881
"CVOE updated",2001,1,2,86,"J 25","","",TRUE,"OE","q",3043,"oe","J",5,"o","o",TRUE,1,0.287482605990125
"CVOE updated",2001,1,2,87,"A 73","","",FALSE,"OE","q",2657,"oe","A",3,"o","o",TRUE,1,0.156670853487794
"CVOE updated",2001,1,2,88,"J 63","","",TRUE,"OE","q",1597,"oe","J",3,"o","o",TRUE,1,-0.202553130067828
"CVOE updated",2001,1,2,89,"U 84","","",TRUE,"OE","p",1902,"oe","U",4,"e","e",TRUE,1,-0.0991915121579558
"CVOE updated",2001,1,2,90,"A 58","","",TRUE,"OE","p",2887,"oe","A",8,"e","e",TRUE,1,0.234615680108354
"CVOE updated",2001,1,2,91,"S 43","","",TRUE,"OE","q",4412,"oe","S",3,"o","o",TRUE,1,0.751423769657717
"CVOE updated",2001,1,2,92,"H 54","","",FALSE,"OE","q",4259,"oe","H",4,"e","o",FALSE,0,0.699573515427519
"CVOE updated",2001,1,2,93,"D 4","","",FALSE,"OE","p",4688,"oe","D",NA,"o","e",FALSE,0,0.844957561602389
"CVOE updated",2001,1,2,94,"J 75","","",TRUE,"OE","p",6015,"oe","J",5,"o","e",FALSE,0,1.29466532214797
"CVOE updated",2001,1,2,95,"D 19","","",TRUE,"OE","q",2612,"oe","D",9,"o","o",TRUE,1,0.141420778714207
"CVOE updated",2001,1,2,96,"J 38","","",FALSE,"OE","q",4225,"oe","J",8,"e","o",FALSE,0,0.688051236709697
"CVOE updated",2001,1,2,97,"I 56","","",TRUE,"OE","p",3278,"oe","I",6,"e","e",TRUE,1,0.367121885363306
"CVOE updated",2001,1,2,98,"P 87","","",TRUE,"OE","q",2930,"oe","P",7,"o","o",TRUE,1,0.249187973780894
"CVOE updated",2001,1,2,99,"O 80","","",TRUE,"OE","p",4618,"oe","O",0,"e","e",TRUE,1,0.821235223065697
"CVOE updated",2001,1,2,100,"U 60","","",TRUE,"OE","p",9435,"oe","U",0,"e","e",TRUE,1,2.45367100494064
"CVOE updated",2001,1,2,101,"P 48","","",FALSE,"OE","p",4447,"oe","P",8,"e","e",TRUE,1,0.763284938926063
"CVOE updated",2001,1,2,102,"H 64","","",FALSE,"OE","p",4183,"oe","H",4,"e","e",TRUE,1,0.673817833587682
"CVOE updated",2001,1,2,103,"A 13","","",FALSE,"OE","q",3755,"oe","A",3,"o","o",TRUE,1,0.528772677963336
"CVOE updated",2001,1,2,104,"H 68","","",FALSE,"OE","p",7349,"oe","H",8,"e","e",TRUE,1,1.74674531654721
"CVOE updated",2001,1,2,105,"E 16","","",TRUE,"OE","p",3079,"oe","E",6,"e","e",TRUE,1,0.299682665808995
"CVOE updated",2001,1,2,106,"S 71","","",TRUE,"OE","q",3912,"oe","S",1,"o","o",TRUE,1,0.581978494395631
"CVOE_B",1002,1,1,11,"A 24","","",TRUE,"OE","p",8461,"oe","A",4,"e","e",TRUE,1,2.12359160873009
"CVOE_B",1002,1,1,12,"O 83","","",FALSE,"OE","q",1323,"oe","O",3,"o","o",TRUE,1,-0.295409140911452
"CVOE_B",1002,1,1,13,"H 55","","",TRUE,"OE","p",1441,"oe","H",5,"o","e",FALSE,0,-0.255420055949599
"CVOE_B",1002,1,1,14,"P 10","","",FALSE,"OE","p",1442,"oe","P",0,"e","e",TRUE,1,-0.255081165399075
"CVOE_B",1002,1,1,15,"D 30","","",FALSE,"OE","p",1035,"oe","D",0,"e","e",TRUE,1,-0.393009619462413
"CVOE_B",1002,1,1,16,"U 62","","",TRUE,"OE","p",929,"oe","U",2,"e","e",TRUE,1,-0.428932017817976
"CVOE_B",1002,1,1,17,"P 95","","",TRUE,"OE","q",1235,"oe","P",5,"o","o",TRUE,1,-0.325231509357579
"CVOE_B",1002,1,1,18,"U 06","","",TRUE,"OE","p",850,"oe","U",6,"e","e",TRUE,1,-0.455704371309385
"CVOE_B",1002,1,1,19,"E 75","","",FALSE,"OE","q",849,"oe","E",5,"o","o",TRUE,1,-0.456043261859909
"CVOE_B",1002,1,1,20,"I 67","","",FALSE,"OE","q",1005,"oe","I",7,"o","o",TRUE,1,-0.403176335978139
"CVOE_B",1002,1,1,21,"S 13","","",TRUE,"OE","q",893,"oe","S",3,"o","o",TRUE,1,-0.441132077636846
"CVOE_B",1002,1,1,22,"P 78","","",FALSE,"OE","p",998,"oe","P",8,"e","e",TRUE,1,-0.405548569831808
"CVOE_B",1002,1,1,23,"I 15","","",FALSE,"OE","q",886,"oe","I",5,"o","o",TRUE,1,-0.443504311490515
"CVOE_B",1002,1,1,24,"D 27","","",TRUE,"OE","q",1361,"oe","D",7,"o","o",TRUE,1,-0.282531299991533
"CVOE_B",1002,1,1,25,"O 94","","",TRUE,"OE","p",881,"oe","O",4,"e","e",TRUE,1,-0.445198764243136
"CVOE_B",1002,1,1,26,"A 65","","",FALSE,"OE","q",1004,"oe","A",5,"o","o",TRUE,1,-0.403515226528663
"CVOE_B",1002,1,1,27,"I 42","","",TRUE,"OE","p",1047,"oe","I",2,"e","e",TRUE,1,-0.388942932856123
"CVOE_B",1002,1,1,28,"E 25","","",FALSE,"OE","q",807,"oe","E",5,"o","o",TRUE,1,-0.470276664981925
"CVOE_B",1002,1,1,29,"H 49","","",TRUE,"OE","q",1091,"oe","H",9,"o","o",TRUE,1,-0.37403174863306
"CVOE_B",1002,1,1,30,"S 18","","",FALSE,"OE","p",1052,"oe","S",8,"e","e",TRUE,1,-0.387248480103502
"CVOE_B",1002,1,1,31,"H 51","","",TRUE,"OE","q",694,"oe","H",1,"o","o",TRUE,1,-0.508571297191156
"CVOE_B",1002,1,1,32,"U 14","","",TRUE,"OE","p",1079,"oe","U",4,"e","e",TRUE,1,-0.37809843523935
"CVOE_B",1002,1,1,33,"E 02","","",TRUE,"OE","p",844,"oe","E",2,"e","e",TRUE,1,-0.45773771461253
"CVOE_B",1002,1,1,34,"J 26","","",FALSE,"OE","p",843,"oe","J",6,"e","e",TRUE,1,-0.458076605163055
"CVOE_B",1002,1,1,35,"D 24","","",FALSE,"OE","p",842,"oe","D",4,"e","e",TRUE,1,-0.458415495713579
"CVOE_B",1002,1,1,36,"O 50","","",TRUE,"OE","p",997,"oe","O",0,"e","e",TRUE,1,-0.405887460382332
"CVOE_B",1002,1,1,37,"U 16","","",TRUE,"OE","p",842,"oe","U",6,"e","e",TRUE,1,-0.458415495713579
"CVOE_B",1002,1,1,38,"O 15","","",FALSE,"OE","q",1232,"oe","O",5,"o","o",TRUE,1,-0.326248181009151
"CVOE_B",1002,1,1,39,"D 32","","",FALSE,"OE","p",847,"oe","D",2,"e","e",TRUE,1,-0.456721042960958
"CVOE_B",1002,1,1,40,"S 67","","",TRUE,"OE","q",1042,"oe","S",7,"o","o",TRUE,1,-0.390637385608744
"CVOE_B",1002,1,1,41,"J 74","","",FALSE,"OE","p",1232,"oe","J",4,"e","e",TRUE,1,-0.326248181009151
"CVOE_B",1002,1,1,42,"D 92","","",FALSE,"OE","p",1669,"oe","D",2,"e","e",TRUE,1,-0.178153010430088
"CVOE_B",1002,1,1,43,"A 65","","",FALSE,"OE","q",809,"oe","A",5,"o","o",TRUE,1,-0.469598883880876
"CVOE_B",1002,1,1,44,"I 87","","",FALSE,"OE","q",1233,"oe","I",7,"o","o",TRUE,1,-0.325909290458627
"CVOE_B",1002,1,1,45,"H 61","","",TRUE,"OE","q",769,"oe","H",1,"o","o",TRUE,1,-0.483154505901843
"CVOE_B",1002,1,1,46,"E 59","","",FALSE,"OE","q",931,"oe","E",9,"o","o",TRUE,1,-0.428254236716927
"CVOE_B",1002,1,1,47,"I 33","","",FALSE,"OE","q",924,"oe","I",3,"o","o",TRUE,1,-0.430626470570597
"CVOE_B",1002,1,1,48,"O 90","","",TRUE,"OE","p",739,"oe","O",0,"e","e",TRUE,1,-0.493321222417568
"CVOE_B",1002,1,1,49,"U 51","","",FALSE,"OE","q",699,"oe","U",1,"o","o",TRUE,1,-0.506876844438535
"CVOE_B",1002,1,1,50,"A 10","","",TRUE,"OE","p",1164,"oe","A",0,"e","e",TRUE,1,-0.349292738444795
"CVOE_B",1002,1,1,51,"E 50","","",TRUE,"OE","p",610,"oe","E",0,"e","e",TRUE,1,-0.537038103435187
"CVOE_B",1002,1,1,52,"D 92","","",FALSE,"OE","p",608,"oe","D",2,"e","e",TRUE,1,-0.537715884536235
"CVOE_B",1002,1,1,53,"E 60","","",TRUE,"OE","p",803,"oe","E",0,"e","e",TRUE,1,-0.471632227184021
"CVOE_B",1002,1,1,54,"A 95","","",FALSE,"OE","q",1165,"oe","A",5,"o","o",TRUE,1,-0.348953847894271
"CVOE_B",1002,1,1,55,"E 64","","",TRUE,"OE","p",808,"oe","E",4,"e","e",TRUE,1,-0.469937774431401
"CVOE_B",1002,1,1,56,"P 20","","",FALSE,"OE","p",1075,"oe","P",0,"e","e",TRUE,1,-0.379453997441446
"CVOE_B",1002,1,1,57,"S 06","","",FALSE,"OE","p",1036,"oe","S",6,"e","e",TRUE,1,-0.392670728911889
"CVOE_B",1002,1,1,58,"P 64","","",FALSE,"OE","p",673,"oe","P",4,"e","e",TRUE,1,-0.515687998752164
"CVOE_B",1002,1,1,59,"U 70","","",TRUE,"OE","p",778,"oe","U",0,"e","e",TRUE,1,-0.480104490947126
"CVOE_B",1002,1,1,60,"S 16","","",FALSE,"OE","p",883,"oe","S",6,"e","e",TRUE,1,-0.444520983142088
"CVOE_B",1002,1,1,61,"E 35","","",FALSE,"OE","q",732,"oe","E",5,"o","o",TRUE,1,-0.495693456271238
"CVOE_B",1002,1,1,62,"I 93","","",FALSE,"OE","q",691,"oe","I",3,"o","o",TRUE,1,-0.509587968842729
"CVOE_B",1002,1,1,63,"D 63","","",TRUE,"OE","q",763,"oe","D",3,"o","o",TRUE,1,-0.485187849204988
"CVOE_B",1002,1,1,64,"U 89","","",FALSE,"OE","q",808,"oe","U",9,"o","o",TRUE,1,-0.469937774431401
"CVOE_B",1002,1,1,65,"E 91","","",FALSE,"OE","q",762,"oe","E",1,"o","o",TRUE,1,-0.485526739755512
"CVOE_B",1002,1,1,66,"A 12","","",TRUE,"OE","p",650,"oe","A",2,"e","e",TRUE,1,-0.52348248141422
"CVOE_B",1002,1,1,67,"P 56","","",FALSE,"OE","p",1084,"oe","P",6,"e","e",TRUE,1,-0.376403982486729
"CVOE_B",1002,1,1,68,"S 65","","",TRUE,"OE","q",771,"oe","S",5,"o","o",TRUE,1,-0.482476724800795
"CVOE_B",1002,1,1,69,"P 07","","",TRUE,"OE","q",1637,"oe","P",7,"o","o",TRUE,1,-0.188997508046862
"CVOE_B",1002,1,1,70,"I 77","","",FALSE,"OE","q",1045,"oe","I",7,"o","o",TRUE,1,-0.389620713957172
"CVOE_B",1002,1,1,71,"J 19","","",TRUE,"OE","q",1392,"oe","J",9,"o","o",TRUE,1,-0.272025692925284
"CVOE_B",1002,1,1,72,"O 59","","",FALSE,"OE","q",856,"oe","O",9,"o","o",TRUE,1,-0.45367102800624
"CVOE_B",1002,1,1,73,"J 15","","",TRUE,"OE","q",894,"oe","J",5,"o","o",TRUE,1,-0.440793187086322
"CVOE_B",1002,1,1,74,"I 89","","",FALSE,"OE","q",804,"oe","I",9,"o","o",TRUE,1,-0.471293336633497
"CVOE_B",1002,1,1,75,"O 97","","",FALSE,"OE","q",657,"oe","O",7,"o","o",TRUE,1,-0.521110247560551
"CVOE_B",1002,1,1,76,"A 92","","",TRUE,"OE","p",724,"oe","A",2,"e","e",TRUE,1,-0.498404580675431
"CVOE_B",1002,1,1,77,"J 90","","",FALSE,"OE","p",699,"oe","J",0,"e","e",TRUE,1,-0.506876844438535
"CVOE_B",1002,1,1,78,"H 65","","",TRUE,"OE","q",967,"oe","H",5,"o","o",TRUE,1,-0.416054176898057
"CVOE_B",1002,1,1,79,"H 17","","",TRUE,"OE","q",849,"oe","H",7,"o","o",TRUE,1,-0.456043261859909
"CVOE_B",1002,1,1,80,"S 26","","",FALSE,"OE","p",692,"oe","S",6,"e","e",TRUE,1,-0.509249078292205
"CVOE_B",1002,1,1,81,"D 56","","",FALSE,"OE","p",858,"oe","D",6,"e","e",TRUE,1,-0.452993246905192
"CVOE_B",1002,1,1,82,"I 91","","",FALSE,"OE","q",685,"oe","I",1,"o","o",TRUE,1,-0.511621312145874
"CVOE_B",1002,1,1,83,"J 11","","",TRUE,"OE","q",733,"oe","J",1,"o","o",TRUE,1,-0.495354565720714
"CVOE_B",1002,1,1,84,"O 28","","",TRUE,"OE","p",810,"oe","O",8,"e","e",TRUE,1,-0.469259993330352
"CVOE_B",1002,1,1,85,"H 29","","",TRUE,"OE","q",843,"oe","H",9,"o","o",TRUE,1,-0.458076605163055
"CVOE_B",1002,1,1,86,"J 25","","",TRUE,"OE","q",1077,"oe","J",5,"o","o",TRUE,1,-0.378776216340398
"CVOE_B",1002,1,1,87,"A 73","","",FALSE,"OE","q",803,"oe","A",3,"o","o",TRUE,1,-0.471632227184021
"CVOE_B",1002,1,1,88,"J 63","","",TRUE,"OE","q",775,"oe","J",3,"o","o",TRUE,1,-0.481121162598698
"CVOE_B",1002,1,1,89,"U 84","","",TRUE,"OE","p",802,"oe","U",4,"e","e",TRUE,1,-0.471971117734546
"CVOE_B",1002,1,1,90,"A 58","","",TRUE,"OE","p",711,"oe","A",8,"e","e",TRUE,1,-0.502810157832245
"CVOE_B",1002,1,1,91,"S 43","","",TRUE,"OE","q",768,"oe","S",3,"o","o",TRUE,1,-0.483493396452367
"CVOE_B",1002,1,1,92,"H 54","","",FALSE,"OE","p",1203,"oe","H",4,"e","e",TRUE,1,-0.336076006974352
"CVOE_B",1002,1,1,93,"D 4","","",FALSE,"OE","p",695,"oe","D",NA,"o","e",FALSE,0,-0.508232406640632
"CVOE_B",1002,1,1,94,"J 75","","",TRUE,"OE","q",727,"oe","J",5,"o","o",TRUE,1,-0.497387909023859
"CVOE_B",1002,1,1,95,"D 19","","",TRUE,"OE","q",765,"oe","D",9,"o","o",TRUE,1,-0.48451006810394
"CVOE_B",1002,1,1,96,"J 38","","",FALSE,"OE","p",770,"oe","J",8,"e","e",TRUE,1,-0.482815615351319
"CVOE_B",1002,1,1,97,"I 56","","",TRUE,"OE","p",1439,"oe","I",6,"e","e",TRUE,1,-0.256097837050648
"CVOE_B",1002,1,1,98,"P 87","","",TRUE,"OE","q",774,"oe","P",7,"o","o",TRUE,1,-0.481460053149222
"CVOE_B",1002,1,1,99,"O 80","","",TRUE,"OE","p",1859,"oe","O",0,"e","e",TRUE,1,-0.113763805830495
"CVOE_B",1002,1,1,100,"U 60","","",TRUE,"OE","p",816,"oe","U",0,"e","e",TRUE,1,-0.467226650027207
"CVOE_B",1002,1,1,101,"P 48","","",FALSE,"OE","p",769,"oe","P",8,"e","e",TRUE,1,-0.483154505901843
"CVOE_B",1002,1,1,102,"H 64","","",FALSE,"OE","p",813,"oe","H",4,"e","e",TRUE,1,-0.46824332167878
"CVOE_B",1002,1,1,103,"A 13","","",FALSE,"OE","q",651,"oe","A",3,"o","o",TRUE,1,-0.523143590863696
"CVOE_B",1002,1,1,104,"H 68","","",FALSE,"OE","p",696,"oe","H",8,"e","e",TRUE,1,-0.507893516090108
"CVOE_B",1002,1,1,105,"E 16","","",TRUE,"OE","p",1276,"oe","E",6,"e","e",TRUE,1,-0.311336996786088
"CVOE_B",1002,1,1,106,"S 71","","",TRUE,"OE","q",762,"oe","S",1,"o","o",TRUE,1,-0.485526739755512
"CVOE_B",2002,1,1,11,"A 24","","",TRUE,"OE","p",10781,"oe","A",4,"e","e",TRUE,1,2.90981768594617
"CVOE_B",2002,1,1,12,"O 83","","",FALSE,"OE","q",1594,"oe","O",3,"o","o",TRUE,1,-0.203569801719401
"CVOE_B",2002,1,1,13,"H 55","","",TRUE,"OE","q",3698,"oe","H",5,"o","o",TRUE,1,0.509455916583458
"CVOE_B",2002,1,1,14,"P 10","","",FALSE,"OE","p",879,"oe","P",0,"e","e",TRUE,1,-0.445876545344184
"CVOE_B",2002,1,1,15,"D 30","","",FALSE,"OE","p",962,"oe","D",0,"e","e",TRUE,1,-0.417748629650678
"CVOE_B",2002,1,1,16,"U 62","","",TRUE,"OE","p",1745,"oe","U",2,"e","e",TRUE,1,-0.152397328590251
"CVOE_B",2002,1,1,17,"P 95","","",TRUE,"OE","q",1037,"oe","P",5,"o","o",TRUE,1,-0.392331838361365
"CVOE_B",2002,1,1,18,"U 06","","",TRUE,"OE","p",852,"oe","U",6,"e","e",TRUE,1,-0.455026590208337
"CVOE_B",2002,1,1,19,"E 75","","",FALSE,"OE","q",852,"oe","E",5,"o","o",TRUE,1,-0.455026590208337
"CVOE_B",2002,1,1,20,"I 67","","",FALSE,"OE","q",1282,"oe","I",7,"o","o",TRUE,1,-0.309303653482943
"CVOE_B",2002,1,1,21,"S 13","","",TRUE,"OE","q",964,"oe","S",3,"o","o",TRUE,1,-0.41707084854963
"CVOE_B",2002,1,1,22,"P 78","","",FALSE,"OE","p",885,"oe","P",8,"e","e",TRUE,1,-0.443843202041039
"CVOE_B",2002,1,1,23,"I 15","","",FALSE,"OE","p",1282,"oe","I",5,"o","e",FALSE,0,-0.309303653482943
"CVOE_B",2002,1,1,24,"D 27","","",TRUE,"OE","p",2413,"oe","D",7,"o","e",FALSE,0,0.0739815591598964
"CVOE_B",2002,1,1,25,"O 94","","",TRUE,"OE","q",1428,"oe","O",4,"e","o",FALSE,0,-0.259825633106414
"CVOE_B",2002,1,1,26,"A 65","","",FALSE,"OE","q",1469,"oe","A",5,"o","o",TRUE,1,-0.245931120534922
"CVOE_B",2002,1,1,27,"I 42","","",TRUE,"OE","p",1554,"oe","I",2,"e","e",TRUE,1,-0.217125423740368
"CVOE_B",2002,1,1,28,"E 25","","",FALSE,"OE","p",2064,"oe","E",5,"o","e",FALSE,0,-0.0442912429730398
"CVOE_B",2002,1,1,29,"H 49","","",TRUE,"OE","q",1355,"oe","H",9,"o","o",TRUE,1,-0.284564643294678
"CVOE_B",2002,1,1,30,"S 18","","",FALSE,"OE","p",2458,"oe","S",8,"e","e",TRUE,1,0.0892316339334841
"CVOE_B",2002,1,1,31,"H 51","","",TRUE,"OE","p",1087,"oe","H",1,"o","e",FALSE,0,-0.375387310835156
"CVOE_B",2002,1,1,32,"U 14","","",TRUE,"OE","p",1165,"oe","U",4,"e","e",TRUE,1,-0.348953847894271
"CVOE_B",2002,1,1,33,"E 02","","",TRUE,"OE","p",1395,"oe","E",2,"e","e",TRUE,1,-0.271009021273711
"CVOE_B",2002,1,1,34,"J 26","","",FALSE,"OE","p",1157,"oe","J",6,"e","e",TRUE,1,-0.351664972298464
"CVOE_B",2002,1,1,35,"D 24","","",FALSE,"OE","p",1559,"oe","D",4,"e","e",TRUE,1,-0.215430970987747
"CVOE_B",2002,1,1,36,"O 50","","",TRUE,"OE","p",1348,"oe","O",0,"e","e",TRUE,1,-0.286936877148347
"CVOE_B",2002,1,1,37,"U 16","","",TRUE,"OE","p",1590,"oe","U",6,"e","e",TRUE,1,-0.204925363921498
"CVOE_B",2002,1,1,38,"O 15","","",FALSE,"OE","p",1951,"oe","O",5,"o","e",FALSE,0,-0.0825858751822713
"CVOE_B",2002,1,1,39,"D 32","","",FALSE,"OE","p",1865,"oe","D",2,"e","e",TRUE,1,-0.11173046252735
"CVOE_B",2002,1,1,40,"S 67","","",TRUE,"OE","q",1001,"oe","S",7,"o","o",TRUE,1,-0.404531898180235
"CVOE_B",2002,1,1,41,"J 74","","",FALSE,"OE","q",1437,"oe","J",4,"e","o",FALSE,0,-0.256775618151696
"CVOE_B",2002,1,1,42,"D 92","","",FALSE,"OE","q",1010,"oe","D",2,"e","o",FALSE,0,-0.401481883225518
"CVOE_B",2002,1,1,43,"A 65","","",FALSE,"OE","q",999,"oe","A",5,"o","o",TRUE,1,-0.405209679281284
"CVOE_B",2002,1,1,44,"I 87","","",FALSE,"OE","q",1161,"oe","I",7,"o","o",TRUE,1,-0.350309410096368
"CVOE_B",2002,1,1,45,"H 61","","",TRUE,"OE","q",999,"oe","H",1,"o","o",TRUE,1,-0.405209679281284
"CVOE_B",2002,1,1,46,"E 59","","",FALSE,"OE","q",1357,"oe","E",9,"o","o",TRUE,1,-0.28388686219363
"CVOE_B",2002,1,1,47,"I 33","","",FALSE,"OE","q",3399,"oe","I",3,"o","o",TRUE,1,0.408127641976731
"CVOE_B",2002,1,1,48,"O 90","","",TRUE,"OE","p",765,"oe","O",0,"e","e",TRUE,1,-0.48451006810394
"CVOE_B",2002,1,1,49,"U 51","","",FALSE,"OE","q",887,"oe","U",1,"o","o",TRUE,1,-0.443165420939991
"CVOE_B",2002,1,1,50,"A 10","","",TRUE,"OE","p",853,"oe","A",0,"e","e",TRUE,1,-0.454687699657813
"CVOE_B",2002,1,1,51,"E 50","","",TRUE,"OE","p",735,"oe","E",0,"e","e",TRUE,1,-0.494676784619665
"CVOE_B",2002,1,1,52,"D 92","","",FALSE,"OE","q",1556,"oe","D",2,"e","o",FALSE,0,-0.216447642639319
"CVOE_B",2002,1,1,53,"E 60","","",TRUE,"OE","p",618,"oe","E",0,"e","e",TRUE,1,-0.534326979030993
"CVOE_B",2002,1,1,54,"A 95","","",FALSE,"OE","q",773,"oe","A",5,"o","o",TRUE,1,-0.481798943699747
"CVOE_B",2002,1,1,55,"E 64","","",TRUE,"OE","p",762,"oe","E",4,"e","e",TRUE,1,-0.485526739755512
