"ExperimentName","Subject","Group","Block","Trial","STIM","TASK","Switch","Congruent","CVOE","Response","RT","block_type","letter","number","key2","response2","match2","score2","zRT"
"CVOE updated",1001,1,1,11,"A 71","","",FALSE,"CV","p",4811,"cv","A",1,"v","v",TRUE,1,1.73430532822627
"CVOE updated",1001,1,1,12,"I 66","","",TRUE,"CV","p",1960,"cv","I",6,"v","v",TRUE,1,0.146305210870883
"CVOE updated",1001,1,1,13,"S 30","","",FALSE,"CV","q",918,"cv","S",0,"c","c",TRUE,1,-0.434086273620283
"CVOE updated",1001,1,1,14,"D 20","","",FALSE,"CV","q",790,"cv","D",0,"c","c",TRUE,1,-0.505381964613439
"CVOE updated",1001,1,1,15,"I 31","","",FALSE,"CV","p",874,"cv","I",1,"v","v",TRUE,1,-0.45859416739918
"CVOE updated",1001,1,1,16,"P 16","","",FALSE,"CV","q",700,"cv","P",6,"c","c",TRUE,1,-0.555511747343002
"CVOE updated",1001,1,1,17,"A 49","","",FALSE,"CV","p",1100,"cv","A",9,"v","v",TRUE,1,-0.332712712989388
"CVOE updated",1001,1,1,18,"O 64","","",TRUE,"CV","p",1100,"cv","O",4,"v","v",TRUE,1,-0.332712712989388
"CVOE updated",1001,1,1,19,"D 02","","",FALSE,"CV","q",892,"cv","D",2,"c","c",TRUE,1,-0.448568210853267
"CVOE updated",1001,1,1,20,"P 81","","",TRUE,"CV","q",1116,"cv","P",1,"c","c",TRUE,1,-0.323800751615243
"CVOE updated",1001,1,1,21,"J 58","","",FALSE,"CV","q",828,"cv","J",8,"c","c",TRUE,1,-0.484216056349846
"CVOE updated",1001,1,1,22,"A 22","","",TRUE,"CV","p",679,"cv","A",2,"v","v",TRUE,1,-0.567208696646567
"CVOE updated",1001,1,1,23,"J 72","","",FALSE,"CV","q",999,"cv","J",2,"c","c",TRUE,1,-0.388969469163676
"CVOE updated",1001,1,1,24,"P 91","","",TRUE,"CV","q",1027,"cv","P",1,"c","c",TRUE,1,-0.373373536758923
"CVOE updated",1001,1,1,25,"E 19","","",FALSE,"CV","p",622,"cv","E",9,"v","v",TRUE,1,-0.598957559041957
"CVOE updated",1001,1,1,26,"I 30","","",TRUE,"CV","p",618,"cv","I",0,"v","v",TRUE,1,-0.601185549385493
"CVOE updated",1001,1,1,27,"D 91","","",TRUE,"CV","q",717,"cv","D",1,"c","c",TRUE,1,-0.546042788382974
"CVOE updated",1001,1,1,28,"O 48","","",TRUE,"CV","p",636,"cv","O",8,"v","v",TRUE,1,-0.591159592839581
"CVOE updated",1001,1,1,29,"A 89","","",FALSE,"CV","p",1127,"cv","A",9,"v","v",TRUE,1,-0.317673778170519
"CVOE updated",1001,1,1,30,"U 11","","",FALSE,"CV","p",886,"cv","U",1,"v","v",TRUE,1,-0.451910196368572
"CVOE updated",1001,1,1,31,"I 76","","",TRUE,"CV","p",726,"cv","I",6,"v","v",TRUE,1,-0.541029810110017
"CVOE updated",1001,1,1,32,"U 89","","",FALSE,"CV","p",669,"cv","U",9,"v","v",TRUE,1,-0.572778672505407
"CVOE updated",1001,1,1,33,"D 63","","",TRUE,"CV","q",758,"cv","D",3,"c","c",TRUE,1,-0.523205887361728
"CVOE updated",1001,1,1,34,"H 70","","",FALSE,"CV","q",1052,"cv","H",0,"c","c",TRUE,1,-0.359448597111822
"CVOE updated",1001,1,1,35,"D 48","","",FALSE,"CV","q",591,"cv","D",8,"c","c",TRUE,1,-0.616224484204362
"CVOE updated",1001,1,1,36,"P 56","","",FALSE,"CV","q",635,"cv","P",6,"c","c",TRUE,1,-0.591716590425465
"CVOE updated",1001,1,1,37,"O 77","","",FALSE,"CV","p",645,"cv","O",7,"v","v",TRUE,1,-0.586146614566624
"CVOE updated",1001,1,1,38,"P 42","","",FALSE,"CV","q",776,"cv","P",2,"c","c",TRUE,1,-0.513179930815816
"CVOE updated",1001,1,1,39,"H 22","","",FALSE,"CV","q",668,"cv","H",2,"c","c",TRUE,1,-0.573335670091291
"CVOE updated",1001,1,1,40,"E 42","","",TRUE,"CV","p",574,"cv","E",2,"v","v",TRUE,1,-0.625693443164391
"CVOE updated",1001,1,1,41,"J 28","","",FALSE,"CV","q",690,"cv","J",8,"c","c",TRUE,1,-0.561081723201843
"CVOE updated",1001,1,1,42,"E 95","","",FALSE,"CV","p",787,"cv","E",5,"v","v",TRUE,1,-0.507052957371091
"CVOE updated",1001,1,1,43,"S 63","","",TRUE,"CV","q",1031,"cv","S",3,"c","c",TRUE,1,-0.371145546415386
"CVOE updated",1001,1,1,44,"H 50","","",FALSE,"CV","q",602,"cv","H",0,"c","c",TRUE,1,-0.610097510759638
"CVOE updated",1001,1,1,45,"S 33","","",TRUE,"CV","q",646,"cv","S",3,"c","c",TRUE,1,-0.58558961698074
"CVOE updated",1001,1,1,46,"P 57","","",TRUE,"CV","q",632,"cv","P",7,"c","c",TRUE,1,-0.593387583183117
"CVOE updated",1001,1,1,47,"E 23","","",FALSE,"CV","p",699,"cv","E",3,"v","v",TRUE,1,-0.556068744928886
"CVOE updated",1001,1,1,48,"S 61","","",TRUE,"CV","q",763,"cv","S",1,"c","c",TRUE,1,-0.520420899432308
"CVOE updated",1001,1,1,49,"U 67","","",FALSE,"CV","p",560,"cv","U",7,"v","v",TRUE,1,-0.633491409366767
"CVOE updated",1001,1,1,50,"H 32","","",FALSE,"CV","q",685,"cv","H",2,"c","c",TRUE,1,-0.563866711131263
"CVOE updated",1001,1,1,51,"U 50","","",TRUE,"CV","p",502,"cv","U",0,"v","v",TRUE,1,-0.665797269348041
"CVOE updated",1001,1,1,52,"O 49","","",FALSE,"CV","p",630,"cv","O",9,"v","v",TRUE,1,-0.594501578354885
"CVOE updated",1001,1,1,53,"U 32","","",TRUE,"CV","p",609,"cv","U",2,"v","v",TRUE,1,-0.60619852765845
"CVOE updated",1001,1,1,54,"J 78","","",FALSE,"CV","q",716,"cv","J",8,"c","c",TRUE,1,-0.546599785968858
"CVOE updated",1001,1,1,55,"S 54","","",FALSE,"CV","q",635,"cv","S",4,"c","c",TRUE,1,-0.591716590425465
"CVOE updated",1001,1,1,56,"J 27","","",TRUE,"CV","q",566,"cv","J",7,"c","c",TRUE,1,-0.630149423851463
"CVOE updated",1001,1,1,57,"S 06","","",FALSE,"CV","q",635,"cv","S",6,"c","c",TRUE,1,-0.591716590425465
"CVOE updated",1001,1,1,58,"D 67","","",TRUE,"CV","q",766,"cv","D",7,"c","c",TRUE,1,-0.518749906674656
"CVOE updated",1001,1,1,59,"A 79","","",FALSE,"CV","p",771,"cv","A",9,"v","v",TRUE,1,-0.515964918745236
"CVOE updated",1001,1,1,60,"S 52","","",FALSE,"CV","q",768,"cv","S",2,"c","c",TRUE,1,-0.517635911502888
"CVOE updated",1001,1,1,61,"U 16","","",TRUE,"CV","p",702,"cv","U",6,"v","v",TRUE,1,-0.554397752171234
"CVOE updated",1001,1,1,62,"O 82","","",TRUE,"CV","p",590,"cv","O",2,"v","v",TRUE,1,-0.616781481790246
"CVOE updated",1001,1,1,63,"H 87","","",TRUE,"CV","q",722,"cv","H",7,"c","c",TRUE,1,-0.543257800453554
"CVOE updated",1001,1,1,64,"I 32","","",TRUE,"CV","p",1330,"cv","I",2,"v","v",TRUE,1,-0.20460326823606
"CVOE updated",1001,1,1,65,"U 37","","",FALSE,"CV","p",833,"cv","U",7,"v","v",TRUE,1,-0.481431068420426
"CVOE updated",1001,1,1,66,"I 42","","",TRUE,"CV","p",620,"cv","I",2,"v","v",TRUE,1,-0.600071554213725
"CVOE updated",1001,1,1,67,"D 65","","",TRUE,"CV","q",679,"cv","D",5,"c","c",TRUE,1,-0.567208696646567
"CVOE updated",1001,1,1,68,"U 77","","",FALSE,"CV","p",743,"cv","U",7,"v","v",TRUE,1,-0.531560851149989
"CVOE updated",1001,1,1,69,"E 12","","",TRUE,"CV","p",1326,"cv","E",2,"v","v",TRUE,1,-0.206831258579596
"CVOE updated",1001,1,1,70,"I 60","","",TRUE,"CV","p",565,"cv","I",0,"v","v",TRUE,1,-0.630706421437347
"CVOE updated",1001,1,1,71,"J 36","","",FALSE,"CV","q",698,"cv","J",6,"c","c",TRUE,1,-0.55662574251477
"CVOE updated",1001,1,1,72,"H 75","","",TRUE,"CV","q",778,"cv","H",5,"c","c",TRUE,1,-0.512065935644048
"CVOE updated",1001,1,1,73,"I 50","","",TRUE,"CV","p",742,"cv","I",0,"v","v",TRUE,1,-0.532117848735873
"CVOE updated",1001,1,1,74,"E 99","","",FALSE,"CV","p",725,"cv","E",9,"v","v",TRUE,1,-0.541586807695901
"CVOE updated",1001,1,1,75,"A 86","","",TRUE,"CV","p",1019,"cv","A",6,"v","v",TRUE,1,-0.377829517445995
"CVOE updated",1001,1,1,76,"U 48","","",TRUE,"CV","p",631,"cv","U",8,"v","v",TRUE,1,-0.593944580769001
"CVOE updated",1001,1,1,77,"E 01","","",FALSE,"CV","p",649,"cv","E",1,"v","v",TRUE,1,-0.583918624223088
"CVOE updated",1001,1,1,78,"A 78","","",TRUE,"CV","p",699,"cv","A",8,"v","v",TRUE,1,-0.556068744928886
"CVOE updated",1001,1,1,79,"P 60","","",FALSE,"CV","q",803,"cv","P",0,"c","c",TRUE,1,-0.498140995996947
"CVOE updated",1001,1,1,80,"E 43","","",FALSE,"CV","p",975,"cv","E",3,"v","v",TRUE,1,-0.402337411224892
"CVOE updated",1001,1,1,81,"D 69","","",TRUE,"CV","q",924,"cv","D",9,"c","c",TRUE,1,-0.430744288104978
"CVOE updated",1001,1,1,82,"H 11","","",TRUE,"CV","q",612,"cv","H",1,"c","c",TRUE,1,-0.604527534900797
"CVOE updated",1001,1,1,83,"P 43","","",TRUE,"CV","q",543,"cv","P",3,"c","c",TRUE,1,-0.642960368326796
"CVOE updated",1001,1,1,84,"O 67","","",FALSE,"CV","p",613,"cv","O",7,"v","v",TRUE,1,-0.603970537314913
"CVOE updated",1001,1,1,85,"S 91","","",FALSE,"CV","q",728,"cv","S",1,"c","c",TRUE,1,-0.539915814938249
"CVOE updated",1001,1,1,86,"J 68","","",TRUE,"CV","q",671,"cv","J",8,"c","c",TRUE,1,-0.571664677333639
"CVOE updated",1001,1,1,87,"S 47","","",FALSE,"CV","q",624,"cv","S",7,"c","c",TRUE,1,-0.597843563870189
"CVOE updated",1001,1,1,88,"I 81","","",TRUE,"CV","p",659,"cv","I",1,"v","v",TRUE,1,-0.578348648364248
"CVOE updated",1001,1,1,89,"J 39","","",FALSE,"CV","q",805,"cv","J",9,"c","c",TRUE,1,-0.497027000825179
"CVOE updated",1001,1,1,90,"A 11","","",TRUE,"CV","p",793,"cv","A",1,"v","v",TRUE,1,-0.503710971855787
"CVOE updated",1001,1,1,91,"O 76","","",FALSE,"CV","p",541,"cv","O",6,"v","v",TRUE,1,-0.644074363498564
"CVOE updated",1001,1,1,92,"A 62","","",FALSE,"CV","p",547,"cv","A",2,"v","v",TRUE,1,-0.64073237798326
"CVOE updated",1001,1,1,93,"O 27","","",TRUE,"CV","p",545,"cv","O",7,"v","v",TRUE,1,-0.641846373155028
"CVOE updated",1001,1,1,94,"E 66","","",FALSE,"CV","p",607,"cv","E",6,"v","v",TRUE,1,-0.607312522830218
"CVOE updated",1001,1,1,95,"J 62","","",TRUE,"CV","q",531,"cv","J",2,"c","c",TRUE,1,-0.649644339357404
"CVOE updated",1001,1,1,96,"H 72","","",TRUE,"CV","q",546,"cv","H",2,"c","c",TRUE,1,-0.641289375569144
"CVOE updated",1001,1,1,97,"E 49","","",TRUE,"CV","p",680,"cv","E",9,"v","v",TRUE,1,-0.566651699060683
"CVOE updated",1001,1,1,98,"D 52","","",TRUE,"CV","q",800,"cv","D",2,"c","c",TRUE,1,-0.499811988754599
"CVOE updated",1001,1,1,99,"H 62","","",TRUE,"CV","q",516,"cv","H",2,"c","c",TRUE,1,-0.657999303145665
"CVOE updated",1001,1,1,100,"I 11","","",TRUE,"CV","p",660,"cv","I",1,"v","v",TRUE,1,-0.577791650778364
"CVOE updated",1001,1,1,101,"A 98","","",FALSE,"CV","p",1221,"cv","A",8,"v","v",TRUE,1,-0.26531600509742
"CVOE updated",1001,1,1,102,"H 29","","",FALSE,"CV","q",776,"cv","H",9,"c","c",TRUE,1,-0.513179930815816
"CVOE updated",1001,1,1,103,"E 83","","",TRUE,"CV","p",773,"cv","E",3,"v","v",TRUE,1,-0.514850923573468
"CVOE updated",1001,1,1,104,"D 43","","",FALSE,"CV","q",627,"cv","D",3,"c","c",TRUE,1,-0.596172571112537
"CVOE updated",1001,1,1,105,"P 45","","",TRUE,"CV","q",1253,"cv","P",5,"c","c",TRUE,1,-0.247492082349131
"CVOE updated",1001,1,1,106,"J 17","","",TRUE,"CV","q",1015,"cv","J",7,"c","c",TRUE,1,-0.380057507789531
"CVOE_C",2003,1,2,14,"D 20","","",FALSE,"CV","q",6059,"cv","D",0,"c","c",TRUE,1,2.42943831540955
"CVOE_C",2003,1,2,16,"P 16","","",FALSE,"CV","q",3365,"cv","P",6,"c","c",TRUE,1,0.928886819037953
"CVOE_C",2003,1,2,17,"A 49","","",FALSE,"CV","p",4379,"cv","A",9,"v","v",TRUE,1,1.49368237112437
"CVOE_C",2003,1,2,19,"D 02","","",FALSE,"CV","q",4660,"cv","D",2,"c","c",TRUE,1,1.65019869275778
"CVOE_C",2003,1,2,21,"J 58","","",FALSE,"CV","q",1930,"cv","J",8,"c","c",TRUE,1,0.129595283294362
"CVOE_C",2003,1,2,22,"A 22","","",TRUE,"CV","p",1737,"cv","A",2,"v","v",TRUE,1,0.0220947492187428
"CVOE_C",2003,1,2,23,"J 72","","",FALSE,"CV","q",1793,"cv","J",2,"c","c",TRUE,1,0.0532866140282488
"CVOE_C",2003,1,2,24,"P 91","","",TRUE,"CV","q",1853,"cv","P",1,"c","c",TRUE,1,0.086706469181291
"CVOE_C",2003,1,2,25,"E 19","","",FALSE,"CV","p",4512,"cv","E",9,"v","v",TRUE,1,1.56776305004694
"CVOE_C",2003,1,2,27,"D 91","","",TRUE,"CV","q",1259,"cv","D",1,"c","c",TRUE,1,-0.244150096833826
"CVOE_C",2003,1,2,28,"O 48","","",TRUE,"CV","p",3972,"cv","O",8,"v","v",TRUE,1,1.26698435366956
"CVOE_C",2003,1,2,29,"A 89","","",FALSE,"CV","p",1315,"cv","A",9,"v","v",TRUE,1,-0.21295823202432
"CVOE_C",2003,1,2,30,"U 11","","",FALSE,"CV","p",2275,"cv","U",1,"v","v",TRUE,1,0.321759450424354
"CVOE_C",2003,1,2,31,"I 76","","",TRUE,"CV","p",6389,"cv","I",6,"v","v",TRUE,1,2.61324751875128
"CVOE_C",2003,1,2,32,"U 89","","",FALSE,"CV","q",2796,"cv","U",9,"v","c",FALSE,0,0.611955192669937
"CVOE_C",2003,1,2,33,"D 63","","",TRUE,"CV","q",2449,"cv","D",3,"c","c",TRUE,1,0.418677030368176
"CVOE_C",2003,1,2,34,"H 70","","",FALSE,"CV","q",1572,"cv","H",0,"c","c",TRUE,1,-0.0698098524521231
"CVOE_C",2003,1,2,35,"D 48","","",FALSE,"CV","q",1426,"cv","D",8,"c","c",TRUE,1,-0.151131499991192
"CVOE_C",2003,1,2,36,"P 56","","",FALSE,"CV","q",2693,"cv","P",6,"c","c",TRUE,1,0.554584441323881
"CVOE_C",2003,1,2,37,"O 77","","",FALSE,"CV","p",2982,"cv","O",7,"v","v",TRUE,1,0.715556743644367
"CVOE_C",2003,1,2,38,"P 42","","",FALSE,"CV","q",1972,"cv","P",2,"c","c",TRUE,1,0.152989181901491
"CVOE_C",2003,1,2,40,"E 42","","",TRUE,"CV","p",2898,"cv","E",2,"v","v",TRUE,1,0.668768946430108
"CVOE_C",2003,1,2,41,"J 28","","",FALSE,"CV","q",3203,"cv","J",8,"c","c",TRUE,1,0.838653210124739
"CVOE_C",2003,1,2,42,"E 95","","",FALSE,"CV","p",4152,"cv","E",5,"v","v",TRUE,1,1.36724391912869
"CVOE_C",2003,1,2,43,"S 63","","",TRUE,"CV","q",1904,"cv","S",3,"c","c",TRUE,1,0.115113346061377
"CVOE_C",2003,1,2,44,"H 50","","",FALSE,"CV","q",1361,"cv","H",0,"c","c",TRUE,1,-0.187336343073655
"CVOE_C",2003,1,2,45,"S 33","","",TRUE,"CV","q",1086,"cv","S",3,"c","c",TRUE,1,-0.340510679191765
"CVOE_C",2003,1,2,46,"P 57","","",TRUE,"CV","q",1287,"cv","P",7,"c","c",TRUE,1,-0.228554164429073
"CVOE_C",2003,1,2,47,"E 23","","",FALSE,"CV","p",2384,"cv","E",3,"v","v",TRUE,1,0.382472187285714
"CVOE_C",2003,1,2,48,"S 61","","",TRUE,"CV","q",2086,"cv","S",1,"c","c",TRUE,1,0.216486906692271
"CVOE_C",2003,1,2,49,"U 67","","",FALSE,"CV","p",2423,"cv","U",7,"v","v",TRUE,1,0.404195093135191
"CVOE_C",2003,1,2,50,"H 32","","",FALSE,"CV","q",2699,"cv","H",2,"c","c",TRUE,1,0.557926426839185
"CVOE_C",2003,1,2,51,"U 50","","",TRUE,"CV","q",1813,"cv","U",0,"v","c",FALSE,0,0.0644265657459295
"CVOE_C",2003,1,2,52,"O 49","","",FALSE,"CV","p",5305,"cv","O",9,"v","v",TRUE,1,2.00946213565298
"CVOE_C",2003,1,2,54,"J 78","","",FALSE,"CV","q",1864,"cv","J",8,"c","c",TRUE,1,0.0928334426260154
"CVOE_C",2003,1,2,55,"S 54","","",FALSE,"CV","q",1978,"cv","S",4,"c","c",TRUE,1,0.156331167416795
"CVOE_C",2003,1,2,56,"J 27","","",TRUE,"CV","q",1615,"cv","J",7,"c","c",TRUE,1,-0.0458589562591096
"CVOE_C",2003,1,2,57,"S 06","","",FALSE,"CV","q",1483,"cv","S",6,"c","c",TRUE,1,-0.119382637595802
"CVOE_C",2003,1,2,58,"D 67","","",TRUE,"CV","q",1660,"cv","D",7,"c","c",TRUE,1,-0.020794064894328
"CVOE_C",2003,1,2,59,"A 79","","",FALSE,"CV","p",1798,"cv","A",9,"v","v",TRUE,1,0.056071601957669
"CVOE_C",2003,1,2,60,"S 52","","",FALSE,"CV","q",1283,"cv","S",2,"c","c",TRUE,1,-0.230782154772609
"CVOE_C",2003,1,2,61,"U 16","","",TRUE,"CV","q",1883,"cv","U",6,"v","c",FALSE,0,0.103416396757812
"CVOE_C",2003,1,2,62,"O 82","","",TRUE,"CV","p",2933,"cv","O",2,"v","v",TRUE,1,0.68826386193605
"CVOE_C",2003,1,2,63,"H 87","","",TRUE,"CV","q",1741,"cv","H",7,"c","c",TRUE,1,0.0243227395622789
"CVOE_C",2003,1,2,65,"U 37","","",FALSE,"CV","q",2141,"cv","U",7,"v","c",FALSE,0,0.247121773915893
"CVOE_C",2003,1,2,66,"I 42","","",TRUE,"CV","p",2524,"cv","I",2,"v","v",TRUE,1,0.460451849309479
"CVOE_C",2003,1,2,67,"D 65","","",TRUE,"CV","q",3244,"cv","D",5,"c","c",TRUE,1,0.861490111145985
"CVOE_C",2003,1,2,68,"U 77","","",FALSE,"CV","p",2288,"cv","U",7,"v","v",TRUE,1,0.329000419040847
"CVOE_C",2003,1,2,70,"I 60","","",TRUE,"CV","p",7080,"cv","I",0,"v","v",TRUE,1,2.99813285059715
"CVOE_C",2003,1,2,71,"J 36","","",FALSE,"CV","q",2132,"cv","J",6,"c","c",TRUE,1,0.242108795642937
"CVOE_C",2003,1,2,72,"H 75","","",TRUE,"CV","q",1979,"cv","H",5,"c","c",TRUE,1,0.156888165002679
"CVOE_C",2003,1,2,73,"I 50","","",TRUE,"CV","p",2232,"cv","I",0,"v","v",TRUE,1,0.297808554231341
"CVOE_C",2003,1,2,74,"E 99","","",FALSE,"CV","p",6068,"cv","E",9,"v","v",TRUE,1,2.4344512936825
"CVOE_C",2003,1,2,75,"A 86","","",TRUE,"CV","p",2272,"cv","A",6,"v","v",TRUE,1,0.320088457666702
"CVOE_C",2003,1,2,76,"U 48","","",TRUE,"CV","p",3234,"cv","U",8,"v","v",TRUE,1,0.855920135287144
"CVOE_C",2003,1,2,77,"E 01","","",FALSE,"CV","p",6230,"cv","E",1,"v","v",TRUE,1,2.52468490259572
"CVOE_C",2003,1,2,78,"A 78","","",TRUE,"CV","p",2644,"cv","A",8,"v","v",TRUE,1,0.527291559615563
"CVOE_C",2003,1,2,79,"P 60","","",FALSE,"CV","q",4191,"cv","P",0,"c","c",TRUE,1,1.38896682497817
"CVOE_C",2003,1,2,80,"E 43","","",FALSE,"CV","p",4877,"cv","E",3,"v","v",TRUE,1,1.77106716889462
"CVOE_C",2003,1,2,81,"D 69","","",TRUE,"CV","q",3680,"cv","D",9,"c","c",TRUE,1,1.10434105859142
"CVOE_C",2003,1,2,82,"H 11","","",TRUE,"CV","q",1386,"cv","H",1,"c","c",TRUE,1,-0.173411403426554
"CVOE_C",2003,1,2,83,"P 43","","",TRUE,"CV","q",1351,"cv","P",3,"c","c",TRUE,1,-0.192906318932495
"CVOE_C",2003,1,2,84,"O 67","","",FALSE,"CV","p",3565,"cv","O",7,"v","v",TRUE,1,1.04028633621476
"CVOE_C",2003,1,2,85,"S 91","","",FALSE,"CV","q",1756,"cv","S",1,"c","c",TRUE,1,0.0326777033505395
"CVOE_C",2003,1,2,86,"J 68","","",TRUE,"CV","q",1259,"cv","J",8,"c","c",TRUE,1,-0.244150096833826
"CVOE_C",2003,1,2,87,"S 47","","",FALSE,"CV","q",1452,"cv","S",7,"c","c",TRUE,1,-0.136649562758207
"CVOE_C",2003,1,2,88,"I 81","","",TRUE,"CV","p",2511,"cv","I",1,"v","v",TRUE,1,0.453210880692987
"CVOE_C",2003,1,2,89,"J 39","","",FALSE,"CV","q",2263,"cv","J",9,"c","c",TRUE,1,0.315075479393746
"CVOE_C",2003,1,2,90,"A 11","","",TRUE,"CV","p",3945,"cv","A",1,"v","v",TRUE,1,1.25194541885069
"CVOE_C",2003,1,2,91,"O 76","","",FALSE,"CV","p",3041,"cv","O",6,"v","v",TRUE,1,0.748419601211526
"CVOE_C",2003,1,2,92,"A 62","","",FALSE,"CV","p",4052,"cv","A",2,"v","v",TRUE,1,1.31154416054029
"CVOE_C",2003,1,2,93,"O 27","","",TRUE,"CV","p",5488,"cv","O",7,"v","v",TRUE,1,2.11139269386976
"CVOE_C",2003,1,2,94,"E 66","","",FALSE,"CV","p",4084,"cv","E",6,"v","v",TRUE,1,1.32936808328857
"CVOE_C",2003,1,2,95,"J 62","","",TRUE,"CV","q",1814,"cv","J",2,"c","c",TRUE,1,0.0649835633318136
"CVOE_C",2003,1,2,96,"H 72","","",TRUE,"CV","q",1730,"cv","H",2,"c","c",TRUE,1,0.0181957661175546
"CVOE_C",2003,1,2,97,"E 49","","",TRUE,"CV","p",2281,"cv","E",9,"v","v",TRUE,1,0.325101435939658
"CVOE_C",2003,1,2,98,"D 52","","",TRUE,"CV","q",1955,"cv","D",2,"c","c",TRUE,1,0.143520222941463
"CVOE_C",2003,1,2,99,"H 62","","",TRUE,"CV","q",1697,"cv","H",2,"c","c",TRUE,1,-0.000185154216618632
"CVOE_C",2003,1,2,100,"I 11","","",TRUE,"CV","p",2418,"cv","I",1,"v","v",TRUE,1,0.401410105205771
"CVOE_C",2003,1,2,101,"A 98","","",FALSE,"CV","p",2798,"cv","A",8,"v","v",TRUE,1,0.613069187841705
"CVOE_C",2003,1,2,102,"H 29","","",FALSE,"CV","q",4971,"cv","H",9,"c","c",TRUE,1,1.82342494196771
"CVOE_C",2003,1,2,103,"E 83","","",TRUE,"CV","p",3643,"cv","E",3,"v","v",TRUE,1,1.08373214791371
"CVOE_C",2003,1,2,104,"D 43","","",FALSE,"CV","q",2207,"cv","D",3,"c","c",TRUE,1,0.28388361458424
"CVOE_C",2003,1,2,105,"P 45","","",TRUE,"CV","q",1323,"cv","P",5,"c","c",TRUE,1,-0.208502251337248
"CVOE_C",2003,1,2,106,"J 17","","",TRUE,"CV","q",1619,"cv","J",7,"c","c",TRUE,1,-0.0436309659155734
"CVOE updated",2001,1,1,11,"A 71","","",FALSE,"CV","p",4796,"cv","A",1,"v","v",TRUE,1,1.72595036443801
"CVOE updated",2001,1,1,12,"I 66","","",TRUE,"CV","p",1007,"cv","I",6,"v","v",TRUE,1,-0.384513488476603
"CVOE updated",2001,1,1,13,"S 30","","",FALSE,"CV","q",1346,"cv","S",0,"c","c",TRUE,1,-0.195691306861915
"CVOE updated",2001,1,1,14,"D 20","","",FALSE,"CV","q",1432,"cv","D",0,"c","c",TRUE,1,-0.147789514475888
"CVOE updated",2001,1,1,15,"I 31","","",FALSE,"CV","p",1395,"cv","I",1,"v","v",TRUE,1,-0.168398425153597
"CVOE updated",2001,1,1,16,"P 16","","",FALSE,"CV","q",1118,"cv","P",6,"c","c",TRUE,1,-0.322686756443475
"CVOE updated",2001,1,1,17,"A 49","","",FALSE,"CV","p",1321,"cv","A",9,"v","v",TRUE,1,-0.209616246509016
"CVOE updated",2001,1,1,18,"O 64","","",TRUE,"CV","p",1105,"cv","O",4,"v","v",TRUE,1,-0.329927725059968
"CVOE updated",2001,1,1,19,"D 02","","",FALSE,"CV","q",932,"cv","D",2,"c","c",TRUE,1,-0.426288307417906
"CVOE updated",2001,1,1,20,"P 81","","",TRUE,"CV","q",1202,"cv","P",1,"c","c",TRUE,1,-0.275898959229216
"CVOE updated",2001,1,1,21,"J 58","","",FALSE,"CV","q",1125,"cv","J",8,"c","c",TRUE,1,-0.318787773342287
"CVOE updated",2001,1,1,22,"A 22","","",TRUE,"CV","p",1484,"cv","A",2,"v","v",TRUE,1,-0.118825640009918
"CVOE updated",2001,1,1,23,"J 72","","",FALSE,"CV","q",2416,"cv","J",2,"c","c",TRUE,1,0.400296110034003
"CVOE updated",2001,1,1,24,"P 91","","",TRUE,"CV","q",1316,"cv","P",1,"c","c",TRUE,1,-0.212401234438436
"CVOE updated",2001,1,1,25,"E 19","","",FALSE,"CV","p",1122,"cv","E",9,"v","v",TRUE,1,-0.320458766099939
"CVOE updated",2001,1,1,26,"I 30","","",TRUE,"CV","p",1207,"cv","I",0,"v","v",TRUE,1,-0.273113971299796
"CVOE updated",2001,1,1,27,"D 91","","",TRUE,"CV","q",974,"cv","D",1,"c","c",TRUE,1,-0.402894408810777
"CVOE updated",2001,1,1,28,"O 48","","",TRUE,"CV","p",1406,"cv","O",8,"v","v",TRUE,1,-0.162271451708873
"CVOE updated",2001,1,1,29,"A 89","","",FALSE,"CV","p",1363,"cv","A",9,"v","v",TRUE,1,-0.186222347901887
"CVOE updated",2001,1,1,30,"U 11","","",FALSE,"CV","p",1158,"cv","U",1,"v","v",TRUE,1,-0.300406853008114
"CVOE updated",2001,1,1,31,"I 76","","",TRUE,"CV","p",1014,"cv","I",6,"v","v",TRUE,1,-0.380614505375415
"CVOE updated",2001,1,1,32,"U 89","","",FALSE,"CV","p",768,"cv","U",9,"v","v",TRUE,1,-0.517635911502888
"CVOE updated",2001,1,1,33,"D 63","","",TRUE,"CV","q",948,"cv","D",3,"c","c",TRUE,1,-0.417376346043761
"CVOE updated",2001,1,1,34,"H 70","","",FALSE,"CV","q",967,"cv","H",0,"c","c",TRUE,1,-0.406793391911965
"CVOE updated",2001,1,1,35,"D 48","","",FALSE,"CV","q",1163,"cv","D",8,"c","c",TRUE,1,-0.297621865078694
"CVOE updated",2001,1,1,36,"P 56","","",FALSE,"CV","q",1590,"cv","P",6,"c","c",TRUE,1,-0.0597838959062105
"CVOE updated",2001,1,1,37,"O 77","","",FALSE,"CV","p",972,"cv","O",7,"v","v",TRUE,1,-0.404008403982545
"CVOE updated",2001,1,1,38,"P 42","","",FALSE,"CV","q",1130,"cv","P",2,"c","c",TRUE,1,-0.316002785412867
"CVOE updated",2001,1,1,39,"H 22","","",FALSE,"CV","q",1120,"cv","H",2,"c","c",TRUE,1,-0.321572761271707
"CVOE updated",2001,1,1,40,"E 42","","",TRUE,"CV","p",1126,"cv","E",2,"v","v",TRUE,1,-0.318230775756403
"CVOE updated",2001,1,1,41,"J 28","","",FALSE,"CV","q",1312,"cv","J",8,"c","c",TRUE,1,-0.214629224781972
"CVOE updated",2001,1,1,42,"E 95","","",FALSE,"CV","p",1354,"cv","E",5,"v","v",TRUE,1,-0.191235326174843
"CVOE updated",2001,1,1,43,"S 63","","",TRUE,"CV","q",969,"cv","S",3,"c","c",TRUE,1,-0.405679396740197
"CVOE updated",2001,1,1,44,"H 50","","",FALSE,"CV","q",1009,"cv","H",0,"c","c",TRUE,1,-0.383399493304835
"CVOE updated",2001,1,1,45,"S 33","","",TRUE,"CV","q",1155,"cv","S",3,"c","c",TRUE,1,-0.302077845765766
"CVOE updated",2001,1,1,46,"P 57","","",TRUE,"CV","q",1247,"cv","P",7,"c","c",TRUE,1,-0.250834067864435
"CVOE updated",2001,1,1,47,"E 23","","",FALSE,"CV","p",1002,"cv","E",3,"v","v",TRUE,1,-0.387298476406024
"CVOE updated",2001,1,1,48,"S 61","","",TRUE,"CV","q",929,"cv","S",1,"c","c",TRUE,1,-0.427959300175558
"CVOE updated",2001,1,1,49,"U 67","","",FALSE,"CV","p",1199,"cv","U",7,"v","v",TRUE,1,-0.277569951986868
"CVOE updated",2001,1,1,50,"H 32","","",FALSE,"CV","q",848,"cv","H",2,"c","c",TRUE,1,-0.473076104632165
"CVOE updated",2001,1,1,51,"U 50","","",TRUE,"CV","p",1083,"cv","U",0,"v","v",TRUE,1,-0.342181671949417
"CVOE updated",2001,1,1,52,"O 49","","",FALSE,"CV","p",967,"cv","O",9,"v","v",TRUE,1,-0.406793391911965
"CVOE updated",2001,1,1,53,"U 32","","",TRUE,"CV","p",889,"cv","U",2,"v","v",TRUE,1,-0.45023920361092
"CVOE updated",2001,1,1,54,"J 78","","",FALSE,"CV","q",1639,"cv","J",8,"c","c",TRUE,1,-0.0324910141978927
"CVOE updated",2001,1,1,55,"S 54","","",FALSE,"CV","p",1284,"cv","S",4,"c","v",FALSE,0,-0.230225157186725
"CVOE updated",2001,1,1,56,"J 27","","",TRUE,"CV","q",4611,"cv","J",7,"c","c",TRUE,1,1.62290581104946
"CVOE updated",2001,1,1,57,"S 06","","",FALSE,"CV","q",1201,"cv","S",6,"c","c",TRUE,1,-0.2764559568151
"CVOE updated",2001,1,1,58,"D 67","","",TRUE,"CV","q",969,"cv","D",7,"c","c",TRUE,1,-0.405679396740197
"CVOE updated",2001,1,1,59,"A 79","","",FALSE,"CV","p",1087,"cv","A",9,"v","v",TRUE,1,-0.33995368160588
"CVOE updated",2001,1,1,60,"S 52","","",FALSE,"CV","q",853,"cv","S",2,"c","c",TRUE,1,-0.470291116702745
"CVOE updated",2001,1,1,61,"U 16","","",TRUE,"CV","p",1009,"cv","U",6,"v","v",TRUE,1,-0.383399493304835
"CVOE updated",2001,1,1,62,"O 82","","",TRUE,"CV","p",898,"cv","O",2,"v","v",TRUE,1,-0.445226225337963
"CVOE updated",2001,1,1,63,"H 87","","",TRUE,"CV","q",809,"cv","H",7,"c","c",TRUE,1,-0.494799010481642
"CVOE updated",2001,1,1,64,"I 32","","",TRUE,"CV","p",961,"cv","I",2,"v","v",TRUE,1,-0.410135377427269
"CVOE updated",2001,1,1,65,"U 37","","",FALSE,"CV","p",1157,"cv","U",7,"v","v",TRUE,1,-0.300963850593998
"CVOE updated",2001,1,1,66,"I 42","","",TRUE,"CV","p",895,"cv","I",2,"v","v",TRUE,1,-0.446897218095615
"CVOE updated",2001,1,1,67,"D 65","","",TRUE,"CV","p",1002,"cv","D",5,"c","v",FALSE,0,-0.387298476406024
"CVOE updated",2001,1,1,68,"U 77","","",FALSE,"CV","q",264,"cv","U",7,"v","c",FALSE,0,-0.798362694788442
"CVOE updated",2001,1,1,69,"E 12","","",TRUE,"CV","q",1358,"cv","E",2,"v","c",FALSE,0,-0.189007335831307
"CVOE updated",2001,1,1,70,"I 60","","",TRUE,"CV","p",1601,"cv","I",0,"v","v",TRUE,1,-0.0536569224614861
"CVOE updated",2001,1,1,71,"J 36","","",FALSE,"CV","p",4726,"cv","J",6,"c","v",FALSE,0,1.68696053342613
"CVOE updated",2001,1,1,72,"H 75","","",TRUE,"CV","q",1122,"cv","H",5,"c","c",TRUE,1,-0.320458766099939
"CVOE updated",2001,1,1,73,"I 50","","",TRUE,"CV","p",1051,"cv","I",0,"v","v",TRUE,1,-0.360005594697706
"CVOE updated",2001,1,1,74,"E 99","","",FALSE,"CV","p",1198,"cv","E",9,"v","v",TRUE,1,-0.278126949572753
"CVOE updated",2001,1,1,75,"A 86","","",TRUE,"CV","p",1160,"cv","A",6,"v","v",TRUE,1,-0.299292857836346
"CVOE updated",2001,1,1,76,"U 48","","",TRUE,"CV","p",921,"cv","U",8,"v","v",TRUE,1,-0.43241528086263
"CVOE updated",2001,1,1,77,"E 01","","",FALSE,"CV","p",1207,"cv","E",1,"v","v",TRUE,1,-0.273113971299796
"CVOE updated",2001,1,1,78,"A 78","","",TRUE,"CV","p",777,"cv","A",8,"v","v",TRUE,1,-0.512622933229932
"CVOE updated",2001,1,1,79,"P 60","","",FALSE,"CV","q",1041,"cv","P",0,"c","c",TRUE,1,-0.365575570556546
"CVOE updated",2001,1,1,80,"E 43","","",FALSE,"CV","p",974,"cv","E",3,"v","v",TRUE,1,-0.402894408810777
"CVOE updated",2001,1,1,81,"D 69","","",TRUE,"CV","q",1036,"cv","D",9,"c","c",TRUE,1,-0.368360558485966
"CVOE updated",2001,1,1,82,"H 11","","",TRUE,"CV","q",1010,"cv","H",1,"c","c",TRUE,1,-0.382842495718951
"CVOE updated",2001,1,1,83,"P 43","","",TRUE,"CV","q",960,"cv","P",3,"c","c",TRUE,1,-0.410692375013153
"CVOE updated",2001,1,1,84,"O 67","","",FALSE,"CV","p",843,"cv","O",7,"v","v",TRUE,1,-0.475861092561585
"CVOE updated",2001,1,1,85,"S 91","","",FALSE,"CV","q",806,"cv","S",1,"c","c",TRUE,1,-0.496470003239295
"CVOE updated",2001,1,1,86,"J 68","","",TRUE,"CV","q",1520,"cv","J",8,"c","c",TRUE,1,-0.098773726918093
"CVOE updated",2001,1,1,87,"S 47","","",FALSE,"CV","q",1008,"cv","S",7,"c","c",TRUE,1,-0.383956490890719
"CVOE updated",2001,1,1,88,"I 81","","",TRUE,"CV","p",998,"cv","I",1,"v","v",TRUE,1,-0.38952646674956
"CVOE updated",2001,1,1,89,"J 39","","",FALSE,"CV","q",1553,"cv","J",9,"c","c",TRUE,1,-0.0803928065839198
"CVOE updated",2001,1,1,90,"A 11","","",TRUE,"CV","p",1142,"cv","A",1,"v","v",TRUE,1,-0.309318814382259
"CVOE updated",2001,1,1,91,"O 76","","",FALSE,"CV","p",1076,"cv","O",6,"v","v",TRUE,1,-0.346080655050605
"CVOE updated",2001,1,1,92,"A 62","","",FALSE,"CV","p",999,"cv","A",2,"v","v",TRUE,1,-0.388969469163676
"CVOE updated",2001,1,1,93,"O 27","","",TRUE,"CV","p",809,"cv","O",7,"v","v",TRUE,1,-0.494799010481642
"CVOE updated",2001,1,1,94,"E 66","","",FALSE,"CV","p",1196,"cv","E",6,"v","v",TRUE,1,-0.279240944744521
"CVOE updated",2001,1,1,95,"J 62","","",TRUE,"CV","q",1197,"cv","J",2,"c","c",TRUE,1,-0.278683947158637
"CVOE updated",2001,1,1,96,"H 72","","",TRUE,"CV","q",1238,"cv","H",2,"c","c",TRUE,1,-0.255847046137391
"CVOE updated",2001,1,1,97,"E 49","","",TRUE,"CV","p",932,"cv","E",9,"v","v",TRUE,1,-0.426288307417906
"CVOE updated",2001,1,1,98,"D 52","","",TRUE,"CV","q",887,"cv","D",2,"c","c",TRUE,1,-0.451353198782688
"CVOE updated",2001,1,1,99,"H 62","","",TRUE,"CV","q",1050,"cv","H",2,"c","c",TRUE,1,-0.36056259228359
"CVOE updated",2001,1,1,100,"I 11","","",TRUE,"CV","p",928,"cv","I",1,"v","v",TRUE,1,-0.428516297761442
"CVOE updated",2001,1,1,101,"A 98","","",FALSE,"CV","p",1079,"cv","A",8,"v","v",TRUE,1,-0.344409662292953
"CVOE updated",2001,1,1,102,"H 29","","",FALSE,"CV","q",1119,"cv","H",9,"c","c",TRUE,1,-0.322129758857591
"CVOE updated",2001,1,1,103,"E 83","","",TRUE,"CV","p",1244,"cv","E",3,"v","v",TRUE,1,-0.252505060622087
"CVOE updated",2001,1,1,104,"D 43","","",FALSE,"CV","q",843,"cv","D",3,"c","c",TRUE,1,-0.475861092561585
"CVOE updated",2001,1,1,105,"P 45","","",TRUE,"CV","p",1039,"cv","P",5,"c","v",FALSE,0,-0.366689565728314
"CVOE updated",2001,1,1,106,"J 17","","",TRUE,"CV","q",2383,"cv","J",7,"c","c",TRUE,1,0.38191518969983
"CVOE_B",1002,1,2,11,"A 71","","",FALSE,"CV","p",4490,"cv","A",1,"v","v",TRUE,1,1.55550910315749
"CVOE_B",1002,1,2,12,"I 66","","",TRUE,"CV","p",1197,"cv","I",6,"v","v",TRUE,1,-0.278683947158637
"CVOE_B",1002,1,2,13,"S 30","","",FALSE,"CV","q",1276,"cv","S",0,"c","c",TRUE,1,-0.234681137873798
"CVOE_B",1002,1,2,14,"D 20","","",FALSE,"CV","q",1076,"cv","D",0,"c","c",TRUE,1,-0.346080655050605
"CVOE_B",1002,1,2,15,"I 31","","",FALSE,"CV","p",921,"cv","I",1,"v","v",TRUE,1,-0.43241528086263
"CVOE_B",1002,1,2,16,"P 16","","",FALSE,"CV","q",931,"cv","P",6,"c","c",TRUE,1,-0.42684530500379
"CVOE_B",1002,1,2,17,"A 49","","",FALSE,"CV","p",886,"cv","A",9,"v","v",TRUE,1,-0.451910196368572
"CVOE_B",1002,1,2,18,"O 64","","",TRUE,"CV","p",734,"cv","O",4,"v","v",TRUE,1,-0.536573829422945
"CVOE_B",1002,1,2,19,"D 02","","",FALSE,"CV","q",812,"cv","D",2,"c","c",TRUE,1,-0.49312801772399
"CVOE_B",1002,1,2,20,"P 81","","",TRUE,"CV","q",1079,"cv","P",1,"c","c",TRUE,1,-0.344409662292953
"CVOE_B",1002,1,2,21,"J 58","","",FALSE,"CV","q",1119,"cv","J",8,"c","c",TRUE,1,-0.322129758857591
"CVOE_B",1002,1,2,22,"A 22","","",TRUE,"CV","p",928,"cv","A",2,"v","v",TRUE,1,-0.428516297761442
"CVOE_B",1002,1,2,23,"J 72","","",FALSE,"CV","q",883,"cv","J",2,"c","c",TRUE,1,-0.453581189126224
"CVOE_B",1002,1,2,24,"P 91","","",TRUE,"CV","q",966,"cv","P",1,"c","c",TRUE,1,-0.407350389497849
"CVOE_B",1002,1,2,25,"E 19","","",FALSE,"CV","p",811,"cv","E",9,"v","v",TRUE,1,-0.493685015309874
"CVOE_B",1002,1,2,26,"I 30","","",TRUE,"CV","p",883,"cv","I",0,"v","v",TRUE,1,-0.453581189126224
"CVOE_B",1002,1,2,27,"D 91","","",TRUE,"CV","q",927,"cv","D",1,"c","c",TRUE,1,-0.429073295347326
"CVOE_B",1002,1,2,28,"O 48","","",TRUE,"CV","p",726,"cv","O",8,"v","v",TRUE,1,-0.541029810110017
"CVOE_B",1002,1,2,29,"A 89","","",FALSE,"CV","p",802,"cv","A",9,"v","v",TRUE,1,-0.498697993582831
"CVOE_B",1002,1,2,30,"U 11","","",FALSE,"CV","q",773,"cv","U",1,"v","c",FALSE,0,-0.514850923573468
"CVOE_B",1002,1,2,31,"I 76","","",TRUE,"CV","p",1857,"cv","I",6,"v","v",TRUE,1,0.0889344595248271
"CVOE_B",1002,1,2,32,"U 89","","",FALSE,"CV","p",1167,"cv","U",9,"v","v",TRUE,1,-0.295393874735158
"CVOE_B",1002,1,2,33,"D 63","","",TRUE,"CV","q",965,"cv","D",3,"c","c",TRUE,1,-0.407907387083733
"CVOE_B",1002,1,2,34,"H 70","","",FALSE,"CV","q",1982,"cv","H",0,"c","c",TRUE,1,0.158559157760332
"CVOE_B",1002,1,2,35,"D 48","","",FALSE,"CV","q",1354,"cv","D",8,"c","c",TRUE,1,-0.191235326174843
"CVOE_B",1002,1,2,36,"P 56","","",FALSE,"CV","q",891,"cv","P",6,"c","c",TRUE,1,-0.449125208439151
"CVOE_B",1002,1,2,37,"O 77","","",FALSE,"CV","p",723,"cv","O",7,"v","v",TRUE,1,-0.54270080286767
"CVOE_B",1002,1,2,38,"P 42","","",FALSE,"CV","q",660,"cv","P",2,"c","c",TRUE,1,-0.577791650778364
"CVOE_B",1002,1,2,39,"H 22","","",FALSE,"CV","q",843,"cv","H",2,"c","c",TRUE,1,-0.475861092561585
"CVOE_B",1002,1,2,40,"E 42","","",TRUE,"CV","p",725,"cv","E",2,"v","v",TRUE,1,-0.541586807695901
"CVOE_B",1002,1,2,41,"J 28","","",FALSE,"CV","q",997,"cv","J",8,"c","c",TRUE,1,-0.390083464335444
"CVOE_B",1002,1,2,42,"E 95","","",FALSE,"CV","p",690,"cv","E",5,"v","v",TRUE,1,-0.561081723201843
"CVOE_B",1002,1,2,43,"S 63","","",TRUE,"CV","q",817,"cv","S",3,"c","c",TRUE,1,-0.49034302979457
"CVOE_B",1002,1,2,44,"H 50","","",FALSE,"CV","q",889,"cv","H",0,"c","c",TRUE,1,-0.45023920361092
"CVOE_B",1002,1,2,45,"S 33","","",TRUE,"CV","q",1285,"cv","S",3,"c","c",TRUE,1,-0.229668159600841
"CVOE_B",1002,1,2,46,"P 57","","",TRUE,"CV","q",1632,"cv","P",7,"c","c",TRUE,1,-0.036389997299081
"CVOE_B",1002,1,2,47,"E 23","","",FALSE,"CV","p",728,"cv","E",3,"v","v",TRUE,1,-0.539915814938249
"CVOE_B",1002,1,2,48,"S 61","","",TRUE,"CV","q",649,"cv","S",1,"c","c",TRUE,1,-0.583918624223088
"CVOE_B",1002,1,2,49,"U 67","","",FALSE,"CV","p",614,"cv","U",7,"v","v",TRUE,1,-0.603413539729029
"CVOE_B",1002,1,2,50,"H 32","","",FALSE,"CV","q",690,"cv","H",2,"c","c",TRUE,1,-0.561081723201843
"CVOE_B",1002,1,2,51,"U 50","","",TRUE,"CV","p",645,"cv","U",0,"v","v",TRUE,1,-0.586146614566624
"CVOE_B",1002,1,2,52,"O 49","","",FALSE,"CV","p",766,"cv","O",9,"v","v",TRUE,1,-0.518749906674656
"CVOE_B",1002,1,2,53,"U 32","","",TRUE,"CV","p",631,"cv","U",2,"v","v",TRUE,1,-0.593944580769001
"CVOE_B",1002,1,2,54,"J 78","","",FALSE,"CV","q",848,"cv","J",8,"c","c",TRUE,1,-0.473076104632165
"CVOE_B",1002,1,2,55,"S 54","","",FALSE,"CV","q",886,"cv","S",4,"c","c",TRUE,1,-0.451910196368572
"CVOE_B",1002,1,2,56,"J 27","","",TRUE,"CV","q",1400,"cv","J",7,"c","c",TRUE,1,-0.165613437224177
"CVOE_B",1002,1,2,57,"S 06","","",FALSE,"CV","q",651,"cv","S",6,"c","c",TRUE,1,-0.58280462905132
"CVOE_B",1002,1,2,58,"D 67","","",TRUE,"CV","q",736,"cv","D",7,"c","c",TRUE,1,-0.535459834251177
"CVOE_B",1002,1,2,59,"A 79","","",FALSE,"CV","p",735,"cv","A",9,"v","v",TRUE,1,-0.536016831837061
"CVOE_B",1002,1,2,60,"S 52","","",FALSE,"CV","q",812,"cv","S",2,"c","c",TRUE,1,-0.49312801772399
"CVOE_B",1002,1,2,61,"U 16","","",TRUE,"CV","p",649,"cv","U",6,"v","v",TRUE,1,-0.583918624223088
"CVOE_B",1002,1,2,62,"O 82","","",TRUE,"CV","p",614,"cv","O",2,"v","v",TRUE,1,-0.603413539729029
"CVOE_B",1002,1,2,63,"H 87","","",TRUE,"CV","q",730,"cv","H",7,"c","c",TRUE,1,-0.538801819766481
"CVOE_B",1002,1,2,64,"I 32","","",TRUE,"CV","p",807,"cv","I",2,"v","v",TRUE,1,-0.495913005653411
"CVOE_B",1002,1,2,65,"U 37","","",FALSE,"CV","p",762,"cv","U",7,"v","v",TRUE,1,-0.520977897018192
"CVOE_B",1002,1,2,66,"I 42","","",TRUE,"CV","p",766,"cv","I",2,"v","v",TRUE,1,-0.518749906674656
"CVOE_B",1002,1,2,67,"D 65","","",TRUE,"CV","q",693,"cv","D",5,"c","c",TRUE,1,-0.559410730444191
"CVOE_B",1002,1,2,68,"U 77","","",FALSE,"CV","p",646,"cv","U",7,"v","v",TRUE,1,-0.58558961698074
"CVOE_B",1002,1,2,69,"E 12","","",TRUE,"CV","p",611,"cv","E",2,"v","v",TRUE,1,-0.605084532486681
"CVOE_B",1002,1,2,70,"I 60","","",TRUE,"CV","p",727,"cv","I",0,"v","v",TRUE,1,-0.540472812524133
"CVOE_B",1002,1,2,71,"J 36","","",FALSE,"CV","q",687,"cv","J",6,"c","c",TRUE,1,-0.562752715959495
"CVOE_B",1002,1,2,72,"H 75","","",TRUE,"CV","q",814,"cv","H",5,"c","c",TRUE,1,-0.492014022552222
"CVOE_B",1002,1,2,73,"I 50","","",TRUE,"CV","p",769,"cv","I",0,"v","v",TRUE,1,-0.517078913917004
"CVOE_B",1002,1,2,74,"E 99","","",FALSE,"CV","p",734,"cv","E",9,"v","v",TRUE,1,-0.536573829422945
"CVOE_B",1002,1,2,75,"A 86","","",TRUE,"CV","p",772,"cv","A",6,"v","v",TRUE,1,-0.515407921159352
"CVOE_B",1002,1,2,76,"U 48","","",TRUE,"CV","p",737,"cv","U",8,"v","v",TRUE,1,-0.534902836665293
"CVOE_B",1002,1,2,77,"E 01","","",FALSE,"CV","p",737,"cv","E",1,"v","v",TRUE,1,-0.534902836665293
"CVOE_B",1002,1,2,78,"A 78","","",TRUE,"CV","p",870,"cv","A",8,"v","v",TRUE,1,-0.460822157742716
"CVOE_B",1002,1,2,79,"P 60","","",FALSE,"CV","q",1243,"cv","P",0,"c","c",TRUE,1,-0.253062058207971
"CVOE_B",1002,1,2,80,"E 43","","",FALSE,"CV","p",763,"cv","E",3,"v","v",TRUE,1,-0.520420899432308
"CVOE_B",1002,1,2,81,"D 69","","",TRUE,"CV","q",1003,"cv","D",9,"c","c",TRUE,1,-0.386741478820139
"CVOE_B",1002,1,2,82,"H 11","","",TRUE,"CV","q",1126,"cv","H",1,"c","c",TRUE,1,-0.318230775756403
"CVOE_B",1002,1,2,83,"P 43","","",TRUE,"CV","q",1075,"cv","P",3,"c","c",TRUE,1,-0.346637652636489
"CVOE_B",1002,1,2,84,"O 67","","",FALSE,"CV","p",645,"cv","O",7,"v","v",TRUE,1,-0.586146614566624
"CVOE_B",1002,1,2,85,"S 91","","",FALSE,"CV","q",649,"cv","S",1,"c","c",TRUE,1,-0.583918624223088
"CVOE_B",1002,1,2,86,"J 68","","",TRUE,"CV","q",693,"cv","J",8,"c","c",TRUE,1,-0.559410730444191
"CVOE_B",1002,1,2,87,"S 47","","",FALSE,"CV","q",724,"cv","S",7,"c","c",TRUE,1,-0.542143805281786
"CVOE_B",1002,1,2,88,"I 81","","",TRUE,"CV","p",762,"cv","I",1,"v","v",TRUE,1,-0.520977897018192
"CVOE_B",1002,1,2,89,"J 39","","",FALSE,"CV","q",649,"cv","J",9,"c","c",TRUE,1,-0.583918624223088
"CVOE_B",1002,1,2,90,"A 11","","",TRUE,"CV","p",656,"cv","A",1,"v","v",TRUE,1,-0.5800196411219
"CVOE_B",1002,1,2,91,"O 76","","",FALSE,"CV","p",560,"cv","O",6,"v","v",TRUE,1,-0.633491409366767
"CVOE_B",1002,1,2,92,"A 62","","",FALSE,"CV","p",608,"cv","A",2,"v","v",TRUE,1,-0.606755525244334
"CVOE_B",1002,1,2,93,"O 27","","",TRUE,"CV","p",920,"cv","O",7,"v","v",TRUE,1,-0.432972278448514
"CVOE_B",1002,1,2,94,"E 66","","",FALSE,"CV","p",657,"cv","E",6,"v","v",TRUE,1,-0.579462643536016
"CVOE_B",1002,1,2,95,"J 62","","",TRUE,"CV","q",762,"cv","J",2,"c","c",TRUE,1,-0.520977897018192
"CVOE_B",1002,1,2,96,"H 72","","",TRUE,"CV","q",610,"cv","H",2,"c","c",TRUE,1,-0.605641530072566
"CVOE_B",1002,1,2,97,"E 49","","",TRUE,"CV","p",726,"cv","E",9,"v","v",TRUE,1,-0.541029810110017
"CVOE_B",1002,1,2,98,"D 52","","",TRUE,"CV","q",607,"cv","D",2,"c","c",TRUE,1,-0.607312522830218
"CVOE_B",1002,1,2,99,"H 62","","",TRUE,"CV","q",722,"cv","H",2,"c","c",TRUE,1,-0.543257800453554
"CVOE_B",1002,1,2,100,"I 11","","",TRUE,"CV","p",738,"cv","I",1,"v","v",TRUE,1,-0.534345839079409
"CVOE_B",1002,1,2,101,"A 98","","",FALSE,"CV","p",620,"cv","A",8,"v","v",TRUE,1,-0.600071554213725
"CVOE_B",1002,1,2,102,"H 29","","",FALSE,"CV","q",697,"cv","H",9,"c","c",TRUE,1,-0.557182740100654
"CVOE_B",1002,1,2,103,"E 83","","",TRUE,"CV","p",689,"cv","E",3,"v","v",TRUE,1,-0.561638720787727
"CVOE_B",1002,1,2,104,"D 43","","",FALSE,"CV","q",817,"cv","D",3,"c","c",TRUE,1,-0.49034302979457
"CVOE_B",1002,1,2,105,"P 45","","",TRUE,"CV","q",654,"cv","P",5,"c","c",TRUE,1,-0.581133636293668
"CVOE_B",1002,1,2,106,"J 17","","",TRUE,"CV","q",699,"cv","J",7,"c","c",TRUE,1,-0.556068744928886
"CVOE_B",2002,1,2,11,"A 71","","",FALSE,"CV","p",5270,"cv","A",1,"v","v",TRUE,1,1.98996722014704
"CVOE_B",2002,1,2,12,"I 66","","",TRUE,"CV","p",1304,"cv","I",6,"v","v",TRUE,1,-0.219085205469045
"CVOE_B",2002,1,2,13,"S 30","","",FALSE,"CV","q",891,"cv","S",0,"c","c",TRUE,1,-0.449125208439151
"CVOE_B",2002,1,2,14,"D 20","","",FALSE,"CV","q",1271,"cv","D",0,"c","c",TRUE,1,-0.237466125803218
"CVOE_B",2002,1,2,15,"I 31","","",FALSE,"CV","p",618,"cv","I",1,"v","v",TRUE,1,-0.601185549385493
"CVOE_B",2002,1,2,16,"P 16","","",FALSE,"CV","q",655,"cv","P",6,"c","c",TRUE,1,-0.580576638707784
"CVOE_B",2002,1,2,17,"A 49","","",FALSE,"CV","p",738,"cv","A",9,"v","v",TRUE,1,-0.534345839079409
"CVOE_B",2002,1,2,18,"O 64","","",TRUE,"CV","p",698,"cv","O",4,"v","v",TRUE,1,-0.55662574251477
"CVOE_B",2002,1,2,19,"D 02","","",FALSE,"CV","q",809,"cv","D",2,"c","c",TRUE,1,-0.494799010481642
"CVOE_B",2002,1,2,20,"P 81","","",TRUE,"CV","p",608,"cv","P",1,"c","v",FALSE,0,-0.606755525244334
"CVOE_B",2002,1,2,21,"J 58","","",FALSE,"CV","p",489,"cv","J",8,"c","v",FALSE,0,-0.673038237964534
"CVOE_B",2002,1,2,22,"A 22","","",TRUE,"CV","q",543,"cv","A",2,"v","c",FALSE,0,-0.642960368326796
"CVOE_B",2002,1,2,23,"J 72","","",FALSE,"CV","q",2409,"cv","J",2,"c","c",TRUE,1,0.396397126932815
"CVOE_B",2002,1,2,24,"P 91","","",TRUE,"CV","q",1519,"cv","P",1,"c","c",TRUE,1,-0.099330724503977
"CVOE_B",2002,1,2,25,"E 19","","",FALSE,"CV","p",615,"cv","E",9,"v","v",TRUE,1,-0.602856542143145
"CVOE_B",2002,1,2,26,"I 30","","",TRUE,"CV","p",1827,"cv","I",0,"v","v",TRUE,1,0.072224531948306
"CVOE_B",2002,1,2,27,"D 91","","",TRUE,"CV","q",801,"cv","D",1,"c","c",TRUE,1,-0.499254991168715
"CVOE_B",2002,1,2,28,"O 48","","",TRUE,"CV","p",655,"cv","O",8,"v","v",TRUE,1,-0.580576638707784
"CVOE_B",2002,1,2,29,"A 89","","",FALSE,"CV","p",816,"cv","A",9,"v","v",TRUE,1,-0.490900027380454
"CVOE_B",2002,1,2,30,"U 11","","",FALSE,"CV","p",653,"cv","U",1,"v","v",TRUE,1,-0.581690633879552
"CVOE_B",2002,1,2,31,"I 76","","",TRUE,"CV","p",597,"cv","I",6,"v","v",TRUE,1,-0.612882498689058
"CVOE_B",2002,1,2,32,"U 89","","",FALSE,"CV","p",573,"cv","U",9,"v","v",TRUE,1,-0.626250440750275
"CVOE_B",2002,1,2,33,"D 63","","",TRUE,"CV","q",974,"cv","D",3,"c","c",TRUE,1,-0.402894408810777
"CVOE_B",2002,1,2,34,"H 70","","",FALSE,"CV","q",896,"cv","H",0,"c","c",TRUE,1,-0.446340220509731
"CVOE_B",2002,1,2,35,"D 48","","",FALSE,"CV","q",571,"cv","D",8,"c","c",TRUE,1,-0.627364435922043
"CVOE_B",2002,1,2,36,"P 56","","",FALSE,"CV","q",659,"cv","P",6,"c","c",TRUE,1,-0.578348648364248
"CVOE_B",2002,1,2,37,"O 77","","",FALSE,"CV","p",610,"cv","O",7,"v","v",TRUE,1,-0.605641530072566
"CVOE_B",2002,1,2,38,"P 42","","",FALSE,"CV","q",648,"cv","P",2,"c","c",TRUE,1,-0.584475621808972
"CVOE_B",2002,1,2,39,"H 22","","",FALSE,"CV","q",535,"cv","H",2,"c","c",TRUE,1,-0.647416349013868
"CVOE_B",2002,1,2,40,"E 42","","",TRUE,"CV","p",617,"cv","E",2,"v","v",TRUE,1,-0.601742546971377
"CVOE_B",2002,1,2,41,"J 28","","",FALSE,"CV","q",537,"cv","J",8,"c","c",TRUE,1,-0.6463023538421
"CVOE_B",2002,1,2,42,"E 95","","",FALSE,"CV","p",542,"cv","E",5,"v","v",TRUE,1,-0.64351736591268
"CVOE_B",2002,1,2,43,"S 63","","",TRUE,"CV","q",820,"cv","S",3,"c","c",TRUE,1,-0.488672037036918
"CVOE_B",2002,1,2,44,"H 50","","",FALSE,"CV","q",539,"cv","H",0,"c","c",TRUE,1,-0.645188358670332
"CVOE_B",2002,1,2,45,"S 33","","",TRUE,"CV","q",487,"cv","S",3,"c","c",TRUE,1,-0.674152233136302
"CVOE_B",2002,1,2,46,"P 57","","",TRUE,"CV","q",502,"cv","P",7,"c","c",TRUE,1,-0.665797269348041
"CVOE_B",2002,1,2,47,"E 23","","",FALSE,"CV","p",540,"cv","E",3,"v","v",TRUE,1,-0.644631361084448
"CVOE_B",2002,1,2,48,"S 61","","",TRUE,"CV","q",528,"cv","S",1,"c","c",TRUE,1,-0.651315332115057
"CVOE_B",2002,1,2,49,"U 67","","",FALSE,"CV","p",649,"cv","U",7,"v","v",TRUE,1,-0.583918624223088
"CVOE_B",2002,1,2,50,"H 32","","",FALSE,"CV","q",1045,"cv","H",2,"c","c",TRUE,1,-0.36334758021301
"CVOE_B",2002,1,2,51,"U 50","","",TRUE,"CV","p",570,"cv","U",0,"v","v",TRUE,1,-0.627921433507927
"CVOE_B",2002,1,2,52,"O 49","","",FALSE,"CV","p",596,"cv","O",9,"v","v",TRUE,1,-0.613439496274942
"CVOE_B",2002,1,2,53,"U 32","","",TRUE,"CV","p",573,"cv","U",2,"v","v",TRUE,1,-0.626250440750275
"CVOE_B",2002,1,2,54,"J 78","","",FALSE,"CV","q",700,"cv","J",8,"c","c",TRUE,1,-0.555511747343002
"CVOE_B",2002,1,2,55,"S 54","","",FALSE,"CV","q",615,"cv","S",4,"c","c",TRUE,1,-0.602856542143145
"CVOE_B",2002,1,2,56,"J 27","","",TRUE,"CV","q",614,"cv","J",7,"c","c",TRUE,1,-0.603413539729029
"CVOE_B",2002,1,2,57,"S 06","","",FALSE,"CV","q",769,"cv","S",6,"c","c",TRUE,1,-0.517078913917004
"CVOE_B",2002,1,2,58,"D 67","","",TRUE,"CV","q",1792,"cv","D",7,"c","c",TRUE,1,0.0527296164423648
"CVOE_B",2002,1,2,59,"A 79","","",FALSE,"CV","p",464,"cv","A",9,"v","v",TRUE,1,-0.686963177611635
"CVOE_B",2002,1,2,60,"S 52","","",FALSE,"CV","q",847,"cv","S",2,"c","c",TRUE,1,-0.473633102218049
"CVOE_B",2002,1,2,61,"U 16","","",TRUE,"CV","p",456,"cv","U",6,"v","v",TRUE,1,-0.691419158298707
"CVOE_B",2002,1,2,62,"O 82","","",TRUE,"CV","p",661,"cv","O",2,"v","v",TRUE,1,-0.57723465319248
"CVOE_B",2002,1,2,63,"H 87","","",TRUE,"CV","q",1041,"cv","H",7,"c","c",TRUE,1,-0.365575570556546
"CVOE_B",2002,1,2,64,"I 32","","",TRUE,"CV","p",584,"cv","I",2,"v","v",TRUE,1,-0.62012346730555
"CVOE_B",2002,1,2,65,"U 37","","",FALSE,"CV","p",499,"cv","U",7,"v","v",TRUE,1,-0.667468262105694
"CVOE_B",2002,1,2,66,"I 42","","",TRUE,"CV","p",458,"cv","I",2,"v","v",TRUE,1,-0.690305163126939
"CVOE_B",2002,1,2,67,"D 65","","",TRUE,"CV","q",685,"cv","D",5,"c","c",TRUE,1,-0.563866711131263
"CVOE_B",2002,1,2,68,"U 77","","",FALSE,"CV","p",422,"cv","U",7,"v","v",TRUE,1,-0.710357076218764
"CVOE_B",2002,1,2,69,"E 12","","",TRUE,"CV","p",621,"cv","E",2,"v","v",TRUE,1,-0.599514556627841
"CVOE_B",2002,1,2,70,"I 60","","",TRUE,"CV","p",502,"cv","I",0,"v","v",TRUE,1,-0.665797269348041
"CVOE_B",2002,1,2,71,"J 36","","",FALSE,"CV","q",618,"cv","J",6,"c","c",TRUE,1,-0.601185549385493
"CVOE_B",2002,1,2,72,"H 75","","",TRUE,"CV","p",460,"cv","H",5,"c","v",FALSE,0,-0.689191167955171
"CVOE_B",2002,1,2,73,"I 50","","",TRUE,"CV","q",1235,"cv","I",0,"v","c",FALSE,0,-0.257518038895043
"CVOE_B",2002,1,2,74,"E 99","","",FALSE,"CV","p",733,"cv","E",9,"v","v",TRUE,1,-0.537130827008829
"CVOE_B",2002,1,2,75,"A 86","","",TRUE,"CV","p",967,"cv","A",6,"v","v",TRUE,1,-0.406793391911965
"CVOE_B",2002,1,2,76,"U 48","","",TRUE,"CV","p",615,"cv","U",8,"v","v",TRUE,1,-0.602856542143145
"CVOE_B",2002,1,2,77,"E 01","","",FALSE,"CV","p",748,"cv","E",1,"v","v",TRUE,1,-0.528775863220569
"CVOE_B",2002,1,2,78,"A 78","","",TRUE,"CV","p",1200,"cv","A",8,"v","v",TRUE,1,-0.277012954400984
"CVOE_B",2002,1,2,79,"P 60","","",FALSE,"CV","q",731,"cv","P",0,"c","c",TRUE,1,-0.538244822180597
"CVOE_B",2002,1,2,80,"E 43","","",FALSE,"CV","p",574,"cv","E",3,"v","v",TRUE,1,-0.625693443164391
"CVOE_B",2002,1,2,81,"D 69","","",TRUE,"CV","q",645,"cv","D",9,"c","c",TRUE,1,-0.586146614566624
"CVOE_B",2002,1,2,82,"H 11","","",TRUE,"CV","q",571,"cv","H",1,"c","c",TRUE,1,-0.627364435922043
"CVOE_B",2002,1,2,83,"P 43","","",TRUE,"CV","q",581,"cv","P",3,"c","c",TRUE,1,-0.621794460063203
"CVOE_B",2002,1,2,84,"O 67","","",FALSE,"CV","p",652,"cv","O",7,"v","v",TRUE,1,-0.582247631465436
"CVOE_B",2002,1,2,85,"S 91","","",FALSE,"CV","q",735,"cv","S",1,"c","c",TRUE,1,-0.536016831837061
"CVOE_B",2002,1,2,86,"J 68","","",TRUE,"CV","q",852,"cv","J",8,"c","c",TRUE,1,-0.470848114288629
"CVOE_B",2002,1,2,87,"S 47","","",FALSE,"CV","q",538,"cv","S",7,"c","c",TRUE,1,-0.645745356256216
"CVOE_B",2002,1,2,88,"I 81","","",TRUE,"CV","p",581,"cv","I",1,"v","v",TRUE,1,-0.621794460063203
"CVOE_B",2002,1,2,89,"J 39","","",FALSE,"CV","q",614,"cv","J",9,"c","c",TRUE,1,-0.603413539729029
"CVOE_B",2002,1,2,90,"A 11","","",TRUE,"CV","p",612,"cv","A",1,"v","v",TRUE,1,-0.604527534900797
"CVOE_B",2002,1,2,91,"O 76","","",FALSE,"CV","p",1276,"cv","O",6,"v","v",TRUE,1,-0.234681137873798
"CVOE_B",2002,1,2,92,"A 62","","",FALSE,"CV","p",841,"cv","A",2,"v","v",TRUE,1,-0.476975087733353
"CVOE_B",2002,1,2,93,"O 27","","",TRUE,"CV","p",527,"cv","O",7,"v","v",TRUE,1,-0.651872329700941
"CVOE_B",2002,1,2,94,"E 66","","",FALSE,"CV","p",573,"cv","E",6,"v","v",TRUE,1,-0.626250440750275
"CVOE_B",2002,1,2,95,"J 62","","",TRUE,"CV","q",854,"cv","J",2,"c","c",TRUE,1,-0.469734119116861
"CVOE_B",2002,1,2,96,"H 72","","",TRUE,"CV","q",1206,"cv","H",2,"c","c",TRUE,1,-0.27367096888568
"CVOE_B",2002,1,2,97,"E 49","","",TRUE,"CV","p",1324,"cv","E",9,"v","v",TRUE,1,-0.207945253751364
"CVOE_B",2002,1,2,98,"D 52","","",TRUE,"CV","q",895,"cv","D",2,"c","c",TRUE,1,-0.446897218095615
"CVOE_B",2002,1,2,99,"H 62","","",TRUE,"CV","q",805,"cv","H",2,"c","c",TRUE,1,-0.497027000825179
"CVOE_B",2002,1,2,100,"I 11","","",TRUE,"CV","p",620,"cv","I",1,"v","v",TRUE,1,-0.600071554213725
"CVOE_B",2002,1,2,101,"A 98","","",FALSE,"CV","p",736,"cv","A",8,"v","v",TRUE,1,-0.535459834251177
"CVOE_B",2002,1,2,102,"H 29","","",FALSE,"CV","q",735,"cv","H",9,"c","c",TRUE,1,-0.536016831837061
"CVOE_B",2002,1,2,103,"E 83","","",TRUE,"CV","q",1009,"cv","E",3,"v","c",FALSE,0,-0.383399493304835
"CVOE_B",2002,1,2,104,"D 43","","",FALSE,"CV","p",998,"cv","D",3,"c","v",FALSE,0,-0.38952646674956
"CVOE_B",2002,1,2,105,"P 45","","",TRUE,"CV","q",2646,"cv","P",5,"c","c",TRUE,1,0.528405554787331
"CVOE_B",2002,1,2,106,"J 17","","",TRUE,"CV","q",1315,"cv","J",7,"c","c",TRUE,1,-0.21295823202432
"CVOE_C",1003,1,2,12,"I 66","","",TRUE,"CV","p",3313,"cv","I",6,"v","v",TRUE,1,0.899922944571983
"CVOE_C",1003,1,2,13,"S 30","","",FALSE,"CV","q",1991,"cv","S",0,"c","c",TRUE,1,0.163572136033288
"CVOE_C",1003,1,2,14,"D 20","","",FALSE,"CV","q",3828,"cv","D",0,"c","c",TRUE,1,1.18677670130226
"CVOE_C",1003,1,2,15,"I 31","","",FALSE,"CV","p",1479,"cv","I",1,"v","v",TRUE,1,-0.121610627939338
"CVOE_C",1003,1,2,16,"P 16","","",FALSE,"CV","q",1039,"cv","P",6,"c","c",TRUE,1,-0.366689565728314
"CVOE_C",1003,1,2,17,"A 49","","",FALSE,"CV","p",1795,"cv","A",9,"v","v",TRUE,1,0.0544006092000169
"CVOE_C",1003,1,2,18,"O 64","","",TRUE,"CV","p",724,"cv","O",4,"v","v",TRUE,1,-0.542143805281786
"CVOE_C",1003,1,2,19,"D 02","","",FALSE,"CV","q",801,"cv","D",2,"c","c",TRUE,1,-0.499254991168715
"CVOE_C",1003,1,2,20,"P 81","","",TRUE,"CV","q",1086,"cv","P",1,"c","c",TRUE,1,-0.340510679191765
"CVOE_C",1003,1,2,21,"J 58","","",FALSE,"CV","q",813,"cv","J",8,"c","c",TRUE,1,-0.492571020138106
"CVOE_C",1003,1,2,22,"A 22","","",TRUE,"CV","p",650,"cv","A",2,"v","v",TRUE,1,-0.583361626637204
"CVOE_C",1003,1,2,23,"J 72","","",FALSE,"CV","q",1320,"cv","J",2,"c","c",TRUE,1,-0.2101732440949
"CVOE_C",1003,1,2,24,"P 91","","",TRUE,"CV","q",1087,"cv","P",1,"c","c",TRUE,1,-0.33995368160588
"CVOE_C",1003,1,2,25,"E 19","","",FALSE,"CV","p",657,"cv","E",9,"v","v",TRUE,1,-0.579462643536016
"CVOE_C",1003,1,2,26,"I 30","","",TRUE,"CV","p",857,"cv","I",0,"v","v",TRUE,1,-0.468063126359209
"CVOE_C",1003,1,2,27,"D 91","","",TRUE,"CV","q",857,"cv","D",1,"c","c",TRUE,1,-0.468063126359209
"CVOE_C",1003,1,2,28,"O 48","","",TRUE,"CV","p",856,"cv","O",8,"v","v",TRUE,1,-0.468620123945093
"CVOE_C",1003,1,2,29,"A 89","","",FALSE,"CV","p",2774,"cv","A",9,"v","v",TRUE,1,0.599701245780488
"CVOE_C",1003,1,2,30,"U 11","","",FALSE,"CV","p",969,"cv","U",1,"v","v",TRUE,1,-0.405679396740197
"CVOE_C",1003,1,2,31,"I 76","","",TRUE,"CV","p",1243,"cv","I",6,"v","v",TRUE,1,-0.253062058207971
"CVOE_C",1003,1,2,32,"U 89","","",FALSE,"CV","p",1076,"cv","U",9,"v","v",TRUE,1,-0.346080655050605
"CVOE_C",1003,1,2,33,"D 63","","",TRUE,"CV","q",959,"cv","D",3,"c","c",TRUE,1,-0.411249372599037
"CVOE_C",1003,1,2,34,"H 70","","",FALSE,"CV","q",685,"cv","H",0,"c","c",TRUE,1,-0.563866711131263
"CVOE_C",1003,1,2,35,"D 48","","",FALSE,"CV","q",618,"cv","D",8,"c","c",TRUE,1,-0.601185549385493
"CVOE_C",1003,1,2,36,"P 56","","",FALSE,"CV","q",930,"cv","P",6,"c","c",TRUE,1,-0.427402302589674
"CVOE_C",1003,1,2,37,"O 77","","",FALSE,"CV","p",1003,"cv","O",7,"v","v",TRUE,1,-0.386741478820139
"CVOE_C",1003,1,2,38,"P 42","","",FALSE,"CV","q",1634,"cv","P",2,"c","c",TRUE,1,-0.0352760021273129
"CVOE_C",1003,1,2,39,"H 22","","",FALSE,"CV","q",813,"cv","H",2,"c","c",TRUE,1,-0.492571020138106
"CVOE_C",1003,1,2,40,"E 42","","",TRUE,"CV","p",766,"cv","E",2,"v","v",TRUE,1,-0.518749906674656
"CVOE_C",1003,1,2,41,"J 28","","",FALSE,"CV","q",849,"cv","J",8,"c","c",TRUE,1,-0.472519107046281
"CVOE_C",1003,1,2,42,"E 95","","",FALSE,"CV","p",653,"cv","E",5,"v","v",TRUE,1,-0.581690633879552
"CVOE_C",1003,1,2,43,"S 63","","",TRUE,"CV","q",932,"cv","S",3,"c","c",TRUE,1,-0.426288307417906
"CVOE_C",1003,1,2,44,"H 50","","",FALSE,"CV","q",653,"cv","H",0,"c","c",TRUE,1,-0.581690633879552
"CVOE_C",1003,1,2,45,"S 33","","",TRUE,"CV","q",501,"cv","S",3,"c","c",TRUE,1,-0.666354266933926
"CVOE_C",1003,1,2,46,"P 57","","",TRUE,"CV","q",577,"cv","P",7,"c","c",TRUE,1,-0.624022450406739
"CVOE_C",1003,1,2,47,"E 23","","",FALSE,"CV","p",688,"cv","E",3,"v","v",TRUE,1,-0.562195718373611
"CVOE_C",1003,1,2,48,"S 61","","",TRUE,"CV","q",581,"cv","S",1,"c","c",TRUE,1,-0.621794460063203
"CVOE_C",1003,1,2,49,"U 67","","",FALSE,"CV","p",848,"cv","U",7,"v","v",TRUE,1,-0.473076104632165
"CVOE_C",1003,1,2,50,"H 32","","",FALSE,"CV","q",772,"cv","H",2,"c","c",TRUE,1,-0.515407921159352
"CVOE_C",1003,1,2,51,"U 50","","",TRUE,"CV","p",699,"cv","U",0,"v","v",TRUE,1,-0.556068744928886
"CVOE_C",1003,1,2,52,"O 49","","",FALSE,"CV","p",770,"cv","O",9,"v","v",TRUE,1,-0.51652191633112
"CVOE_C",1003,1,2,53,"U 32","","",TRUE,"CV","p",853,"cv","U",2,"v","v",TRUE,1,-0.470291116702745
"CVOE_C",1003,1,2,54,"J 78","","",FALSE,"CV","q",735,"cv","J",8,"c","c",TRUE,1,-0.536016831837061
"CVOE_C",1003,1,2,55,"S 54","","",FALSE,"CV","q",1949,"cv","S",4,"c","c",TRUE,1,0.140178237426158
"CVOE_C",1003,1,2,56,"J 27","","",TRUE,"CV","q",688,"cv","J",7,"c","c",TRUE,1,-0.562195718373611
"CVOE_C",1003,1,2,57,"S 06","","",FALSE,"CV","q",662,"cv","S",6,"c","c",TRUE,1,-0.576677655606596
"CVOE_C",1003,1,2,58,"D 67","","",TRUE,"CV","q",963,"cv","D",7,"c","c",TRUE,1,-0.409021382255501
"CVOE_C",1003,1,2,59,"A 79","","",FALSE,"CV","p",610,"cv","A",9,"v","v",TRUE,1,-0.605641530072566
"CVOE_C",1003,1,2,60,"S 52","","",FALSE,"CV","q",648,"cv","S",2,"c","c",TRUE,1,-0.584475621808972
"CVOE_C",1003,1,2,61,"U 16","","",TRUE,"CV","p",731,"cv","U",6,"v","v",TRUE,1,-0.538244822180597
"CVOE_C",1003,1,2,62,"O 82","","",TRUE,"CV","p",730,"cv","O",2,"v","v",TRUE,1,-0.538801819766481
"CVOE_C",1003,1,2,63,"H 87","","",TRUE,"CV","q",809,"cv","H",7,"c","c",TRUE,1,-0.494799010481642
"CVOE_C",1003,1,2,64,"I 32","","",TRUE,"CV","q",1193,"cv","I",2,"v","c",FALSE,0,-0.280911937502173
"CVOE_C",1003,1,2,65,"U 37","","",FALSE,"CV","p",920,"cv","U",7,"v","v",TRUE,1,-0.432972278448514
"CVOE_C",1003,1,2,66,"I 42","","",TRUE,"CV","p",736,"cv","I",2,"v","v",TRUE,1,-0.535459834251177
"CVOE_C",1003,1,2,67,"D 65","","",TRUE,"CV","q",1323,"cv","D",5,"c","c",TRUE,1,-0.208502251337248
"CVOE_C",1003,1,2,68,"U 77","","",FALSE,"CV","p",1167,"cv","U",7,"v","v",TRUE,1,-0.295393874735158
"CVOE_C",1003,1,2,69,"E 12","","",TRUE,"CV","p",811,"cv","E",2,"v","v",TRUE,1,-0.493685015309874
"CVOE_C",1003,1,2,70,"I 60","","",TRUE,"CV","p",687,"cv","I",0,"v","v",TRUE,1,-0.562752715959495
"CVOE_C",1003,1,2,71,"J 36","","",FALSE,"CV","q",698,"cv","J",6,"c","c",TRUE,1,-0.55662574251477
"CVOE_C",1003,1,2,72,"H 75","","",TRUE,"CV","q",1121,"cv","H",5,"c","c",TRUE,1,-0.321015763685823
"CVOE_C",1003,1,2,73,"I 50","","",TRUE,"CV","p",619,"cv","I",0,"v","v",TRUE,1,-0.600628551799609
"CVOE_C",1003,1,2,74,"E 99","","",FALSE,"CV","p",635,"cv","E",9,"v","v",TRUE,1,-0.591716590425465
"CVOE_C",1003,1,2,75,"A 86","","",TRUE,"CV","q",1205,"cv","A",6,"v","c",FALSE,0,-0.274227966471564
"CVOE_C",1003,1,2,76,"U 48","","",TRUE,"CV","p",1832,"cv","U",8,"v","v",TRUE,1,0.0750095198777262
"CVOE_C",1003,1,2,77,"E 01","","",FALSE,"CV","p",902,"cv","E",1,"v","v",TRUE,1,-0.442998234994427
"CVOE_C",1003,1,2,78,"A 78","","",TRUE,"CV","p",2026,"cv","A",8,"v","v",TRUE,1,0.183067051539229
"CVOE_C",1003,1,2,79,"P 60","","",FALSE,"CV","q",1247,"cv","P",0,"c","c",TRUE,1,-0.250834067864435
"CVOE_C",1003,1,2,80,"E 43","","",FALSE,"CV","p",1511,"cv","E",3,"v","v",TRUE,1,-0.103786705191049
"CVOE_C",1003,1,2,81,"D 69","","",TRUE,"CV","q",959,"cv","D",9,"c","c",TRUE,1,-0.411249372599037
"CVOE_C",1003,1,2,82,"H 11","","",TRUE,"CV","q",686,"cv","H",1,"c","c",TRUE,1,-0.563309713545379
"CVOE_C",1003,1,2,83,"P 43","","",TRUE,"CV","q",1126,"cv","P",3,"c","c",TRUE,1,-0.318230775756403
"CVOE_C",1003,1,2,84,"O 67","","",FALSE,"CV","p",646,"cv","O",7,"v","v",TRUE,1,-0.58558961698074
"CVOE_C",1003,1,2,85,"S 91","","",FALSE,"CV","q",729,"cv","S",1,"c","c",TRUE,1,-0.539358817352365
"CVOE_C",1003,1,2,86,"J 68","","",TRUE,"CV","q",1394,"cv","J",8,"c","c",TRUE,1,-0.168955422739481
"CVOE_C",1003,1,2,87,"S 47","","",FALSE,"CV","q",646,"cv","S",7,"c","c",TRUE,1,-0.58558961698074
"CVOE_C",1003,1,2,88,"I 81","","",TRUE,"CV","q",533,"cv","I",1,"v","c",FALSE,0,-0.648530344185636
"CVOE_C",1003,1,2,89,"J 39","","",FALSE,"CV","q",970,"cv","J",9,"c","c",TRUE,1,-0.405122399154313
"CVOE_C",1003,1,2,90,"A 11","","",TRUE,"CV","p",891,"cv","A",1,"v","v",TRUE,1,-0.449125208439151
"CVOE_C",1003,1,2,91,"O 76","","",FALSE,"CV","p",584,"cv","O",6,"v","v",TRUE,1,-0.62012346730555
"CVOE_C",1003,1,2,92,"A 62","","",FALSE,"CV","p",1439,"cv","A",2,"v","v",TRUE,1,-0.1438905313747
"CVOE_C",1003,1,2,93,"O 27","","",TRUE,"CV","p",579,"cv","O",7,"v","v",TRUE,1,-0.622908455234971
"CVOE_C",1003,1,2,94,"E 66","","",FALSE,"CV","p",612,"cv","E",6,"v","v",TRUE,1,-0.604527534900797
"CVOE_C",1003,1,2,95,"J 62","","",TRUE,"CV","q",611,"cv","J",2,"c","c",TRUE,1,-0.605084532486681
"CVOE_C",1003,1,2,96,"H 72","","",TRUE,"CV","q",844,"cv","H",2,"c","c",TRUE,1,-0.475304094975701
"CVOE_C",1003,1,2,97,"E 49","","",TRUE,"CV","p",649,"cv","E",9,"v","v",TRUE,1,-0.583918624223088
"CVOE_C",1003,1,2,98,"D 52","","",TRUE,"CV","q",731,"cv","D",2,"c","c",TRUE,1,-0.538244822180597
"CVOE_C",1003,1,2,99,"H 62","","",TRUE,"CV","q",1712,"cv","H",2,"c","c",TRUE,1,0.00816980957164191
"CVOE_C",1003,1,2,100,"I 11","","",TRUE,"CV","p",568,"cv","I",1,"v","v",TRUE,1,-0.629035428679695
"CVOE_C",1003,1,2,101,"A 98","","",FALSE,"CV","q",617,"cv","A",8,"v","c",FALSE,0,-0.601742546971377
"CVOE_C",1003,1,2,102,"H 29","","",FALSE,"CV","q",1986,"cv","H",9,"c","c",TRUE,1,0.160787148103868
"CVOE_C",1003,1,2,103,"E 83","","",TRUE,"CV","p",1006,"cv","E",3,"v","v",TRUE,1,-0.385070486062487
"CVOE_C",1003,1,2,104,"D 43","","",FALSE,"CV","q",620,"cv","D",3,"c","c",TRUE,1,-0.600071554213725
"CVOE_C",1003,1,2,105,"P 45","","",TRUE,"CV","q",1207,"cv","P",5,"c","c",TRUE,1,-0.273113971299796
"CVOE_C",1003,1,2,106,"J 17","","",TRUE,"CV","q",816,"cv","J",7,"c","c",TRUE,1,-0.490900027380454
"CVOE updated",1009,1,1,11,"A 71","","",FALSE,"CV","p",5184,"cv","A",1,"v","v",TRUE,1,1.94206542776101
"CVOE updated",1009,1,1,12,"I 66","","",TRUE,"CV","p",1673,"cv","I",6,"v","v",TRUE,1,-0.0135530962778355
"CVOE updated",1009,1,1,13,"S 30","","",FALSE,"CV","q",1752,"cv","S",0,"c","c",TRUE,1,0.0304497130070033
"CVOE updated",1009,1,1,14,"D 20","","",FALSE,"CV","q",3618,"cv","D",0,"c","c",TRUE,1,1.06980720826661
"CVOE updated",1009,1,1,15,"I 31","","",FALSE,"CV","p",2675,"cv","I",1,"v","v",TRUE,1,0.544558484777968
"CVOE updated",1009,1,1,16,"P 16","","",FALSE,"CV","q",1694,"cv","P",6,"c","c",TRUE,1,-0.00185614697427074
"CVOE updated",1009,1,1,17,"A 49","","",FALSE,"CV","p",2006,"cv","A",9,"v","v",TRUE,1,0.171927099821548
"CVOE updated",1009,1,1,18,"O 64","","",TRUE,"CV","p",1859,"cv","O",4,"v","v",TRUE,1,0.0900484546965952
"CVOE updated",1009,1,1,19,"D 02","","",FALSE,"CV","q",2697,"cv","D",2,"c","c",TRUE,1,0.556812431667417
"CVOE updated",1009,1,1,20,"P 81","","",TRUE,"CV","q",2068,"cv","P",1,"c","c",TRUE,1,0.206460950146359
"CVOE updated",1009,1,1,21,"J 58","","",FALSE,"CV","q",2107,"cv","J",8,"c","c",TRUE,1,0.228183855995836
"CVOE updated",1009,1,1,22,"A 22","","",TRUE,"CV","p",2681,"cv","A",2,"v","v",TRUE,1,0.547900470293273
"CVOE updated",1009,1,1,23,"J 72","","",FALSE,"CV","q",1745,"cv","J",2,"c","c",TRUE,1,0.0265507299058151
"CVOE updated",1009,1,1,24,"P 91","","",TRUE,"CV","q",1807,"cv","P",1,"c","c",TRUE,1,0.0610845802306253
"CVOE updated",1009,1,1,25,"E 19","","",FALSE,"CV","p",2815,"cv","E",9,"v","v",TRUE,1,0.622538146801733
"CVOE updated",1009,1,1,26,"I 30","","",TRUE,"CV","p",1552,"cv","I",0,"v","v",TRUE,1,-0.0809498041698038
"CVOE updated",1009,1,1,27,"D 91","","",TRUE,"CV","q",1721,"cv","D",1,"c","c",TRUE,1,0.0131827878445982
"CVOE updated",1009,1,1,28,"O 48","","",TRUE,"CV","p",3037,"cv","O",8,"v","v",TRUE,1,0.746191610867989
"CVOE updated",1009,1,1,29,"A 89","","",FALSE,"CV","p",1471,"cv","A",9,"v","v",TRUE,1,-0.126066608626411
"CVOE updated",1009,1,1,30,"U 11","","",FALSE,"CV","p",1771,"cv","U",1,"v","v",TRUE,1,0.0410326671388
"CVOE updated",1009,1,1,31,"I 76","","",TRUE,"CV","p",1617,"cv","I",6,"v","v",TRUE,1,-0.0447449610873415
"CVOE updated",1009,1,1,32,"U 89","","",FALSE,"CV","p",1681,"cv","U",9,"v","v",TRUE,1,-0.00909711559076321
"CVOE updated",1009,1,1,33,"D 63","","",TRUE,"CV","q",1772,"cv","D",3,"c","c",TRUE,1,0.0415896647246841
"CVOE updated",1009,1,1,34,"H 70","","",FALSE,"CV","q",1838,"cv","H",0,"c","c",TRUE,1,0.0783515053930304
"CVOE updated",1009,1,1,35,"D 48","","",FALSE,"CV","q",1785,"cv","D",8,"c","c",TRUE,1,0.0488306333411765
"CVOE updated",1009,1,1,36,"P 56","","",FALSE,"CV","q",1748,"cv","P",6,"c","c",TRUE,1,0.0282217226634672
"CVOE updated",1009,1,1,37,"O 77","","",FALSE,"CV","p",1928,"cv","O",7,"v","v",TRUE,1,0.128481288122594
"CVOE updated",1009,1,1,38,"P 42","","",FALSE,"CV","q",1691,"cv","P",2,"c","c",TRUE,1,-0.00352713973192285
"CVOE updated",1009,1,1,39,"H 22","","",FALSE,"CV","q",1403,"cv","H",2,"c","c",TRUE,1,-0.163942444466525
"CVOE updated",1009,1,1,40,"E 42","","",TRUE,"CV","p",1928,"cv","E",2,"v","v",TRUE,1,0.128481288122594
"CVOE updated",1009,1,1,41,"J 28","","",FALSE,"CV","q",1553,"cv","J",8,"c","c",TRUE,1,-0.0803928065839198
"CVOE updated",1009,1,1,42,"E 95","","",FALSE,"CV","p",1905,"cv","E",5,"v","v",TRUE,1,0.115670343647261
"CVOE updated",1009,1,1,43,"S 63","","",TRUE,"CV","q",2372,"cv","S",3,"c","c",TRUE,1,0.375788216255106
"CVOE updated",1009,1,1,44,"H 50","","",FALSE,"CV","q",1785,"cv","H",0,"c","c",TRUE,1,0.0488306333411765
"CVOE updated",1009,1,1,45,"S 33","","",TRUE,"CV","q",1769,"cv","S",3,"c","c",TRUE,1,0.039918671967032
"CVOE updated",1009,1,1,46,"P 57","","",TRUE,"CV","q",1669,"cv","P",7,"c","c",TRUE,1,-0.0157810866213716
"CVOE updated",1009,1,1,47,"E 23","","",FALSE,"CV","p",2986,"cv","E",3,"v","v",TRUE,1,0.717784733987904
"CVOE updated",1009,1,1,48,"S 61","","",TRUE,"CV","q",1508,"cv","S",1,"c","c",TRUE,1,-0.105457697948701
"CVOE updated",1009,1,1,49,"U 67","","",FALSE,"CV","p",2028,"cv","U",7,"v","v",TRUE,1,0.184181046710997
"CVOE updated",1009,1,1,50,"H 32","","",FALSE,"CV","q",1544,"cv","H",2,"c","c",TRUE,1,-0.0854057848568761
"CVOE updated",1009,1,1,51,"U 50","","",TRUE,"CV","p",2143,"cv","U",0,"v","v",TRUE,1,0.248235769087661
"CVOE updated",1009,1,1,52,"O 49","","",FALSE,"CV","p",1643,"cv","O",9,"v","v",TRUE,1,-0.0302630238543566
"CVOE updated",1009,1,1,53,"U 32","","",TRUE,"CV","p",1303,"cv","U",2,"v","v",TRUE,1,-0.219642203054929
"CVOE updated",1009,1,1,54,"J 78","","",FALSE,"CV","q",1521,"cv","J",8,"c","c",TRUE,1,-0.0982167293322089
"CVOE updated",1009,1,1,55,"S 54","","",FALSE,"CV","q",1678,"cv","S",4,"c","c",TRUE,1,-0.0107681083484153
"CVOE updated",1009,1,1,56,"J 27","","",TRUE,"CV","q",1401,"cv","J",7,"c","c",TRUE,1,-0.165056439638293
"CVOE updated",1009,1,1,57,"S 06","","",FALSE,"CV","q",1630,"cv","S",6,"c","c",TRUE,1,-0.037503992470849
"CVOE updated",1009,1,1,58,"D 67","","",TRUE,"CV","q",1794,"cv","D",7,"c","c",TRUE,1,0.0538436116141328
"CVOE updated",1009,1,1,59,"A 79","","",FALSE,"CV","p",2322,"cv","A",9,"v","v",TRUE,1,0.347938336960904
"CVOE updated",1009,1,1,60,"S 52","","",FALSE,"CV","q",3120,"cv","S",2,"c","c",TRUE,1,0.792422410496364
"CVOE updated",1009,1,1,61,"U 16","","",TRUE,"CV","p",2412,"cv","U",6,"v","v",TRUE,1,0.398068119690467
"CVOE updated",1009,1,1,62,"O 82","","",TRUE,"CV","p",1818,"cv","O",2,"v","v",TRUE,1,0.0672115536753497
"CVOE updated",1009,1,1,63,"H 87","","",TRUE,"CV","q",1485,"cv","H",7,"c","c",TRUE,1,-0.118268642424034
"CVOE updated",1009,1,1,64,"I 32","","",TRUE,"CV","p",1682,"cv","I",2,"v","v",TRUE,1,-0.00854011800487917
"CVOE updated",1009,1,1,65,"U 37","","",FALSE,"CV","p",1235,"cv","U",7,"v","v",TRUE,1,-0.257518038895043
"CVOE updated",1009,1,1,66,"I 42","","",TRUE,"CV","p",1245,"cv","I",2,"v","v",TRUE,1,-0.251948063036203
"CVOE updated",1009,1,1,67,"D 65","","",TRUE,"CV","q",1536,"cv","D",5,"c","c",TRUE,1,-0.0898617655439484
"CVOE updated",1009,1,1,68,"U 77","","",FALSE,"CV","p",1839,"cv","U",7,"v","v",TRUE,1,0.0789085029789145
"CVOE updated",1009,1,1,69,"E 12","","",TRUE,"CV","p",981,"cv","E",2,"v","v",TRUE,1,-0.398995425709588
"CVOE updated",1009,1,1,70,"I 60","","",TRUE,"CV","p",1152,"cv","I",0,"v","v",TRUE,1,-0.303748838523418
"CVOE updated",1009,1,1,71,"J 36","","",FALSE,"CV","q",1496,"cv","J",6,"c","c",TRUE,1,-0.11214166897931
"CVOE updated",1009,1,1,72,"H 75","","",TRUE,"CV","q",1657,"cv","H",5,"c","c",TRUE,1,-0.0224650576519801
"CVOE updated",1009,1,1,73,"I 50","","",TRUE,"CV","p",1517,"cv","I",0,"v","v",TRUE,1,-0.100444719675745
"CVOE updated",1009,1,1,74,"E 99","","",FALSE,"CV","p",1154,"cv","E",9,"v","v",TRUE,1,-0.30263484335165
"CVOE updated",1009,1,1,75,"A 86","","",TRUE,"CV","p",1045,"cv","A",6,"v","v",TRUE,1,-0.36334758021301
"CVOE updated",1009,1,1,76,"U 48","","",TRUE,"CV","p",1069,"cv","U",8,"v","v",TRUE,1,-0.349979638151793
"CVOE updated",1009,1,1,77,"E 01","","",FALSE,"CV","p",1204,"cv","E",1,"v","v",TRUE,1,-0.274784964057448
"CVOE updated",1009,1,1,78,"A 78","","",TRUE,"CV","p",1239,"cv","A",8,"v","v",TRUE,1,-0.255290048551507
"CVOE updated",1009,1,1,79,"P 60","","",FALSE,"CV","q",1616,"cv","P",0,"c","c",TRUE,1,-0.0453019586732255
"CVOE updated",1009,1,1,80,"E 43","","",FALSE,"CV","p",2533,"cv","E",3,"v","v",TRUE,1,0.465464827582435
"CVOE updated",1009,1,1,81,"D 69","","",TRUE,"CV","q",1498,"cv","D",9,"c","c",TRUE,1,-0.111027673807542
"CVOE updated",1009,1,1,82,"H 11","","",TRUE,"CV","q",1287,"cv","H",1,"c","c",TRUE,1,-0.228554164429073
"CVOE updated",1009,1,1,83,"P 43","","",TRUE,"CV","q",1154,"cv","P",3,"c","c",TRUE,1,-0.30263484335165
"CVOE updated",1009,1,1,84,"O 67","","",FALSE,"CV","p",1994,"cv","O",7,"v","v",TRUE,1,0.16524312879094
"CVOE updated",1009,1,1,85,"S 91","","",FALSE,"CV","q",1569,"cv","S",1,"c","c",TRUE,1,-0.0714808452097752
"CVOE updated",1009,1,1,86,"J 68","","",TRUE,"CV","q",1500,"cv","J",8,"c","c",TRUE,1,-0.109913678635774
"CVOE updated",1009,1,1,87,"S 47","","",FALSE,"CV","q",1616,"cv","S",7,"c","c",TRUE,1,-0.0453019586732255
"CVOE updated",1009,1,1,88,"I 81","","",TRUE,"CV","p",1863,"cv","I",1,"v","v",TRUE,1,0.0922764450401313
"CVOE updated",1009,1,1,89,"J 39","","",FALSE,"CV","q",1793,"cv","J",9,"c","c",TRUE,1,0.0532866140282488
"CVOE updated",1009,1,1,90,"A 11","","",TRUE,"CV","p",1906,"cv","A",1,"v","v",TRUE,1,0.116227341233145
"CVOE updated",1009,1,1,91,"O 76","","",FALSE,"CV","p",1399,"cv","O",6,"v","v",TRUE,1,-0.166170434810061
"CVOE updated",1009,1,1,92,"A 62","","",FALSE,"CV","p",1398,"cv","A",2,"v","v",TRUE,1,-0.166727432395945
"CVOE updated",1009,1,1,93,"O 27","","",TRUE,"CV","p",1319,"cv","O",7,"v","v",TRUE,1,-0.210730241680784
"CVOE updated",1009,1,1,94,"E 66","","",FALSE,"CV","p",1192,"cv","E",6,"v","v",TRUE,1,-0.281468935088057
"CVOE updated",1009,1,1,95,"J 62","","",TRUE,"CV","q",1511,"cv","J",2,"c","c",TRUE,1,-0.103786705191049
"CVOE updated",1009,1,1,96,"H 72","","",TRUE,"CV","q",1245,"cv","H",2,"c","c",TRUE,1,-0.251948063036203
"CVOE updated",1009,1,1,97,"E 49","","",TRUE,"CV","p",1944,"cv","E",9,"v","v",TRUE,1,0.137393249496738
"CVOE updated",1009,1,1,98,"D 52","","",TRUE,"CV","q",1773,"cv","D",2,"c","c",TRUE,1,0.0421466623105681
"CVOE updated",1009,1,1,99,"H 62","","",TRUE,"CV","q",1286,"cv","H",2,"c","c",TRUE,1,-0.229111162014957
"CVOE updated",1009,1,1,100,"I 11","","",TRUE,"CV","p",1689,"cv","I",1,"v","v",TRUE,1,-0.00464113490369092
"CVOE updated",1009,1,1,101,"A 98","","",FALSE,"CV","p",1092,"cv","A",8,"v","v",TRUE,1,-0.33716869367646
"CVOE updated",1009,1,1,102,"H 29","","",FALSE,"CV","q",1536,"cv","H",9,"c","c",TRUE,1,-0.0898617655439484
"CVOE updated",1009,1,1,103,"E 83","","",TRUE,"CV","p",1475,"cv","E",3,"v","v",TRUE,1,-0.123838618282875
"CVOE updated",1009,1,1,104,"D 43","","",FALSE,"CV","q",1447,"cv","D",3,"c","c",TRUE,1,-0.139434550687628
"CVOE updated",1009,1,1,105,"P 45","","",TRUE,"CV","q",1377,"cv","P",5,"c","c",TRUE,1,-0.17842438169951
"CVOE updated",1009,1,1,106,"J 17","","",TRUE,"CV","q",1174,"cv","J",7,"c","c",TRUE,1,-0.291494891633969
"CVOE updated",1013,1,1,11,"A 71","","",FALSE,"CV","q",1358,"cv","A",1,"v","c",FALSE,0,-0.189007335831307
"CVOE updated",1013,1,1,12,"I 66","","",TRUE,"CV","q",1056,"cv","I",6,"v","c",FALSE,0,-0.357220606768286
"CVOE updated",1013,1,1,13,"S 30","","",FALSE,"CV","p",1960,"cv","S",0,"c","v",FALSE,0,0.146305210870883
"CVOE updated",1013,1,1,14,"D 20","","",FALSE,"CV","p",1382,"cv","D",0,"c","v",FALSE,0,-0.17563939377009
"CVOE updated",1013,1,1,15,"I 31","","",FALSE,"CV","q",1088,"cv","I",1,"v","c",FALSE,0,-0.339396684019996
"CVOE updated",1013,1,1,16,"P 16","","",FALSE,"CV","p",777,"cv","P",6,"c","v",FALSE,0,-0.512622933229932
"CVOE updated",1013,1,1,17,"A 49","","",FALSE,"CV","q",573,"cv","A",9,"v","c",FALSE,0,-0.626250440750275
"CVOE updated",1013,1,1,18,"O 64","","",TRUE,"CV","q",1114,"cv","O",4,"v","c",FALSE,0,-0.324914746787012
"CVOE updated",1013,1,1,19,"D 02","","",FALSE,"CV","p",785,"cv","D",2,"c","v",FALSE,0,-0.508166952542859
"CVOE updated",1013,1,1,20,"P 81","","",TRUE,"CV","p",1114,"cv","P",1,"c","v",FALSE,0,-0.324914746787012
"CVOE updated",1013,1,1,21,"J 58","","",FALSE,"CV","p",629,"cv","J",8,"c","v",FALSE,0,-0.595058575940769
"CVOE updated",1013,1,1,22,"A 22","","",TRUE,"CV","q",493,"cv","A",2,"v","c",FALSE,0,-0.670810247620998
"CVOE updated",1013,1,1,23,"J 72","","",FALSE,"CV","p",733,"cv","J",2,"c","v",FALSE,0,-0.537130827008829
"CVOE updated",1013,1,1,24,"P 91","","",TRUE,"CV","p",789,"cv","P",1,"c","v",FALSE,0,-0.505938962199323
"CVOE updated",1013,1,1,25,"E 19","","",FALSE,"CV","q",735,"cv","E",9,"v","c",FALSE,0,-0.536016831837061
"CVOE updated",1013,1,1,26,"I 30","","",TRUE,"CV","q",783,"cv","I",0,"v","c",FALSE,0,-0.509280947714627
"CVOE updated",1013,1,1,27,"D 91","","",TRUE,"CV","p",732,"cv","D",1,"c","v",FALSE,0,-0.537687824594713
"CVOE updated",1013,1,1,28,"O 48","","",TRUE,"CV","q",882,"cv","O",8,"v","c",FALSE,0,-0.454138186712108
"CVOE updated",1013,1,1,29,"A 89","","",FALSE,"CV","q",672,"cv","A",9,"v","c",FALSE,0,-0.571107679747755
"CVOE updated",1013,1,1,30,"U 11","","",FALSE,"CV","q",1017,"cv","U",1,"v","c",FALSE,0,-0.378943512617763
"CVOE updated",1013,1,1,31,"I 76","","",TRUE,"CV","q",1934,"cv","I",6,"v","c",FALSE,0,0.131823273637898
"CVOE updated",1013,1,1,32,"U 89","","",FALSE,"CV","p",778,"cv","U",9,"v","v",TRUE,1,-0.512065935644048
"CVOE updated",1013,1,1,33,"D 63","","",TRUE,"CV","p",2430,"cv","D",3,"c","v",FALSE,0,0.40809407623638
"CVOE updated",1013,1,1,34,"H 70","","",FALSE,"CV","p",2537,"cv","H",0,"c","v",FALSE,0,0.467692817925971
"CVOE updated",1013,1,1,35,"D 48","","",FALSE,"CV","p",739,"cv","D",8,"c","v",FALSE,0,-0.533788841493525
"CVOE updated",1013,1,1,36,"P 56","","",FALSE,"CV","p",977,"cv","P",6,"c","v",FALSE,0,-0.401223416053124
"CVOE updated",1013,1,1,37,"O 77","","",FALSE,"CV","q",729,"cv","O",7,"v","c",FALSE,0,-0.539358817352365
"CVOE updated",1013,1,1,38,"P 42","","",FALSE,"CV","p",877,"cv","P",2,"c","v",FALSE,0,-0.456923174641528
"CVOE updated",1013,1,1,39,"H 22","","",FALSE,"CV","p",736,"cv","H",2,"c","v",FALSE,0,-0.535459834251177
"CVOE updated",1013,1,1,40,"E 42","","",TRUE,"CV","q",2277,"cv","E",2,"v","c",FALSE,0,0.322873445596122
"CVOE updated",1013,1,1,41,"J 28","","",FALSE,"CV","p",836,"cv","J",8,"c","v",FALSE,0,-0.479760075662773
"CVOE updated",1013,1,1,42,"E 95","","",FALSE,"CV","q",683,"cv","E",5,"v","c",FALSE,0,-0.564980706303031
"CVOE updated",1013,1,1,43,"S 63","","",TRUE,"CV","p",728,"cv","S",3,"c","v",FALSE,0,-0.539915814938249
"CVOE updated",1013,1,1,44,"H 50","","",FALSE,"CV","p",1008,"cv","H",0,"c","v",FALSE,0,-0.383956490890719
"CVOE updated",1013,1,1,45,"S 33","","",TRUE,"CV","p",690,"cv","S",3,"c","v",FALSE,0,-0.561081723201843
"CVOE updated",1013,1,1,46,"P 57","","",TRUE,"CV","p",1003,"cv","P",7,"c","v",FALSE,0,-0.386741478820139
"CVOE updated",1013,1,1,47,"E 23","","",FALSE,"CV","q",708,"cv","E",3,"v","c",FALSE,0,-0.55105576665593
"CVOE updated",1013,1,1,48,"S 61","","",TRUE,"CV","p",889,"cv","S",1,"c","v",FALSE,0,-0.45023920361092
"CVOE updated",1013,1,1,49,"U 67","","",FALSE,"CV","q",2346,"cv","U",7,"v","c",FALSE,0,0.361306279022121
"CVOE updated",1013,1,1,50,"H 32","","",FALSE,"CV","p",650,"cv","H",2,"c","v",FALSE,0,-0.583361626637204
"CVOE updated",1013,1,1,51,"U 50","","",TRUE,"CV","q",919,"cv","U",0,"v","c",FALSE,0,-0.433529276034399
"CVOE updated",1013,1,1,52,"O 49","","",FALSE,"CV","q",1195,"cv","O",9,"v","c",FALSE,0,-0.279797942330405
"CVOE updated",1013,1,1,53,"U 32","","",TRUE,"CV","q",1870,"cv","U",2,"v","c",FALSE,0,0.0961754281413196
"CVOE updated",1013,1,1,54,"J 78","","",FALSE,"CV","p",659,"cv","J",8,"c","v",FALSE,0,-0.578348648364248
"CVOE updated",1013,1,1,55,"S 54","","",FALSE,"CV","p",770,"cv","S",4,"c","v",FALSE,0,-0.51652191633112
"CVOE updated",1013,1,1,56,"J 27","","",TRUE,"CV","p",641,"cv","J",7,"c","v",FALSE,0,-0.58837460491016
"CVOE updated",1013,1,1,57,"S 06","","",FALSE,"CV","p",945,"cv","S",6,"c","v",FALSE,0,-0.419047338801414
"CVOE updated",1013,1,1,58,"D 67","","",TRUE,"CV","p",919,"cv","D",7,"c","v",FALSE,0,-0.433529276034399
"CVOE updated",1013,1,1,59,"A 79","","",FALSE,"CV","q",584,"cv","A",9,"v","c",FALSE,0,-0.62012346730555
"CVOE updated",1013,1,1,60,"S 52","","",FALSE,"CV","p",858,"cv","S",2,"c","v",FALSE,0,-0.467506128773325
"CVOE updated",1013,1,1,61,"U 16","","",TRUE,"CV","q",838,"cv","U",6,"v","c",FALSE,0,-0.478646080491005
"CVOE updated",1013,1,1,62,"O 82","","",TRUE,"CV","q",684,"cv","O",2,"v","c",FALSE,0,-0.564423708717147
"CVOE updated",1013,1,1,63,"H 87","","",TRUE,"CV","p",631,"cv","H",7,"c","v",FALSE,0,-0.593944580769001
"CVOE updated",1013,1,1,64,"I 32","","",TRUE,"CV","q",596,"cv","I",2,"v","c",FALSE,0,-0.613439496274942
"CVOE updated",1013,1,1,65,"U 37","","",FALSE,"CV","q",1340,"cv","U",7,"v","c",FALSE,0,-0.199033292377219
"CVOE updated",1013,1,1,66,"I 42","","",TRUE,"CV","q",623,"cv","I",2,"v","c",FALSE,0,-0.598400561456073
"CVOE updated",1013,1,1,67,"D 65","","",TRUE,"CV","p",640,"cv","D",5,"c","v",FALSE,0,-0.588931602496044
"CVOE updated",1013,1,1,68,"U 77","","",FALSE,"CV","q",711,"cv","U",7,"v","c",FALSE,0,-0.549384773898278
"CVOE updated",1013,1,1,69,"E 12","","",TRUE,"CV","q",1073,"cv","E",2,"v","c",FALSE,0,-0.347751647808257
"CVOE updated",1013,1,1,70,"I 60","","",TRUE,"CV","q",1909,"cv","I",0,"v","c",FALSE,0,0.117898333990797
"CVOE updated",1013,1,1,71,"J 36","","",FALSE,"CV","p",847,"cv","J",6,"c","v",FALSE,0,-0.473633102218049
"CVOE updated",1013,1,1,72,"H 75","","",TRUE,"CV","p",771,"cv","H",5,"c","v",FALSE,0,-0.515964918745236
"CVOE updated",1013,1,1,73,"I 50","","",TRUE,"CV","q",658,"cv","I",0,"v","c",FALSE,0,-0.578905645950132
"CVOE updated",1013,1,1,74,"E 99","","",FALSE,"CV","q",724,"cv","E",9,"v","c",FALSE,0,-0.542143805281786
"CVOE updated",1013,1,1,75,"A 86","","",TRUE,"CV","q",645,"cv","A",6,"v","c",FALSE,0,-0.586146614566624
"CVOE updated",1013,1,1,76,"U 48","","",TRUE,"CV","q",844,"cv","U",8,"v","c",FALSE,0,-0.475304094975701
"CVOE updated",1013,1,1,77,"E 01","","",FALSE,"CV","q",527,"cv","E",1,"v","c",FALSE,0,-0.651872329700941
"CVOE updated",1013,1,1,78,"A 78","","",TRUE,"CV","q",573,"cv","A",8,"v","c",FALSE,0,-0.626250440750275
"CVOE updated",1013,1,1,79,"P 60","","",FALSE,"CV","p",576,"cv","P",0,"c","v",FALSE,0,-0.624579447992623
"CVOE updated",1013,1,1,80,"E 43","","",FALSE,"CV","q",681,"cv","E",3,"v","c",FALSE,0,-0.566094701474799
"CVOE updated",1013,1,1,81,"D 69","","",TRUE,"CV","p",682,"cv","D",9,"c","v",FALSE,0,-0.565537703888915
"CVOE updated",1013,1,1,82,"H 11","","",TRUE,"CV","p",666,"cv","H",1,"c","v",FALSE,0,-0.57444966526306
"CVOE updated",1013,1,1,83,"P 43","","",TRUE,"CV","p",696,"cv","P",3,"c","v",FALSE,0,-0.557739737686539
"CVOE updated",1013,1,1,84,"O 67","","",FALSE,"CV","p",556,"cv","O",7,"v","v",TRUE,1,-0.635719399710304
"CVOE updated",1013,1,1,85,"S 91","","",FALSE,"CV","p",3263,"cv","S",1,"c","v",FALSE,0,0.872073065277782
"CVOE updated",1013,1,1,86,"J 68","","",TRUE,"CV","p",739,"cv","J",8,"c","v",FALSE,0,-0.533788841493525
"CVOE updated",1013,1,1,87,"S 47","","",FALSE,"CV","p",762,"cv","S",7,"c","v",FALSE,0,-0.520977897018192
"CVOE updated",1013,1,1,88,"I 81","","",TRUE,"CV","q",651,"cv","I",1,"v","c",FALSE,0,-0.58280462905132
"CVOE updated",1013,1,1,89,"J 39","","",FALSE,"CV","p",590,"cv","J",9,"c","v",FALSE,0,-0.616781481790246
"CVOE updated",1013,1,1,90,"A 11","","",TRUE,"CV","q",505,"cv","A",1,"v","c",FALSE,0,-0.664126276590389
"CVOE updated",1013,1,1,91,"O 76","","",FALSE,"CV","q",630,"cv","O",6,"v","c",FALSE,0,-0.594501578354885
"CVOE updated",1013,1,1,92,"A 62","","",FALSE,"CV","q",654,"cv","A",2,"v","c",FALSE,0,-0.581133636293668
"CVOE updated",1013,1,1,93,"O 27","","",TRUE,"CV","q",1091,"cv","O",7,"v","c",FALSE,0,-0.337725691262344
"CVOE updated",1013,1,1,94,"E 66","","",FALSE,"CV","q",796,"cv","E",6,"v","c",FALSE,0,-0.502039979098135
"CVOE updated",1013,1,1,95,"J 62","","",TRUE,"CV","p",657,"cv","J",2,"c","v",FALSE,0,-0.579462643536016
"CVOE updated",1013,1,1,96,"H 72","","",TRUE,"CV","p",1154,"cv","H",2,"c","v",FALSE,0,-0.30263484335165
"CVOE updated",1013,1,1,97,"E 49","","",TRUE,"CV","q",803,"cv","E",9,"v","c",FALSE,0,-0.498140995996947
"CVOE updated",1013,1,1,98,"D 52","","",TRUE,"CV","p",1189,"cv","D",2,"c","v",FALSE,0,-0.283139927845709
"CVOE updated",1013,1,1,99,"H 62","","",TRUE,"CV","p",1600,"cv","H",2,"c","v",FALSE,0,-0.0542139200473701
"CVOE updated",1013,1,1,100,"I 11","","",TRUE,"CV","q",674,"cv","I",1,"v","c",FALSE,0,-0.569993684575987
"CVOE updated",1013,1,1,101,"A 98","","",FALSE,"CV","q",562,"cv","A",8,"v","c",FALSE,0,-0.632377414194999
"CVOE updated",1013,1,1,102,"H 29","","",FALSE,"CV","p",642,"cv","H",9,"c","v",FALSE,0,-0.587817607324276
"CVOE updated",1013,1,1,103,"E 83","","",TRUE,"CV","q",660,"cv","E",3,"v","c",FALSE,0,-0.577791650778364
"CVOE updated",1013,1,1,104,"D 43","","",FALSE,"CV","p",681,"cv","D",3,"c","v",FALSE,0,-0.566094701474799
"CVOE updated",1013,1,1,105,"P 45","","",TRUE,"CV","p",722,"cv","P",5,"c","v",FALSE,0,-0.543257800453554
"CVOE updated",1013,1,1,106,"J 17","","",TRUE,"CV","p",671,"cv","J",7,"c","v",FALSE,0,-0.571664677333639
"CVOE updated",2005,1,1,11,"A 71","","",FALSE,"CV","q",1858,"cv","A",1,"v","c",FALSE,0,0.0894914571107111
"CVOE updated",2005,1,1,12,"I 66","","",TRUE,"CV","q",1208,"cv","I",6,"v","c",FALSE,0,-0.272556973713912
"CVOE updated",2005,1,1,13,"S 30","","",FALSE,"CV","p",738,"cv","S",0,"c","v",FALSE,0,-0.534345839079409
"CVOE updated",2005,1,1,14,"D 20","","",FALSE,"CV","p",1089,"cv","D",0,"c","v",FALSE,0,-0.338839686434112
"CVOE updated",2005,1,1,15,"I 31","","",FALSE,"CV","q",1049,"cv","I",1,"v","c",FALSE,0,-0.361119589869474
"CVOE updated",2005,1,1,16,"P 16","","",FALSE,"CV","p",848,"cv","P",6,"c","v",FALSE,0,-0.473076104632165
"CVOE updated",2005,1,1,17,"A 49","","",FALSE,"CV","q",690,"cv","A",9,"v","c",FALSE,0,-0.561081723201843
"CVOE updated",2005,1,1,18,"O 64","","",TRUE,"CV","q",957,"cv","O",4,"v","c",FALSE,0,-0.412363367770805
"CVOE updated",2005,1,1,19,"D 02","","",FALSE,"CV","p",895,"cv","D",2,"c","v",FALSE,0,-0.446897218095615
"CVOE updated",2005,1,1,20,"P 81","","",TRUE,"CV","p",1314,"cv","P",1,"c","v",FALSE,0,-0.213515229610204
"CVOE updated",2005,1,1,21,"J 58","","",FALSE,"CV","p",727,"cv","J",8,"c","v",FALSE,0,-0.540472812524133
"CVOE updated",2005,1,1,22,"A 22","","",TRUE,"CV","q",647,"cv","A",2,"v","c",FALSE,0,-0.585032619394856
"CVOE updated",2005,1,1,23,"J 72","","",FALSE,"CV","p",769,"cv","J",2,"c","v",FALSE,0,-0.517078913917004
"CVOE updated",2005,1,1,24,"P 91","","",TRUE,"CV","p",930,"cv","P",1,"c","v",FALSE,0,-0.427402302589674
"CVOE updated",2005,1,1,25,"E 19","","",FALSE,"CV","q",2136,"cv","E",9,"v","c",FALSE,0,0.244336785986473
"CVOE updated",2005,1,1,26,"I 30","","",TRUE,"CV","q",1161,"cv","I",0,"v","c",FALSE,0,-0.298735860250462
"CVOE updated",2005,1,1,27,"D 91","","",TRUE,"CV","p",843,"cv","D",1,"c","v",FALSE,0,-0.475861092561585
"CVOE updated",2005,1,1,28,"O 48","","",TRUE,"CV","q",920,"cv","O",8,"v","c",FALSE,0,-0.432972278448514
"CVOE updated",2005,1,1,29,"A 89","","",FALSE,"CV","q",892,"cv","A",9,"v","c",FALSE,0,-0.448568210853267
"CVOE updated",2005,1,1,30,"U 11","","",FALSE,"CV","q",2837,"cv","U",1,"v","c",FALSE,0,0.634792093691182
"CVOE updated",2005,1,1,31,"I 76","","",TRUE,"CV","q",1276,"cv","I",6,"v","c",FALSE,0,-0.234681137873798
"CVOE updated",2005,1,1,32,"U 89","","",FALSE,"CV","q",1467,"cv","U",9,"v","c",FALSE,0,-0.128294598969947
"CVOE updated",2005,1,1,33,"D 63","","",TRUE,"CV","p",692,"cv","D",3,"c","v",FALSE,0,-0.559967728030075
"CVOE updated",2005,1,1,34,"H 70","","",FALSE,"CV","p",1036,"cv","H",0,"c","v",FALSE,0,-0.368360558485966
"CVOE updated",2005,1,1,35,"D 48","","",FALSE,"CV","p",1087,"cv","D",8,"c","v",FALSE,0,-0.33995368160588
"CVOE updated",2005,1,1,36,"P 56","","",FALSE,"CV","p",773,"cv","P",6,"c","v",FALSE,0,-0.514850923573468
"CVOE updated",2005,1,1,37,"O 77","","",FALSE,"CV","q",874,"cv","O",7,"v","c",FALSE,0,-0.45859416739918
"CVOE updated",2005,1,1,38,"P 42","","",FALSE,"CV","p",1247,"cv","P",2,"c","v",FALSE,0,-0.250834067864435
"CVOE updated",2005,1,1,39,"H 22","","",FALSE,"CV","p",806,"cv","H",2,"c","v",FALSE,0,-0.496470003239295
"CVOE updated",2005,1,1,40,"E 42","","",TRUE,"CV","q",1089,"cv","E",2,"v","c",FALSE,0,-0.338839686434112
"CVOE updated",2005,1,1,41,"J 28","","",FALSE,"CV","p",934,"cv","J",8,"c","v",FALSE,0,-0.425174312246138
"CVOE updated",2005,1,1,42,"E 95","","",FALSE,"CV","q",848,"cv","E",5,"v","c",FALSE,0,-0.473076104632165
"CVOE updated",2005,1,1,43,"S 63","","",TRUE,"CV","p",769,"cv","S",3,"c","v",FALSE,0,-0.517078913917004
"CVOE updated",2005,1,1,44,"H 50","","",FALSE,"CV","p",948,"cv","H",0,"c","v",FALSE,0,-0.417376346043761
"CVOE updated",2005,1,1,45,"S 33","","",TRUE,"CV","p",807,"cv","S",3,"c","v",FALSE,0,-0.495913005653411
"CVOE updated",2005,1,1,46,"P 57","","",TRUE,"CV","p",840,"cv","P",7,"c","v",FALSE,0,-0.477532085319237
"CVOE updated",2005,1,1,47,"E 23","","",FALSE,"CV","q",722,"cv","E",3,"v","c",FALSE,0,-0.543257800453554
"CVOE updated",2005,1,1,48,"S 61","","",TRUE,"CV","p",894,"cv","S",1,"c","v",FALSE,0,-0.447454215681499
"CVOE updated",2005,1,1,49,"U 67","","",FALSE,"CV","q",999,"cv","U",7,"v","c",FALSE,0,-0.388969469163676
"CVOE updated",2005,1,1,50,"H 32","","",FALSE,"CV","p",1475,"cv","H",2,"c","v",FALSE,0,-0.123838618282875
"CVOE updated",2005,1,1,51,"U 50","","",TRUE,"CV","q",1011,"cv","U",0,"v","c",FALSE,0,-0.382285498133067
"CVOE updated",2005,1,1,52,"O 49","","",FALSE,"CV","p",1430,"cv","O",9,"v","v",TRUE,1,-0.148903509647656
"CVOE updated",2005,1,1,53,"U 32","","",TRUE,"CV","q",1863,"cv","U",2,"v","c",FALSE,0,0.0922764450401313
"CVOE updated",2005,1,1,54,"J 78","","",FALSE,"CV","p",1781,"cv","J",8,"c","v",FALSE,0,0.0466026429976404
"CVOE updated",2005,1,1,55,"S 54","","",FALSE,"CV","p",1157,"cv","S",4,"c","v",FALSE,0,-0.300963850593998
"CVOE updated",2005,1,1,56,"J 27","","",TRUE,"CV","p",1364,"cv","J",7,"c","v",FALSE,0,-0.185665350316003
"CVOE updated",2005,1,1,57,"S 06","","",FALSE,"CV","p",727,"cv","S",6,"c","v",FALSE,0,-0.540472812524133
"CVOE updated",2005,1,1,58,"D 67","","",TRUE,"CV","p",843,"cv","D",7,"c","v",FALSE,0,-0.475861092561585
"CVOE updated",2005,1,1,59,"A 79","","",FALSE,"CV","q",961,"cv","A",9,"v","c",FALSE,0,-0.410135377427269
"CVOE updated",2005,1,1,60,"S 52","","",FALSE,"CV","p",843,"cv","S",2,"c","v",FALSE,0,-0.475861092561585
"CVOE updated",2005,1,1,61,"U 16","","",TRUE,"CV","q",920,"cv","U",6,"v","c",FALSE,0,-0.432972278448514
"CVOE updated",2005,1,1,62,"O 82","","",TRUE,"CV","q",891,"cv","O",2,"v","c",FALSE,0,-0.449125208439151
"CVOE updated",2005,1,1,63,"H 87","","",TRUE,"CV","p",684,"cv","H",7,"c","v",FALSE,0,-0.564423708717147
"CVOE updated",2005,1,1,64,"I 32","","",TRUE,"CV","q",851,"cv","I",2,"v","c",FALSE,0,-0.471405111874513
"CVOE updated",2005,1,1,65,"U 37","","",FALSE,"CV","q",1437,"cv","U",7,"v","c",FALSE,0,-0.145004526546468
"CVOE updated",2005,1,1,66,"I 42","","",TRUE,"CV","q",1284,"cv","I",2,"v","c",FALSE,0,-0.230225157186725
"CVOE updated",2005,1,1,67,"D 65","","",TRUE,"CV","p",653,"cv","D",5,"c","v",FALSE,0,-0.581690633879552
"CVOE updated",2005,1,1,68,"U 77","","",FALSE,"CV","q",853,"cv","U",7,"v","c",FALSE,0,-0.470291116702745
"CVOE updated",2005,1,1,69,"E 12","","",TRUE,"CV","q",852,"cv","E",2,"v","c",FALSE,0,-0.470848114288629
"CVOE updated",2005,1,1,70,"I 60","","",TRUE,"CV","q",812,"cv","I",0,"v","c",FALSE,0,-0.49312801772399
"CVOE updated",2005,1,1,71,"J 36","","",FALSE,"CV","p",1276,"cv","J",6,"c","v",FALSE,0,-0.234681137873798
"CVOE updated",2005,1,1,72,"H 75","","",TRUE,"CV","p",1583,"cv","H",5,"c","v",FALSE,0,-0.0636828790073987
"CVOE updated",2005,1,1,73,"I 50","","",TRUE,"CV","q",1630,"cv","I",0,"v","c",FALSE,0,-0.037503992470849
"CVOE updated",2005,1,1,74,"E 99","","",FALSE,"CV","q",765,"cv","E",9,"v","c",FALSE,0,-0.51930690426054
"CVOE updated",2005,1,1,75,"A 86","","",TRUE,"CV","q",809,"cv","A",6,"v","c",FALSE,0,-0.494799010481642
"CVOE updated",2005,1,1,76,"U 48","","",TRUE,"CV","q",1077,"cv","U",8,"v","c",FALSE,0,-0.345523657464721
"CVOE updated",2005,1,1,77,"E 01","","",FALSE,"CV","q",842,"cv","E",1,"v","c",FALSE,0,-0.476418090147469
"CVOE updated",2005,1,1,78,"A 78","","",TRUE,"CV","q",841,"cv","A",8,"v","c",FALSE,0,-0.476975087733353
"CVOE updated",2005,1,1,79,"P 60","","",FALSE,"CV","p",644,"cv","P",0,"c","v",FALSE,0,-0.586703612152508
"CVOE updated",2005,1,1,80,"E 43","","",FALSE,"CV","q",1040,"cv","E",3,"v","c",FALSE,0,-0.36613256814243
"CVOE updated",2005,1,1,81,"D 69","","",TRUE,"CV","p",1286,"cv","D",9,"c","v",FALSE,0,-0.229111162014957
"CVOE updated",2005,1,1,82,"H 11","","",TRUE,"CV","p",672,"cv","H",1,"c","v",FALSE,0,-0.571107679747755
"CVOE updated",2005,1,1,83,"P 43","","",TRUE,"CV","p",660,"cv","P",3,"c","v",FALSE,0,-0.577791650778364
"CVOE updated",2005,1,1,84,"O 67","","",FALSE,"CV","q",921,"cv","O",7,"v","c",FALSE,0,-0.43241528086263
"CVOE updated",2005,1,1,85,"S 91","","",FALSE,"CV","p",814,"cv","S",1,"c","v",FALSE,0,-0.492014022552222
"CVOE updated",2005,1,1,86,"J 68","","",TRUE,"CV","p",1434,"cv","J",8,"c","v",FALSE,0,-0.14667551930412
"CVOE updated",2005,1,1,87,"S 47","","",FALSE,"CV","p",1827,"cv","S",7,"c","v",FALSE,0,0.072224531948306
"CVOE updated",2005,1,1,88,"I 81","","",TRUE,"CV","q",997,"cv","I",1,"v","c",FALSE,0,-0.390083464335444
"CVOE updated",2005,1,1,89,"J 39","","",FALSE,"CV","p",650,"cv","J",9,"c","v",FALSE,0,-0.583361626637204
"CVOE updated",2005,1,1,90,"A 11","","",TRUE,"CV","q",654,"cv","A",1,"v","c",FALSE,0,-0.581133636293668
"CVOE updated",2005,1,1,91,"O 76","","",FALSE,"CV","q",815,"cv","O",6,"v","c",FALSE,0,-0.491457024966338
"CVOE updated",2005,1,1,92,"A 62","","",FALSE,"CV","q",730,"cv","A",2,"v","c",FALSE,0,-0.538801819766481
"CVOE updated",2005,1,1,93,"O 27","","",TRUE,"CV","q",1003,"cv","O",7,"v","c",FALSE,0,-0.386741478820139
"CVOE updated",2005,1,1,94,"E 66","","",FALSE,"CV","q",1009,"cv","E",6,"v","c",FALSE,0,-0.383399493304835
"CVOE updated",2005,1,1,95,"J 62","","",TRUE,"CV","p",880,"cv","J",2,"c","v",FALSE,0,-0.455252181883876
"CVOE updated",2005,1,1,96,"H 72","","",TRUE,"CV","p",1394,"cv","H",2,"c","v",FALSE,0,-0.168955422739481
"CVOE updated",2005,1,1,97,"E 49","","",TRUE,"CV","q",841,"cv","E",9,"v","c",FALSE,0,-0.476975087733353
"CVOE updated",2005,1,1,98,"D 52","","",TRUE,"CV","p",802,"cv","D",2,"c","v",FALSE,0,-0.498697993582831
"CVOE updated",2005,1,1,99,"H 62","","",TRUE,"CV","p",1477,"cv","H",2,"c","v",FALSE,0,-0.122724623111107
"CVOE updated",2005,1,1,100,"I 11","","",TRUE,"CV","q",842,"cv","I",1,"v","c",FALSE,0,-0.476418090147469
"CVOE updated",2005,1,1,101,"A 98","","",FALSE,"CV","q",763,"cv","A",8,"v","c",FALSE,0,-0.520420899432308
"CVOE updated",2005,1,1,102,"H 29","","",FALSE,"CV","p",728,"cv","H",9,"c","v",FALSE,0,-0.539915814938249
"CVOE updated",2005,1,1,103,"E 83","","",TRUE,"CV","q",884,"cv","E",3,"v","c",FALSE,0,-0.45302419154034
"CVOE updated",2005,1,1,104,"D 43","","",FALSE,"CV","p",732,"cv","D",3,"c","v",FALSE,0,-0.537687824594713
"CVOE updated",2005,1,1,105,"P 45","","",TRUE,"CV","p",1318,"cv","P",5,"c","v",FALSE,0,-0.211287239266668
"CVOE updated",2005,1,1,106,"J 17","","",TRUE,"CV","p",967,"cv","J",7,"c","v",FALSE,0,-0.406793391911965
"CVOE updated",2009,1,1,12,"I 66","","",TRUE,"CV","p",2383,"cv","I",6,"v","v",TRUE,1,0.38191518969983
"CVOE updated",2009,1,1,13,"S 30","","",FALSE,"CV","q",1711,"cv","S",0,"c","c",TRUE,1,0.00761281198575787
"CVOE updated",2009,1,1,14,"D 20","","",FALSE,"CV","q",1867,"cv","D",0,"c","c",TRUE,1,0.0945044353836675
"CVOE updated",2009,1,1,15,"I 31","","",FALSE,"CV","p",1086,"cv","I",1,"v","v",TRUE,1,-0.340510679191765
"CVOE updated",2009,1,1,16,"P 16","","",FALSE,"CV","q",1951,"cv","P",6,"c","c",TRUE,1,0.141292232597926
"CVOE updated",2009,1,1,17,"A 49","","",FALSE,"CV","p",1206,"cv","A",9,"v","v",TRUE,1,-0.27367096888568
"CVOE updated",2009,1,1,18,"O 64","","",TRUE,"CV","p",2015,"cv","O",4,"v","v",TRUE,1,0.176940078094505
"CVOE updated",2009,1,1,19,"D 02","","",FALSE,"CV","q",1610,"cv","D",2,"c","c",TRUE,1,-0.0486439441885297
"CVOE updated",2009,1,1,20,"P 81","","",TRUE,"CV","q",1724,"cv","P",1,"c","c",TRUE,1,0.0148537806022503
"CVOE updated",2009,1,1,21,"J 58","","",FALSE,"CV","q",1314,"cv","J",8,"c","c",TRUE,1,-0.213515229610204
"CVOE updated",2009,1,1,22,"A 22","","",TRUE,"CV","p",1016,"cv","A",2,"v","v",TRUE,1,-0.379500510203647
"CVOE updated",2009,1,1,23,"J 72","","",FALSE,"CV","q",1259,"cv","J",2,"c","c",TRUE,1,-0.244150096833826
"CVOE updated",2009,1,1,24,"P 91","","",TRUE,"CV","p",1121,"cv","P",1,"c","v",FALSE,0,-0.321015763685823
"CVOE updated",2009,1,1,25,"E 19","","",FALSE,"CV","p",1676,"cv","E",9,"v","v",TRUE,1,-0.0118821035201834
"CVOE updated",2009,1,1,26,"I 30","","",TRUE,"CV","p",3608,"cv","I",0,"v","v",TRUE,1,1.06423723240777
"CVOE updated",2009,1,1,27,"D 91","","",TRUE,"CV","q",1157,"cv","D",1,"c","c",TRUE,1,-0.300963850593998
"CVOE updated",2009,1,1,28,"O 48","","",TRUE,"CV","p",1850,"cv","O",8,"v","v",TRUE,1,0.0850354764236388
"CVOE updated",2009,1,1,29,"A 89","","",FALSE,"CV","p",1347,"cv","A",9,"v","v",TRUE,1,-0.195134309276031
"CVOE updated",2009,1,1,30,"U 11","","",FALSE,"CV","p",1107,"cv","U",1,"v","v",TRUE,1,-0.3288137298882
"CVOE updated",2009,1,1,31,"I 76","","",TRUE,"CV","p",1305,"cv","I",6,"v","v",TRUE,1,-0.218528207883161
"CVOE updated",2009,1,1,32,"U 89","","",FALSE,"CV","p",1382,"cv","U",9,"v","v",TRUE,1,-0.17563939377009
"CVOE updated",2009,1,1,33,"D 63","","",TRUE,"CV","q",1079,"cv","D",3,"c","c",TRUE,1,-0.344409662292953
"CVOE updated",2009,1,1,34,"H 70","","",FALSE,"CV","p",1071,"cv","H",0,"c","v",FALSE,0,-0.348865642980025
"CVOE updated",2009,1,1,35,"D 48","","",FALSE,"CV","p",877,"cv","D",8,"c","v",FALSE,0,-0.456923174641528
"CVOE updated",2009,1,1,36,"P 56","","",FALSE,"CV","p",1122,"cv","P",6,"c","v",FALSE,0,-0.320458766099939
"CVOE updated",2009,1,1,38,"P 42","","",FALSE,"CV","q",1956,"cv","P",2,"c","c",TRUE,1,0.144077220527347
"CVOE updated",2009,1,1,39,"H 22","","",FALSE,"CV","q",1916,"cv","H",2,"c","c",TRUE,1,0.121797317091985
"CVOE updated",2009,1,1,40,"E 42","","",TRUE,"CV","p",950,"cv","E",2,"v","v",TRUE,1,-0.416262350871993
"CVOE updated",2009,1,1,41,"J 28","","",FALSE,"CV","q",1536,"cv","J",8,"c","c",TRUE,1,-0.0898617655439484
"CVOE updated",2009,1,1,42,"E 95","","",FALSE,"CV","p",858,"cv","E",5,"v","v",TRUE,1,-0.467506128773325
"CVOE updated",2009,1,1,43,"S 63","","",TRUE,"CV","q",1189,"cv","S",3,"c","c",TRUE,1,-0.283139927845709
"CVOE updated",2009,1,1,44,"H 50","","",FALSE,"CV","q",2180,"cv","H",0,"c","c",TRUE,1,0.268844679765371
"CVOE updated",2009,1,1,45,"S 33","","",TRUE,"CV","q",1356,"cv","S",3,"c","c",TRUE,1,-0.190121331003075
"CVOE updated",2009,1,1,46,"P 57","","",TRUE,"CV","q",3644,"cv","P",7,"c","c",TRUE,1,1.0842891454996
"CVOE updated",2009,1,1,47,"E 23","","",FALSE,"CV","p",1902,"cv","E",3,"v","v",TRUE,1,0.113999350889609
"CVOE updated",2009,1,1,48,"S 61","","",TRUE,"CV","q",3401,"cv","S",1,"c","c",TRUE,1,0.948938732129778
"CVOE updated",2009,1,1,49,"U 67","","",FALSE,"CV","p",2026,"cv","U",7,"v","v",TRUE,1,0.183067051539229
"CVOE updated",2009,1,1,50,"H 32","","",FALSE,"CV","q",1099,"cv","H",2,"c","c",TRUE,1,-0.333269710575272
"CVOE updated",2009,1,1,51,"U 50","","",TRUE,"CV","p",1135,"cv","U",0,"v","v",TRUE,1,-0.313217797483447
"CVOE updated",2009,1,1,52,"O 49","","",FALSE,"CV","p",1655,"cv","O",9,"v","v",TRUE,1,-0.0235790528237481
"CVOE updated",2009,1,1,53,"U 32","","",TRUE,"CV","p",1725,"cv","U",2,"v","v",TRUE,1,0.0154107781881344
"CVOE updated",2009,1,1,54,"J 78","","",FALSE,"CV","q",994,"cv","J",8,"c","c",TRUE,1,-0.391754457093096
"CVOE updated",2009,1,1,55,"S 54","","",FALSE,"CV","q",1545,"cv","S",4,"c","c",TRUE,1,-0.0848487872709921
"CVOE updated",2009,1,1,56,"J 27","","",TRUE,"CV","q",1733,"cv","J",7,"c","c",TRUE,1,0.0198667588752067
"CVOE updated",2009,1,1,57,"S 06","","",FALSE,"CV","q",1800,"cv","S",6,"c","c",TRUE,1,0.0571855971294371
"CVOE updated",2009,1,1,58,"D 67","","",TRUE,"CV","q",1327,"cv","D",7,"c","c",TRUE,1,-0.206274260993712
"CVOE updated",2009,1,1,59,"A 79","","",FALSE,"CV","p",886,"cv","A",9,"v","v",TRUE,1,-0.451910196368572
"CVOE updated",2009,1,1,60,"S 52","","",FALSE,"CV","q",1979,"cv","S",2,"c","c",TRUE,1,0.156888165002679
"CVOE updated",2009,1,1,61,"U 16","","",TRUE,"CV","p",1199,"cv","U",6,"v","v",TRUE,1,-0.277569951986868
"CVOE updated",2009,1,1,62,"O 82","","",TRUE,"CV","p",1391,"cv","O",2,"v","v",TRUE,1,-0.170626415497134
"CVOE updated",2009,1,1,63,"H 87","","",TRUE,"CV","q",1116,"cv","H",7,"c","c",TRUE,1,-0.323800751615243
"CVOE updated",2009,1,1,64,"I 32","","",TRUE,"CV","p",1239,"cv","I",2,"v","v",TRUE,1,-0.255290048551507
"CVOE updated",2009,1,1,65,"U 37","","",FALSE,"CV","p",1311,"cv","U",7,"v","v",TRUE,1,-0.215186222367856
"CVOE updated",2009,1,1,66,"I 42","","",TRUE,"CV","p",1369,"cv","I",2,"v","v",TRUE,1,-0.182880362386582
"CVOE updated",2009,1,1,67,"D 65","","",TRUE,"CV","q",1020,"cv","D",5,"c","c",TRUE,1,-0.377272519860111
"CVOE updated",2009,1,1,68,"U 77","","",FALSE,"CV","p",1122,"cv","U",7,"v","v",TRUE,1,-0.320458766099939
"CVOE updated",2009,1,1,69,"E 12","","",TRUE,"CV","p",1271,"cv","E",2,"v","v",TRUE,1,-0.237466125803218
"CVOE updated",2009,1,1,70,"I 60","","",TRUE,"CV","p",959,"cv","I",0,"v","v",TRUE,1,-0.411249372599037
"CVOE updated",2009,1,1,71,"J 36","","",FALSE,"CV","q",908,"cv","J",6,"c","c",TRUE,1,-0.439656249479123
"CVOE updated",2009,1,1,72,"H 75","","",TRUE,"CV","p",1199,"cv","H",5,"c","v",FALSE,0,-0.277569951986868
"CVOE updated",2009,1,1,73,"I 50","","",TRUE,"CV","p",1844,"cv","I",0,"v","v",TRUE,1,0.0816934909083346
"CVOE updated",2009,1,1,74,"E 99","","",FALSE,"CV","p",4705,"cv","E",9,"v","v",TRUE,1,1.67526358412256
"CVOE updated",2009,1,1,75,"A 86","","",TRUE,"CV","p",1130,"cv","A",6,"v","v",TRUE,1,-0.316002785412867
"CVOE updated",2009,1,1,76,"U 48","","",TRUE,"CV","p",1251,"cv","U",8,"v","v",TRUE,1,-0.248606077520899
"CVOE updated",2009,1,1,77,"E 01","","",FALSE,"CV","p",1079,"cv","E",1,"v","v",TRUE,1,-0.344409662292953
"CVOE updated",2009,1,1,78,"A 78","","",TRUE,"CV","p",1146,"cv","A",8,"v","v",TRUE,1,-0.307090824038722
"CVOE updated",2009,1,1,79,"P 60","","",FALSE,"CV","q",1904,"cv","P",0,"c","c",TRUE,1,0.115113346061377
"CVOE updated",2009,1,1,80,"E 43","","",FALSE,"CV","p",1279,"cv","E",3,"v","v",TRUE,1,-0.233010145116146
"CVOE updated",2009,1,1,81,"D 69","","",TRUE,"CV","q",2209,"cv","D",9,"c","c",TRUE,1,0.284997609756008
"CVOE updated",2009,1,1,82,"H 11","","",TRUE,"CV","q",2559,"cv","H",1,"c","c",TRUE,1,0.47994676481542
"CVOE updated",2009,1,1,83,"P 43","","",TRUE,"CV","q",1231,"cv","P",3,"c","c",TRUE,1,-0.259746029238579
"CVOE updated",2009,1,1,84,"O 67","","",FALSE,"CV","p",1379,"cv","O",7,"v","v",TRUE,1,-0.177310386527742
"CVOE updated",2009,1,1,85,"S 91","","",FALSE,"CV","q",1360,"cv","S",1,"c","c",TRUE,1,-0.187893340659539
"CVOE updated",2009,1,1,86,"J 68","","",TRUE,"CV","q",1170,"cv","J",8,"c","c",TRUE,1,-0.293722881977506
"CVOE updated",2009,1,1,87,"S 47","","",FALSE,"CV","q",559,"cv","S",7,"c","c",TRUE,1,-0.634048406952651
"CVOE updated",2009,1,1,88,"I 81","","",TRUE,"CV","p",828,"cv","I",1,"v","v",TRUE,1,-0.484216056349846
"CVOE updated",2009,1,1,89,"J 39","","",FALSE,"CV","q",1027,"cv","J",9,"c","c",TRUE,1,-0.373373536758923
"CVOE updated",2009,1,1,90,"A 11","","",TRUE,"CV","p",962,"cv","A",1,"v","v",TRUE,1,-0.409578379841385
"CVOE updated",2009,1,1,91,"O 76","","",FALSE,"CV","p",946,"cv","O",6,"v","v",TRUE,1,-0.41849034121553
"CVOE updated",2009,1,1,92,"A 62","","",FALSE,"CV","p",705,"cv","A",2,"v","v",TRUE,1,-0.552726759413582
"CVOE updated",2009,1,1,93,"O 27","","",TRUE,"CV","p",877,"cv","O",7,"v","v",TRUE,1,-0.456923174641528
"CVOE updated",2009,1,1,94,"E 66","","",FALSE,"CV","p",1030,"cv","E",6,"v","v",TRUE,1,-0.371702544001271
"CVOE updated",2009,1,1,95,"J 62","","",TRUE,"CV","q",1111,"cv","J",2,"c","c",TRUE,1,-0.326585739544664
"CVOE updated",2009,1,1,96,"H 72","","",TRUE,"CV","q",1183,"cv","H",2,"c","c",TRUE,1,-0.286481913361013
"CVOE updated",2009,1,1,97,"E 49","","",TRUE,"CV","p",985,"cv","E",9,"v","v",TRUE,1,-0.396767435366052
"CVOE updated",2009,1,1,98,"D 52","","",TRUE,"CV","q",1248,"cv","D",2,"c","c",TRUE,1,-0.250277070278551
"CVOE updated",2009,1,1,99,"H 62","","",TRUE,"CV","q",1315,"cv","H",2,"c","c",TRUE,1,-0.21295823202432
"CVOE updated",2009,1,1,100,"I 11","","",TRUE,"CV","p",831,"cv","I",1,"v","v",TRUE,1,-0.482545063592194
"CVOE updated",2009,1,1,101,"A 98","","",FALSE,"CV","p",954,"cv","A",8,"v","v",TRUE,1,-0.414034360528457
"CVOE updated",2009,1,1,102,"H 29","","",FALSE,"CV","q",1081,"cv","H",9,"c","c",TRUE,1,-0.343295667121185
"CVOE updated",2009,1,1,103,"E 83","","",TRUE,"CV","p",888,"cv","E",3,"v","v",TRUE,1,-0.450796201196804
"CVOE updated",2009,1,1,104,"D 43","","",FALSE,"CV","q",848,"cv","D",3,"c","c",TRUE,1,-0.473076104632165
"CVOE updated",2009,1,1,105,"P 45","","",TRUE,"CV","q",764,"cv","P",5,"c","c",TRUE,1,-0.519863901846424
"CVOE updated",2009,1,1,106,"J 17","","",TRUE,"CV","q",789,"cv","J",7,"c","c",TRUE,1,-0.505938962199323
"CVOE_B",1006,1,2,11,"A 71","","",FALSE,"CV","p",2229,"cv","A",1,"v","v",TRUE,1,0.296137561473688
"CVOE_B",1006,1,2,12,"I 66","","",TRUE,"CV","p",710,"cv","I",6,"v","v",TRUE,1,-0.549941771484162
"CVOE_B",1006,1,2,13,"S 30","","",FALSE,"CV","q",682,"cv","S",0,"c","c",TRUE,1,-0.565537703888915
"CVOE_B",1006,1,2,14,"D 20","","",FALSE,"CV","q",1436,"cv","D",0,"c","c",TRUE,1,-0.145561524132352
"CVOE_B",1006,1,2,15,"I 31","","",FALSE,"CV","p",672,"cv","I",1,"v","v",TRUE,1,-0.571107679747755
"CVOE_B",1006,1,2,16,"P 16","","",FALSE,"CV","q",745,"cv","P",6,"c","c",TRUE,1,-0.530446855978221
"CVOE_B",1006,1,2,17,"A 49","","",FALSE,"CV","p",1061,"cv","A",9,"v","v",TRUE,1,-0.354435618838865
"CVOE_B",1006,1,2,18,"O 64","","",TRUE,"CV","p",693,"cv","O",4,"v","v",TRUE,1,-0.559410730444191
"CVOE_B",1006,1,2,19,"D 02","","",FALSE,"CV","q",761,"cv","D",2,"c","c",TRUE,1,-0.521534894604076
"CVOE_B",1006,1,2,20,"P 81","","",TRUE,"CV","q",2443,"cv","P",1,"c","c",TRUE,1,0.415335044852872
"CVOE_B",1006,1,2,21,"J 58","","",FALSE,"CV","q",1440,"cv","J",8,"c","c",TRUE,1,-0.143333533788816
"CVOE_B",1006,1,2,22,"A 22","","",TRUE,"CV","p",666,"cv","A",2,"v","v",TRUE,1,-0.57444966526306
"CVOE_B",1006,1,2,23,"J 72","","",FALSE,"CV","q",606,"cv","J",2,"c","c",TRUE,1,-0.607869520416102
"CVOE_B",1006,1,2,24,"P 91","","",TRUE,"CV","q",563,"cv","P",1,"c","c",TRUE,1,-0.631820416609115
"CVOE_B",1006,1,2,25,"E 19","","",FALSE,"CV","p",605,"cv","E",9,"v","v",TRUE,1,-0.608426518001986
"CVOE_B",1006,1,2,26,"I 30","","",TRUE,"CV","p",1724,"cv","I",0,"v","v",TRUE,1,0.0148537806022503
"CVOE_B",1006,1,2,27,"D 91","","",TRUE,"CV","q",536,"cv","D",1,"c","c",TRUE,1,-0.646859351427984
"CVOE_B",1006,1,2,28,"O 48","","",TRUE,"CV","p",619,"cv","O",8,"v","v",TRUE,1,-0.600628551799609
"CVOE_B",1006,1,2,29,"A 89","","",FALSE,"CV","p",887,"cv","A",9,"v","v",TRUE,1,-0.451353198782688
"CVOE_B",1006,1,2,30,"U 11","","",FALSE,"CV","p",800,"cv","U",1,"v","v",TRUE,1,-0.499811988754599
"CVOE_B",1006,1,2,31,"I 76","","",TRUE,"CV","p",1328,"cv","I",6,"v","v",TRUE,1,-0.205717263407828
"CVOE_B",1006,1,2,32,"U 89","","",FALSE,"CV","p",897,"cv","U",9,"v","v",TRUE,1,-0.445783222923847
"CVOE_B",1006,1,2,33,"D 63","","",TRUE,"CV","q",542,"cv","D",3,"c","c",TRUE,1,-0.64351736591268
"CVOE_B",1006,1,2,34,"H 70","","",FALSE,"CV","q",566,"cv","H",0,"c","c",TRUE,1,-0.630149423851463
"CVOE_B",1006,1,2,35,"D 48","","",FALSE,"CV","q",634,"cv","D",8,"c","c",TRUE,1,-0.592273588011349
"CVOE_B",1006,1,2,36,"P 56","","",FALSE,"CV","q",740,"cv","P",6,"c","c",TRUE,1,-0.533231843907641
"CVOE_B",1006,1,2,37,"O 77","","",FALSE,"CV","p",604,"cv","O",7,"v","v",TRUE,1,-0.60898351558787
"CVOE_B",1006,1,2,38,"P 42","","",FALSE,"CV","q",646,"cv","P",2,"c","c",TRUE,1,-0.58558961698074
"CVOE_B",1006,1,2,39,"H 22","","",FALSE,"CV","q",625,"cv","H",2,"c","c",TRUE,1,-0.597286566284305
"CVOE_B",1006,1,2,40,"E 42","","",TRUE,"CV","p",623,"cv","E",2,"v","v",TRUE,1,-0.598400561456073
"CVOE_B",1006,1,2,41,"J 28","","",FALSE,"CV","q",571,"cv","J",8,"c","c",TRUE,1,-0.627364435922043
"CVOE_B",1006,1,2,42,"E 95","","",FALSE,"CV","p",557,"cv","E",5,"v","v",TRUE,1,-0.635162402124419
"CVOE_B",1006,1,2,43,"S 63","","",TRUE,"CV","q",683,"cv","S",3,"c","c",TRUE,1,-0.564980706303031
"CVOE_B",1006,1,2,44,"H 50","","",FALSE,"CV","q",641,"cv","H",0,"c","c",TRUE,1,-0.58837460491016
"CVOE_B",1006,1,2,45,"S 33","","",TRUE,"CV","q",719,"cv","S",3,"c","c",TRUE,1,-0.544928793211206
"CVOE_B",1006,1,2,46,"P 57","","",TRUE,"CV","q",581,"cv","P",7,"c","c",TRUE,1,-0.621794460063203
