ExperimentName,Subject,Group,Block,Trial,STIM,TASK,Switch,Congruent,CVOE,Response,RT,block_type
CVOE updated,1001,1,1,11,A 71,,,FALSE,CV,p,4811,cv
CVOE updated,1001,1,1,12,I 66,,,TRUE,CV,p,1960,cv
CVOE updated,1001,1,1,13,S 30,,,FALSE,CV,q,918,cv
CVOE updated,1001,1,1,14,D 20,,,FALSE,CV,q,790,cv
CVOE updated,1001,1,1,15,I 31,,,FALSE,CV,p,874,cv
CVOE updated,1001,1,1,16,P 16,,,FALSE,CV,q,700,cv
CVOE updated,1001,1,1,17,A 49,,,FALSE,CV,p,1100,cv
CVOE updated,1001,1,1,18,O 64,,,TRUE,CV,p,1100,cv
CVOE updated,1001,1,1,19,D 02,,,FALSE,CV,q,892,cv
CVOE updated,1001,1,1,20,P 81,,,TRUE,CV,q,1116,cv
CVOE updated,1001,1,1,21,J 58,,,FALSE,CV,q,828,cv
CVOE updated,1001,1,1,22,A 22,,,TRUE,CV,p,679,cv
CVOE updated,1001,1,1,23,J 72,,,FALSE,CV,q,999,cv
CVOE updated,1001,1,1,24,P 91,,,TRUE,CV,q,1027,cv
CVOE updated,1001,1,1,25,E 19,,,FALSE,CV,p,622,cv
CVOE updated,1001,1,1,26,I 30,,,TRUE,CV,p,618,cv
CVOE updated,1001,1,1,27,D 91,,,TRUE,CV,q,717,cv
CVOE updated,1001,1,1,28,O 48,,,TRUE,CV,p,636,cv
CVOE updated,1001,1,1,29,A 89,,,FALSE,CV,p,1127,cv
CVOE updated,1001,1,1,30,U 11,,,FALSE,CV,p,886,cv
CVOE updated,1001,1,1,31,I 76,,,TRUE,CV,p,726,cv
CVOE updated,1001,1,1,32,U 89,,,FALSE,CV,p,669,cv
CVOE updated,1001,1,1,33,D 63,,,TRUE,CV,q,758,cv
CVOE updated,1001,1,1,34,H 70,,,FALSE,CV,q,1052,cv
CVOE updated,1001,1,1,35,D 48,,,FALSE,CV,q,591,cv
CVOE updated,1001,1,1,36,P 56,,,FALSE,CV,q,635,cv
CVOE updated,1001,1,1,37,O 77,,,FALSE,CV,p,645,cv
CVOE updated,1001,1,1,38,P 42,,,FALSE,CV,q,776,cv
CVOE updated,1001,1,1,39,H 22,,,FALSE,CV,q,668,cv
CVOE updated,1001,1,1,40,E 42,,,TRUE,CV,p,574,cv
CVOE updated,1001,1,1,41,J 28,,,FALSE,CV,q,690,cv
CVOE updated,1001,1,1,42,E 95,,,FALSE,CV,p,787,cv
CVOE updated,1001,1,1,43,S 63,,,TRUE,CV,q,1031,cv
CVOE updated,1001,1,1,44,H 50,,,FALSE,CV,q,602,cv
CVOE updated,1001,1,1,45,S 33,,,TRUE,CV,q,646,cv
CVOE updated,1001,1,1,46,P 57,,,TRUE,CV,q,632,cv
CVOE updated,1001,1,1,47,E 23,,,FALSE,CV,p,699,cv
CVOE updated,1001,1,1,48,S 61,,,TRUE,CV,q,763,cv
CVOE updated,1001,1,1,49,U 67,,,FALSE,CV,p,560,cv
CVOE updated,1001,1,1,50,H 32,,,FALSE,CV,q,685,cv
CVOE updated,1001,1,1,51,U 50,,,TRUE,CV,p,502,cv
CVOE updated,1001,1,1,52,O 49,,,FALSE,CV,p,630,cv
CVOE updated,1001,1,1,53,U 32,,,TRUE,CV,p,609,cv
CVOE updated,1001,1,1,54,J 78,,,FALSE,CV,q,716,cv
CVOE updated,1001,1,1,55,S 54,,,FALSE,CV,q,635,cv
CVOE updated,1001,1,1,56,J 27,,,TRUE,CV,q,566,cv
CVOE updated,1001,1,1,57,S 06,,,FALSE,CV,q,635,cv
CVOE updated,1001,1,1,58,D 67,,,TRUE,CV,q,766,cv
CVOE updated,1001,1,1,59,A 79,,,FALSE,CV,p,771,cv
CVOE updated,1001,1,1,60,S 52,,,FALSE,CV,q,768,cv
CVOE updated,1001,1,1,61,U 16,,,TRUE,CV,p,702,cv
CVOE updated,1001,1,1,62,O 82,,,TRUE,CV,p,590,cv
CVOE updated,1001,1,1,63,H 87,,,TRUE,CV,q,722,cv
CVOE updated,1001,1,1,64,I 32,,,TRUE,CV,p,1330,cv
CVOE updated,1001,1,1,65,U 37,,,FALSE,CV,p,833,cv
CVOE updated,1001,1,1,66,I 42,,,TRUE,CV,p,620,cv
CVOE updated,1001,1,1,67,D 65,,,TRUE,CV,q,679,cv
CVOE updated,1001,1,1,68,U 77,,,FALSE,CV,p,743,cv
CVOE updated,1001,1,1,69,E 12,,,TRUE,CV,p,1326,cv
CVOE updated,1001,1,1,70,I 60,,,TRUE,CV,p,565,cv
CVOE updated,1001,1,1,71,J 36,,,FALSE,CV,q,698,cv
CVOE updated,1001,1,1,72,H 75,,,TRUE,CV,q,778,cv
CVOE updated,1001,1,1,73,I 50,,,TRUE,CV,p,742,cv
CVOE updated,1001,1,1,74,E 99,,,FALSE,CV,p,725,cv
CVOE updated,1001,1,1,75,A 86,,,TRUE,CV,p,1019,cv
CVOE updated,1001,1,1,76,U 48,,,TRUE,CV,p,631,cv
CVOE updated,1001,1,1,77,E 01,,,FALSE,CV,p,649,cv
CVOE updated,1001,1,1,78,A 78,,,TRUE,CV,p,699,cv
CVOE updated,1001,1,1,79,P 60,,,FALSE,CV,q,803,cv
CVOE updated,1001,1,1,80,E 43,,,FALSE,CV,p,975,cv
CVOE updated,1001,1,1,81,D 69,,,TRUE,CV,q,924,cv
CVOE updated,1001,1,1,82,H 11,,,TRUE,CV,q,612,cv
CVOE updated,1001,1,1,83,P 43,,,TRUE,CV,q,543,cv
CVOE updated,1001,1,1,84,O 67,,,FALSE,CV,p,613,cv
CVOE updated,1001,1,1,85,S 91,,,FALSE,CV,q,728,cv
CVOE updated,1001,1,1,86,J 68,,,TRUE,CV,q,671,cv
CVOE updated,1001,1,1,87,S 47,,,FALSE,CV,q,624,cv
CVOE updated,1001,1,1,88,I 81,,,TRUE,CV,p,659,cv
CVOE updated,1001,1,1,89,J 39,,,FALSE,CV,q,805,cv
CVOE updated,1001,1,1,90,A 11,,,TRUE,CV,p,793,cv
CVOE updated,1001,1,1,91,O 76,,,FALSE,CV,p,541,cv
CVOE updated,1001,1,1,92,A 62,,,FALSE,CV,p,547,cv
CVOE updated,1001,1,1,93,O 27,,,TRUE,CV,p,545,cv
CVOE updated,1001,1,1,94,E 66,,,FALSE,CV,p,607,cv
CVOE updated,1001,1,1,95,J 62,,,TRUE,CV,q,531,cv
CVOE updated,1001,1,1,96,H 72,,,TRUE,CV,q,546,cv
CVOE updated,1001,1,1,97,E 49,,,TRUE,CV,p,680,cv
CVOE updated,1001,1,1,98,D 52,,,TRUE,CV,q,800,cv
CVOE updated,1001,1,1,99,H 62,,,TRUE,CV,q,516,cv
CVOE updated,1001,1,1,100,I 11,,,TRUE,CV,p,660,cv
CVOE updated,1001,1,1,101,A 98,,,FALSE,CV,p,1221,cv
CVOE updated,1001,1,1,102,H 29,,,FALSE,CV,q,776,cv
CVOE updated,1001,1,1,103,E 83,,,TRUE,CV,p,773,cv
CVOE updated,1001,1,1,104,D 43,,,FALSE,CV,q,627,cv
CVOE updated,1001,1,1,105,P 45,,,TRUE,CV,q,1253,cv
CVOE updated,1001,1,1,106,J 17,,,TRUE,CV,q,1015,cv
CVOE updated,1001,1,2,11,A 24,,,TRUE,OE,p,2238,oe
CVOE updated,1001,1,2,12,O 83,,,FALSE,OE,q,818,oe
CVOE updated,1001,1,2,13,H 55,,,TRUE,OE,q,701,oe
CVOE updated,1001,1,2,14,P 10,,,FALSE,OE,p,653,oe
CVOE updated,1001,1,2,15,D 30,,,FALSE,OE,p,599,oe
CVOE updated,1001,1,2,16,U 62,,,TRUE,OE,p,611,oe
CVOE updated,1001,1,2,17,P 95,,,TRUE,OE,q,734,oe
CVOE updated,1001,1,2,18,U 06,,,TRUE,OE,p,757,oe
CVOE updated,1001,1,2,19,E 75,,,FALSE,OE,q,659,oe
CVOE updated,1001,1,2,20,I 67,,,FALSE,OE,q,589,oe
CVOE updated,1001,1,2,21,S 13,,,TRUE,OE,q,649,oe
CVOE updated,1001,1,2,22,P 78,,,FALSE,OE,p,787,oe
CVOE updated,1001,1,2,23,I 15,,,FALSE,OE,q,672,oe
CVOE updated,1001,1,2,24,D 27,,,TRUE,OE,q,673,oe
CVOE updated,1001,1,2,25,O 94,,,TRUE,OE,p,714,oe
CVOE updated,1001,1,2,26,A 65,,,FALSE,OE,q,690,oe
CVOE updated,1001,1,2,27,I 42,,,TRUE,OE,p,546,oe
CVOE updated,1001,1,2,28,E 25,,,FALSE,OE,q,680,oe
CVOE updated,1001,1,2,29,H 49,,,TRUE,OE,q,745,oe
CVOE updated,1001,1,2,30,S 18,,,FALSE,OE,p,1271,oe
CVOE updated,1001,1,2,31,H 51,,,TRUE,OE,q,1393,oe
CVOE updated,1001,1,2,32,U 14,,,TRUE,OE,p,677,oe
CVOE updated,1001,1,2,33,E 02,,,TRUE,OE,p,526,oe
CVOE updated,1001,1,2,34,J 26,,,FALSE,OE,p,532,oe
CVOE updated,1001,1,2,35,D 24,,,FALSE,OE,p,515,oe
CVOE updated,1001,1,2,36,O 50,,,TRUE,OE,p,618,oe
CVOE updated,1001,1,2,37,U 16,,,TRUE,OE,p,605,oe
CVOE updated,1001,1,2,38,O 15,,,FALSE,OE,q,801,oe
CVOE updated,1001,1,2,39,D 32,,,FALSE,OE,p,941,oe
CVOE updated,1001,1,2,40,S 67,,,TRUE,OE,q,620,oe
CVOE updated,1001,1,2,41,J 74,,,FALSE,OE,p,1095,oe
CVOE updated,1001,1,2,42,D 92,,,FALSE,OE,p,600,oe
CVOE updated,1001,1,2,43,A 65,,,FALSE,OE,q,644,oe
CVOE updated,1001,1,2,44,I 87,,,FALSE,OE,q,558,oe
CVOE updated,1001,1,2,45,H 61,,,TRUE,OE,q,643,oe
CVOE updated,1001,1,2,46,E 59,,,FALSE,OE,q,517,oe
CVOE updated,1001,1,2,47,I 33,,,FALSE,OE,q,605,oe
CVOE updated,1001,1,2,48,O 90,,,TRUE,OE,p,793,oe
CVOE updated,1001,1,2,49,U 51,,,FALSE,OE,q,901,oe
CVOE updated,1001,1,2,50,A 10,,,TRUE,OE,p,869,oe
CVOE updated,1001,1,2,51,E 50,,,TRUE,OE,p,686,oe
CVOE updated,1001,1,2,52,D 92,,,FALSE,OE,p,527,oe
CVOE updated,1001,1,2,53,E 60,,,TRUE,OE,p,573,oe
CVOE updated,1001,1,2,54,A 95,,,FALSE,OE,q,715,oe
CVOE updated,1001,1,2,55,E 64,,,TRUE,OE,p,842,oe
CVOE updated,1001,1,2,56,P 20,,,FALSE,OE,p,788,oe
CVOE updated,1001,1,2,57,S 06,,,FALSE,OE,p,681,oe
CVOE updated,1001,1,2,58,P 64,,,FALSE,OE,p,624,oe
CVOE updated,1001,1,2,59,U 70,,,TRUE,OE,p,660,oe
CVOE updated,1001,1,2,60,S 16,,,FALSE,OE,p,613,oe
CVOE updated,1001,1,2,61,E 35,,,FALSE,OE,q,760,oe
CVOE updated,1001,1,2,62,I 93,,,FALSE,OE,q,789,oe
CVOE updated,1001,1,2,63,D 63,,,TRUE,OE,q,562,oe
CVOE updated,1001,1,2,64,U 89,,,FALSE,OE,q,655,oe
CVOE updated,1001,1,2,65,E 91,,,FALSE,OE,q,649,oe
CVOE updated,1001,1,2,66,A 12,,,TRUE,OE,p,755,oe
CVOE updated,1001,1,2,67,P 56,,,FALSE,OE,p,985,oe
CVOE updated,1001,1,2,68,S 65,,,TRUE,OE,q,758,oe
CVOE updated,1001,1,2,69,P 07,,,TRUE,OE,q,883,oe
CVOE updated,1001,1,2,70,I 77,,,FALSE,OE,q,548,oe
CVOE updated,1001,1,2,71,J 19,,,TRUE,OE,q,634,oe
CVOE updated,1001,1,2,72,O 59,,,FALSE,OE,q,644,oe
CVOE updated,1001,1,2,73,J 15,,,TRUE,OE,q,702,oe
CVOE updated,1001,1,2,74,I 89,,,FALSE,OE,q,910,oe
CVOE updated,1001,1,2,75,O 97,,,FALSE,OE,q,750,oe
CVOE updated,1001,1,2,76,A 92,,,TRUE,OE,p,868,oe
CVOE updated,1001,1,2,77,J 90,,,FALSE,OE,p,565,oe
CVOE updated,1001,1,2,78,H 65,,,TRUE,OE,q,763,oe
CVOE updated,1001,1,2,79,H 17,,,TRUE,OE,q,648,oe
CVOE updated,1001,1,2,80,S 26,,,FALSE,OE,p,690,oe
CVOE updated,1001,1,2,81,D 56,,,FALSE,OE,p,507,oe
CVOE updated,1001,1,2,82,I 91,,,FALSE,OE,q,738,oe
CVOE updated,1001,1,2,83,J 11,,,TRUE,OE,q,673,oe
CVOE updated,1001,1,2,84,O 28,,,TRUE,OE,p,1050,oe
CVOE updated,1001,1,2,85,H 29,,,TRUE,OE,q,685,oe
CVOE updated,1001,1,2,86,J 25,,,TRUE,OE,q,813,oe
CVOE updated,1001,1,2,87,A 73,,,FALSE,OE,q,521,oe
CVOE updated,1001,1,2,88,J 63,,,TRUE,OE,q,552,oe
CVOE updated,1001,1,2,89,U 84,,,TRUE,OE,p,758,oe
CVOE updated,1001,1,2,90,A 58,,,TRUE,OE,p,547,oe
CVOE updated,1001,1,2,91,S 43,,,TRUE,OE,q,681,oe
CVOE updated,1001,1,2,92,H 54,,,FALSE,OE,p,794,oe
CVOE updated,1001,1,2,93,D 4,,,FALSE,OE,p,798,oe
CVOE updated,1001,1,2,94,J 75,,,TRUE,OE,q,786,oe
CVOE updated,1001,1,2,95,D 19,,,TRUE,OE,q,1327,oe
CVOE updated,1001,1,2,96,J 38,,,FALSE,OE,p,1046,oe
CVOE updated,1001,1,2,97,I 56,,,TRUE,OE,p,1232,oe
CVOE updated,1001,1,2,98,P 87,,,TRUE,OE,q,763,oe
CVOE updated,1001,1,2,99,O 80,,,TRUE,OE,p,1008,oe
CVOE updated,1001,1,2,100,U 60,,,TRUE,OE,p,676,oe
CVOE updated,1001,1,2,101,P 48,,,FALSE,OE,p,844,oe
CVOE updated,1001,1,2,102,H 64,,,FALSE,OE,p,702,oe
CVOE updated,1001,1,2,103,A 13,,,FALSE,OE,q,726,oe
CVOE updated,1001,1,2,104,H 68,,,FALSE,OE,p,813,oe
CVOE updated,1001,1,2,105,E 16,,,TRUE,OE,p,696,oe
CVOE updated,1001,1,2,106,S 71,,,TRUE,OE,q,528,oe
CVOE updated,1001,1,3,11,A 44,Letter,N,TRUE,CV,p,4437,alt
CVOE updated,1001,1,3,12,D 94,Letter,N,FALSE,CV,q,1098,alt
CVOE updated,1001,1,3,13,E 75,Number,Y,FALSE,OE,q,2554,alt
CVOE updated,1001,1,3,14,H 81,Number,N,TRUE,OE,q,1177,alt
CVOE updated,1001,1,3,15,I 64,Letter,Y,TRUE,CV,p,1734,alt
CVOE updated,1001,1,3,16,J 54,Letter,N,FALSE,CV,q,4941,alt
CVOE updated,1001,1,3,17,O 23,Number,Y,FALSE,OE,q,1781,alt
CVOE updated,1001,1,3,18,P 05,Number,N,TRUE,OE,q,1403,alt
CVOE updated,1001,1,3,19,S 34,Letter,Y,FALSE,CV,q,2199,alt
CVOE updated,1001,1,3,20,U 88,Letter,N,TRUE,CV,p,1332,alt
CVOE updated,1001,1,3,21,A 70,Number,Y,TRUE,OE,p,3851,alt
CVOE updated,1001,1,3,22,D 12,Number,N,FALSE,OE,p,1694,alt
CVOE updated,1001,1,3,23,E 79,Letter,Y,FALSE,CV,p,3911,alt
CVOE updated,1001,1,3,24,H 72,Letter,N,FALSE,CV,q,2912,alt
CVOE updated,1001,1,3,25,I 41,Number,Y,FALSE,OE,q,1513,alt
CVOE updated,1001,1,3,26,J 63,Number,N,TRUE,OE,q,2600,alt
CVOE updated,1001,1,3,27,O 03,Letter,Y,FALSE,CV,p,1693,alt
CVOE updated,1001,1,3,28,P 75,Letter,N,TRUE,CV,q,2342,alt
CVOE updated,1001,1,3,29,S 61,Number,Y,TRUE,OE,q,1557,alt
CVOE updated,1001,1,3,30,U 28,Number,N,TRUE,OE,p,1731,alt
CVOE updated,1001,1,3,31,A 21,Letter,Y,FALSE,CV,p,1835,alt
CVOE updated,1001,1,3,32,D 18,Letter,N,FALSE,CV,q,1262,alt
CVOE updated,1001,1,3,33,E 35,Number,Y,FALSE,OE,q,1375,alt
CVOE updated,1001,1,3,34,H 62,Number,N,FALSE,OE,p,1676,alt
CVOE updated,1001,1,3,35,I 82,Letter,Y,TRUE,CV,p,1310,alt
CVOE updated,1001,1,3,36,J 78,Letter,N,FALSE,CV,q,1589,alt
CVOE updated,1001,1,3,37,O 12,Number,Y,TRUE,OE,p,1371,alt
CVOE updated,1001,1,3,38,P 13,Number,N,TRUE,OE,q,4352,alt
CVOE updated,1001,1,3,39,S 07,Letter,Y,TRUE,CV,q,2224,alt
CVOE updated,1001,1,3,40,U 36,Letter,N,TRUE,CV,p,1756,alt
CVOE updated,1001,1,3,41,A 96,Number,Y,TRUE,OE,p,2475,alt
CVOE updated,1001,1,3,42,D 04,Number,N,FALSE,OE,p,1141,alt
CVOE updated,1001,1,3,43,E 60,Letter,Y,TRUE,CV,p,1906,alt
CVOE updated,1001,1,3,44,H 83,Letter,N,TRUE,CV,q,2115,alt
CVOE updated,1001,1,3,45,I 64,Number,Y,TRUE,OE,p,1307,alt
CVOE updated,1001,1,3,46,J 76,Number,N,FALSE,OE,p,1668,alt
CVOE updated,1001,1,3,47,O 78,Letter,Y,TRUE,CV,p,2021,alt
CVOE updated,1001,1,3,48,P 09,Letter,N,TRUE,CV,q,2577,alt
CVOE updated,1001,1,3,49,S 72,Number,Y,FALSE,OE,p,1175,alt
CVOE updated,1001,1,3,50,U 47,Number,N,FALSE,OE,q,1188,alt
CVOE updated,1001,1,3,51,A 31,Letter,Y,FALSE,CV,p,1817,alt
CVOE updated,1001,1,3,52,D 96,Letter,N,FALSE,CV,q,1437,alt
CVOE updated,1001,1,3,53,E 40,Number,Y,TRUE,OE,p,1744,alt
CVOE updated,1001,1,3,54,H 79,Number,N,TRUE,OE,q,1182,alt
CVOE updated,1001,1,3,55,I 15,Letter,Y,FALSE,CV,p,2131,alt
CVOE updated,1001,1,3,56,J 07,Letter,N,TRUE,CV,q,1459,alt
CVOE updated,1001,1,3,57,O 61,Number,Y,FALSE,OE,q,2189,alt
CVOE updated,1001,1,3,58,P 58,Number,N,FALSE,OE,p,2458,alt
CVOE updated,1001,1,3,59,S 37,Letter,Y,TRUE,CV,q,3532,alt
CVOE updated,1001,1,3,60,U 61,Letter,N,FALSE,CV,p,1453,alt
CVOE updated,1001,1,3,61,A 17,Number,Y,FALSE,OE,q,2023,alt
CVOE updated,1001,1,3,62,D 85,Number,N,TRUE,OE,q,2467,alt
CVOE updated,1001,1,3,63,E 20,Letter,Y,TRUE,CV,p,1957,alt
CVOE updated,1001,1,3,64,H 86,Letter,N,FALSE,CV,q,3435,alt
CVOE updated,1001,1,3,65,I 21,Number,Y,FALSE,OE,q,2416,alt
CVOE updated,1001,1,3,66,J 29,Number,N,TRUE,OE,q,1524,alt
CVOE updated,1001,1,3,67,O 13,Letter,Y,FALSE,CV,p,1492,alt
CVOE updated,1001,1,3,68,P 82,Letter,N,FALSE,CV,q,1444,alt
CVOE updated,1001,1,3,69,S 72,Number,Y,FALSE,OE,p,2014,alt
CVOE updated,1001,1,3,70,U 84,Number,N,TRUE,OE,p,1722,alt
CVOE updated,1001,1,3,71,A 49,Letter,Y,FALSE,CV,p,1658,alt
CVOE updated,1001,1,3,72,D 91,Letter,N,TRUE,CV,q,3404,alt
CVOE updated,1001,1,3,73,E 99,Number,Y,FALSE,OE,q,1850,alt
CVOE updated,1001,1,3,74,H 16,Number,N,FALSE,OE,p,2516,alt
CVOE updated,1001,1,3,75,I 45,Letter,Y,FALSE,CV,p,1837,alt
CVOE updated,1001,1,3,76,J 70,Letter,N,FALSE,CV,q,4056,alt
CVOE updated,1001,1,3,77,O 22,Number,Y,TRUE,OE,p,1940,alt
CVOE updated,1001,1,3,78,P 41,Number,N,TRUE,OE,q,1883,alt
CVOE updated,1001,1,3,79,S 93,Letter,Y,TRUE,CV,q,2476,alt
CVOE updated,1001,1,3,80,U 70,Letter,N,TRUE,CV,p,1798,alt
CVOE updated,1001,1,3,81,A 42,Number,Y,TRUE,OE,p,2299,alt
CVOE updated,1001,1,3,82,D 85,Number,N,TRUE,OE,q,2267,alt
CVOE updated,1001,1,3,83,E 68,Letter,Y,TRUE,CV,p,2366,alt
CVOE updated,1001,1,3,84,H 17,Letter,N,TRUE,CV,q,1668,alt
CVOE updated,1001,1,3,85,I 70,Number,Y,TRUE,OE,p,1902,alt
CVOE updated,1001,1,3,86,J 88,Number,N,FALSE,OE,p,1206,alt
CVOE updated,1001,1,3,87,O 32,Letter,Y,TRUE,CV,p,2411,alt
CVOE updated,1001,1,3,88,P 95,Letter,N,TRUE,CV,q,2119,alt
CVOE updated,1001,1,3,89,S 98,Number,Y,FALSE,OE,p,2087,alt
CVOE updated,1001,1,3,90,U 37,Number,N,FALSE,OE,p,1312,alt
CVOE updated,1001,1,3,91,A 56,Letter,Y,TRUE,CV,p,1704,alt
CVOE updated,1001,1,3,92,D 57,Letter,N,TRUE,CV,q,1529,alt
CVOE updated,1001,1,3,93,E 93,Number,Y,FALSE,OE,q,1912,alt
CVOE updated,1001,1,3,94,H 27,Number,N,TRUE,OE,q,2696,alt
CVOE updated,1001,1,3,95,I 35,Letter,Y,FALSE,CV,p,1345,alt
CVOE updated,1001,1,3,96,J 03,Letter,N,TRUE,CV,q,2167,alt
CVOE updated,1001,1,3,97,O 28,Number,Y,TRUE,OE,p,1781,alt
CVOE updated,1001,1,3,98,P 59,Number,N,TRUE,OE,p,1419,alt
CVOE updated,1001,1,3,99,S 77,Letter,Y,TRUE,CV,q,5550,alt
CVOE updated,1001,1,3,100,U 05,Letter,N,FALSE,CV,p,1503,alt
CVOE updated,1001,1,3,101,A 56,Number,Y,TRUE,OE,p,3279,alt
CVOE updated,1001,1,3,102,D 01,Number,N,TRUE,OE,q,3721,alt
CVOE updated,1001,1,3,103,E 02,Letter,Y,TRUE,CV,p,2010,alt
CVOE updated,1001,1,3,104,H 68,Letter,N,FALSE,CV,q,2854,alt
CVOE updated,1001,1,3,105,I 05,Number,Y,FALSE,OE,q,2018,alt
CVOE updated,1001,1,3,106,J 55,Number,N,TRUE,OE,q,1438,alt
CVOE updated,1001,1,3,107,O 73,Letter,Y,FALSE,CV,p,1689,alt
CVOE updated,1001,1,3,108,P 41,Letter,N,TRUE,CV,q,1698,alt
CVOE updated,1001,1,3,109,S 92,Number,Y,FALSE,OE,p,2043,alt
CVOE updated,1001,1,3,110,U 34,Number,N,TRUE,OE,p,1477,alt
CVOE updated,1001,1,3,111,A 09,Letter,Y,FALSE,CV,p,1782,alt
CVOE updated,1001,1,3,112,D 92,Letter,N,FALSE,CV,q,2492,alt
CVOE updated,1001,1,3,113,E 48,Number,Y,TRUE,OE,p,2221,alt
CVOE updated,1001,1,3,114,H 76,Number,N,FALSE,OE,p,1801,alt
CVOE updated,1001,1,3,115,I 44,Letter,Y,TRUE,CV,p,2021,alt
CVOE updated,1001,1,3,116,J 67,Letter,N,TRUE,CV,q,1969,alt
CVOE updated,1001,1,3,117,O 48,Number,Y,TRUE,OE,p,1607,alt
CVOE updated,1001,1,3,118,P 22,Number,N,FALSE,OE,p,1308,alt
CVOE updated,1001,1,3,119,S 86,Letter,Y,FALSE,CV,q,1540,alt
CVOE updated,1001,1,3,120,U 35,Letter,N,FALSE,CV,p,1818,alt
CVOE updated,1001,1,3,121,A 91,Number,Y,FALSE,OE,q,2015,alt
CVOE updated,1001,1,3,122,D 78,Number,N,FALSE,OE,p,3218,alt
CVOE updated,1001,1,3,123,E 91,Letter,Y,FALSE,CV,p,1879,alt
CVOE updated,1001,1,3,124,H 54,Letter,N,FALSE,CV,q,4624,alt
CVOE updated,1001,1,3,125,I 65,Number,Y,FALSE,OE,q,1597,alt
CVOE updated,1001,1,3,126,J 52,Number,N,FALSE,OE,p,1922,alt
CVOE updated,1001,1,3,127,O 19,Letter,Y,FALSE,CV,p,2650,alt
CVOE updated,1001,1,3,128,P 48,Letter,N,FALSE,CV,q,3485,alt
CVOE updated,1001,1,3,129,S 45,Number,Y,TRUE,OE,q,1823,alt
CVOE updated,1001,1,3,130,U 26,Number,N,TRUE,OE,p,1227,alt
CVOE updated,1001,1,4,1,U 38,Number,N,TRUE,OE,p,6435,shuf
CVOE updated,1001,1,4,2,P 73,Number,N,TRUE,OE,q,2449,shuf
CVOE updated,1001,1,4,3,U 95,Letter,Y,FALSE,CV,p,2676,shuf
CVOE updated,1001,1,4,4,J 61,Number,Y,TRUE,OE,q,1933,shuf
CVOE updated,1001,1,4,5,D 51,Number,N,TRUE,OE,q,3109,shuf
CVOE updated,1001,1,4,6,S 28,Number,N,FALSE,OE,p,2165,shuf
CVOE updated,1001,1,4,7,A 56,Letter,Y,TRUE,CV,p,1739,shuf
CVOE updated,1001,1,4,8,H 78,Letter,N,FALSE,CV,q,2139,shuf
CVOE updated,1001,1,4,9,P 92,Letter,N,FALSE,CV,q,1514,shuf
CVOE updated,1001,1,4,10,E 05,Number,Y,FALSE,OE,q,2050,shuf
CVOE updated,1001,1,4,11,P 57,Letter,Y,TRUE,CV,q,2565,shuf
CVOE updated,1001,1,4,12,D 88,Number,Y,FALSE,OE,p,1571,shuf
CVOE updated,1001,1,4,13,O 89,Letter,Y,FALSE,CV,p,1857,shuf
CVOE updated,1001,1,4,14,U 43,Number,Y,FALSE,OE,q,3347,shuf
CVOE updated,1001,1,4,15,H 10,Number,N,FALSE,OE,p,1819,shuf
CVOE updated,1001,1,4,16,S 07,Letter,Y,TRUE,CV,q,1999,shuf
CVOE updated,1001,1,4,17,J 10,Letter,N,FALSE,CV,q,1131,shuf
CVOE updated,1001,1,4,18,H 54,Number,Y,FALSE,OE,p,1618,shuf
CVOE updated,1001,1,4,19,E 99,Number,N,FALSE,OE,q,1654,shuf
CVOE updated,1001,1,4,20,J 36,Letter,Y,FALSE,CV,q,2937,shuf
CVOE updated,1001,1,4,21,I 94,Letter,N,TRUE,CV,p,1785,shuf
CVOE updated,1001,1,4,22,A 82,Letter,N,TRUE,CV,p,1614,shuf
CVOE updated,1001,1,4,23,H 79,Number,Y,TRUE,OE,q,1738,shuf
CVOE updated,1001,1,4,24,J 60,Number,N,FALSE,OE,p,2081,shuf
CVOE updated,1001,1,4,25,S 28,Letter,Y,FALSE,CV,q,1106,shuf
CVOE updated,1001,1,4,26,P 11,Number,Y,TRUE,OE,q,1499,shuf
CVOE updated,1001,1,4,27,D 39,Number,N,TRUE,OE,q,1171,shuf
CVOE updated,1001,1,4,28,E 90,Number,N,TRUE,OE,p,1233,shuf
CVOE updated,1001,1,4,29,I 38,Number,N,TRUE,OE,p,1051,shuf
CVOE updated,1001,1,4,30,S 35,Letter,Y,TRUE,CV,q,1798,shuf
CVOE updated,1001,1,4,31,D 41,Number,Y,TRUE,OE,q,2226,shuf
CVOE updated,1001,1,4,32,E 06,Number,N,TRUE,OE,p,2326,shuf
CVOE updated,1001,1,4,33,A 27,Number,N,FALSE,OE,q,2749,shuf
CVOE updated,1001,1,4,34,U 95,Letter,Y,FALSE,CV,p,1852,shuf
CVOE updated,1001,1,4,35,A 53,Letter,N,FALSE,CV,p,1575,shuf
CVOE updated,1001,1,4,36,E 43,Letter,N,FALSE,CV,p,332,shuf
CVOE updated,1001,1,4,37,P 05,Number,Y,TRUE,OE,q,2747,shuf
CVOE updated,1001,1,4,38,O 19,Letter,Y,FALSE,CV,p,4498,shuf
CVOE updated,1001,1,4,39,I 96,Number,Y,TRUE,OE,p,1900,shuf
CVOE updated,1001,1,4,40,A 88,Number,N,TRUE,OE,p,1437,shuf
CVOE updated,1001,1,4,41,I 67,Number,N,FALSE,OE,q,1352,shuf
CVOE updated,1001,1,4,42,D 40,Number,N,FALSE,OE,p,1390,shuf
CVOE updated,1001,1,4,43,P 79,Letter,Y,TRUE,CV,q,1851,shuf
CVOE updated,1001,1,4,44,U 24,Number,Y,TRUE,OE,p,3958,shuf
CVOE updated,1001,1,4,45,P 74,Number,N,FALSE,OE,p,3117,shuf
CVOE updated,1001,1,4,46,E 70,Number,N,TRUE,OE,p,1149,shuf
CVOE updated,1001,1,4,47,S 27,Number,N,TRUE,OE,q,1108,shuf
CVOE updated,1001,1,4,48,E 54,Letter,Y,TRUE,CV,p,1412,shuf
CVOE updated,1001,1,4,49,A 53,Letter,N,FALSE,CV,p,1480,shuf
CVOE updated,1001,1,4,50,P 34,Letter,N,FALSE,CV,q,1809,shuf
CVOE updated,1001,1,4,51,D 74,Number,Y,FALSE,OE,p,2525,shuf
CVOE updated,1001,1,4,52,A 03,Letter,Y,FALSE,CV,p,1676,shuf
CVOE updated,1001,1,4,53,E 24,Number,Y,TRUE,OE,p,2181,shuf
CVOE updated,1001,1,4,54,I 58,Letter,Y,TRUE,CV,p,1987,shuf
CVOE updated,1001,1,4,55,D 77,Number,Y,TRUE,OE,q,1864,shuf
CVOE updated,1001,1,4,56,S 75,Number,N,TRUE,OE,q,1586,shuf
CVOE updated,1001,1,4,57,I 20,Letter,Y,TRUE,CV,p,1695,shuf
CVOE updated,1001,1,4,58,J 52,Letter,N,FALSE,CV,q,1928,shuf
CVOE updated,1001,1,4,59,A 38,Number,Y,TRUE,OE,p,1927,shuf
CVOE updated,1001,1,4,60,I 60,Letter,Y,TRUE,CV,p,2495,shuf
CVOE updated,1001,1,4,61,S 51,Number,Y,TRUE,OE,q,1880,shuf
CVOE updated,1001,1,4,62,D 63,Letter,Y,TRUE,CV,q,2800,shuf
CVOE updated,1001,1,4,63,U 27,Letter,N,FALSE,CV,p,1381,shuf
CVOE updated,1001,1,4,64,J 77,Letter,N,TRUE,CV,q,1050,shuf
CVOE updated,1001,1,4,65,O 15,Number,Y,FALSE,OE,q,1204,shuf
CVOE updated,1001,1,4,66,J 20,Letter,Y,FALSE,CV,q,3392,shuf
CVOE updated,1001,1,4,67,U 97,Number,Y,FALSE,OE,q,1222,shuf
CVOE updated,1001,1,4,68,H 03,Number,N,TRUE,OE,q,1170,shuf
CVOE updated,1001,1,4,69,O 04,Letter,Y,TRUE,CV,p,1503,shuf
CVOE updated,1001,1,4,70,E 10,Letter,N,TRUE,CV,p,1672,shuf
CVOE updated,1001,1,4,71,I 52,Letter,N,TRUE,CV,p,1337,shuf
CVOE updated,1001,1,4,72,H 81,Number,Y,TRUE,OE,q,1936,shuf
CVOE updated,1001,1,4,73,I 41,Number,N,FALSE,OE,q,1488,shuf
CVOE updated,1001,1,4,74,U 19,Letter,Y,FALSE,CV,p,1985,shuf
CVOE updated,1001,1,4,75,O 17,Number,Y,FALSE,OE,q,2126,shuf
CVOE updated,1001,1,4,76,A 10,Number,N,TRUE,OE,p,2710,shuf
CVOE updated,1001,1,4,77,P 93,Letter,Y,TRUE,CV,q,1646,shuf
CVOE updated,1001,1,4,78,E 59,Letter,N,FALSE,CV,p,3297,shuf
CVOE updated,1001,1,4,79,O 53,Letter,N,FALSE,CV,p,1066,shuf
CVOE updated,1001,1,4,80,A 96,Letter,N,TRUE,CV,p,1044,shuf
CVOE updated,1001,1,4,81,H 36,Letter,Y,FALSE,CV,q,1310,shuf
CVOE updated,1001,1,4,82,A 63,Letter,N,FALSE,CV,p,1061,shuf
CVOE updated,1001,1,4,83,I 38,Letter,N,TRUE,CV,p,983,shuf
CVOE updated,1001,1,4,84,O 51,Number,Y,FALSE,OE,q,1556,shuf
CVOE updated,1001,1,4,85,J 26,Number,N,FALSE,OE,p,1666,shuf
CVOE updated,1001,1,4,86,S 34,Letter,Y,FALSE,CV,q,1604,shuf
CVOE updated,1001,1,4,87,U 85,Number,Y,FALSE,OE,q,1289,shuf
CVOE updated,1001,1,4,88,J 77,Number,N,TRUE,OE,q,1138,shuf
CVOE updated,1001,1,4,89,I 73,Letter,Y,FALSE,CV,p,1576,shuf
CVOE updated,1001,1,4,90,H 46,Number,Y,FALSE,OE,p,2846,shuf
CVOE updated,1001,1,4,91,D 04,Number,N,FALSE,OE,p,3489,shuf
CVOE updated,1001,1,4,92,P 72,Letter,Y,FALSE,CV,q,2875,shuf
CVOE updated,1001,1,4,93,D 99,Number,Y,TRUE,OE,q,1821,shuf
CVOE updated,1001,1,4,94,U 25,Letter,Y,FALSE,CV,p,1673,shuf
CVOE updated,1001,1,4,95,O 32,Letter,N,TRUE,CV,p,2051,shuf
CVOE updated,1001,1,4,96,E 80,Letter,N,TRUE,CV,p,1237,shuf
CVOE updated,1001,1,4,97,O 84,Number,Y,TRUE,OE,p,1784,shuf
CVOE updated,1001,1,4,98,A 78,Number,N,TRUE,OE,p,1590,shuf
CVOE updated,1001,1,4,99,S 05,Number,N,TRUE,OE,q,1323,shuf
CVOE updated,1001,1,4,100,U 35,Letter,Y,FALSE,CV,p,1938,shuf
CVOE updated,1001,1,4,101,H 14,Letter,N,FALSE,CV,q,1818,shuf
CVOE updated,1001,1,4,102,U 15,Number,Y,FALSE,OE,q,3974,shuf
CVOE updated,1001,1,4,103,E 36,Letter,Y,TRUE,CV,p,1212,shuf
CVOE updated,1001,1,4,104,P 70,Letter,N,FALSE,CV,q,1080,shuf
CVOE updated,1001,1,4,105,O 44,Number,Y,TRUE,OE,p,3953,shuf
CVOE updated,1001,1,4,106,S 41,Letter,Y,TRUE,CV,q,2136,shuf
CVOE updated,1001,1,4,107,D 83,Letter,N,TRUE,CV,q,1280,shuf
CVOE updated,1001,1,4,108,J 39,Letter,N,TRUE,CV,q,1249,shuf
CVOE updated,1001,1,4,109,S 22,Number,Y,FALSE,OE,p,1739,shuf
CVOE updated,1001,1,4,110,D 89,Letter,Y,TRUE,CV,q,1578,shuf
CVOE updated,1001,1,4,111,P 87,Letter,N,TRUE,CV,q,1575,shuf
CVOE updated,1001,1,4,112,H 42,Letter,N,FALSE,CV,q,1093,shuf
CVOE updated,1001,1,4,113,S 49,Letter,N,TRUE,CV,q,1373,shuf
CVOE updated,1001,1,4,114,J 20,Number,Y,FALSE,OE,p,1906,shuf
CVOE updated,1001,1,4,115,O 19,Letter,Y,FALSE,CV,p,2019,shuf
CVOE updated,1001,1,4,116,H 50,Letter,N,FALSE,CV,q,1727,shuf
CVOE updated,1001,1,4,117,I 68,Number,Y,TRUE,OE,p,3350,shuf
CVOE updated,1001,1,4,118,J 72,Number,N,FALSE,OE,p,1222,shuf
CVOE updated,1001,1,4,119,O 21,Number,N,FALSE,OE,q,1353,shuf
CVOE updated,1001,1,4,120,H 22,Number,N,FALSE,OE,p,1040,shuf
CVOE_C,2003,1,1,11,A 24,,,TRUE,OE,p,14365,oe
CVOE_C,2003,1,1,12,O 83,,,FALSE,OE,q,4426,oe
CVOE_C,2003,1,1,13,H 55,,,TRUE,OE,q,2678,oe
CVOE_C,2003,1,1,14,P 10,,,FALSE,OE,p,2056,oe
CVOE_C,2003,1,1,15,D 30,,,FALSE,OE,p,3555,oe
CVOE_C,2003,1,1,16,U 62,,,TRUE,OE,p,4066,oe
CVOE_C,2003,1,1,17,P 95,,,TRUE,OE,q,2062,oe
CVOE_C,2003,1,1,18,U 06,,,TRUE,OE,p,5272,oe
CVOE_C,2003,1,1,19,E 75,,,FALSE,OE,q,2956,oe
CVOE_C,2003,1,1,20,I 67,,,FALSE,OE,q,2019,oe
CVOE_C,2003,1,1,21,S 13,,,TRUE,OE,q,2351,oe
CVOE_C,2003,1,1,22,P 78,,,FALSE,OE,p,4190,oe
CVOE_C,2003,1,1,23,I 15,,,FALSE,OE,q,1340,oe
CVOE_C,2003,1,1,24,D 27,,,TRUE,OE,q,1331,oe
CVOE_C,2003,1,1,25,O 94,,,TRUE,OE,q,3250,oe
CVOE_C,2003,1,1,26,A 65,,,FALSE,OE,q,2949,oe
CVOE_C,2003,1,1,27,I 42,,,TRUE,OE,p,2188,oe
CVOE_C,2003,1,1,28,E 25,,,FALSE,OE,q,1466,oe
CVOE_C,2003,1,1,29,H 49,,,TRUE,OE,q,1643,oe
CVOE_C,2003,1,1,30,S 18,,,FALSE,OE,p,3054,oe
CVOE_C,2003,1,1,31,H 51,,,TRUE,OE,q,1369,oe
CVOE_C,2003,1,1,32,U 14,,,TRUE,OE,p,1807,oe
CVOE_C,2003,1,1,33,E 02,,,TRUE,OE,p,2388,oe
CVOE_C,2003,1,1,34,J 26,,,FALSE,OE,p,1281,oe
CVOE_C,2003,1,1,35,D 24,,,FALSE,OE,p,1154,oe
CVOE_C,2003,1,1,36,O 50,,,TRUE,OE,p,2200,oe
CVOE_C,2003,1,1,37,U 16,,,TRUE,OE,p,1741,oe
CVOE_C,2003,1,1,38,O 15,,,FALSE,OE,q,1604,oe
CVOE_C,2003,1,1,39,D 32,,,FALSE,OE,q,1488,oe
CVOE_C,2003,1,1,40,S 67,,,TRUE,OE,q,9033,oe
CVOE_C,2003,1,1,41,J 74,,,FALSE,OE,p,5256,oe
CVOE_C,2003,1,1,42,D 92,,,FALSE,OE,p,7844,oe
CVOE_C,2003,1,1,43,A 65,,,FALSE,OE,q,1874,oe
CVOE_C,2003,1,1,44,I 87,,,FALSE,OE,q,2124,oe
CVOE_C,2003,1,1,45,H 61,,,TRUE,OE,q,1636,oe
CVOE_C,2003,1,1,46,E 59,,,FALSE,OE,q,1799,oe
CVOE_C,2003,1,1,47,I 33,,,FALSE,OE,q,7483,oe
CVOE_C,2003,1,1,48,O 90,,,TRUE,OE,p,5391,oe
CVOE_C,2003,1,1,49,U 51,,,FALSE,OE,q,1493,oe
CVOE_C,2003,1,1,50,A 10,,,TRUE,OE,p,1910,oe
CVOE_C,2003,1,1,51,E 50,,,TRUE,OE,p,1350,oe
CVOE_C,2003,1,1,52,D 92,,,FALSE,OE,q,2396,oe
CVOE_C,2003,1,1,53,E 60,,,TRUE,OE,p,1697,oe
CVOE_C,2003,1,1,54,A 95,,,FALSE,OE,q,2898,oe
CVOE_C,2003,1,1,55,E 64,,,TRUE,OE,p,7619,oe
CVOE_C,2003,1,1,56,P 20,,,FALSE,OE,p,1362,oe
CVOE_C,2003,1,1,57,S 06,,,FALSE,OE,p,1376,oe
CVOE_C,2003,1,1,58,P 64,,,FALSE,OE,p,1285,oe
CVOE_C,2003,1,1,59,U 70,,,TRUE,OE,p,1342,oe
CVOE_C,2003,1,1,60,S 16,,,FALSE,OE,p,1260,oe
CVOE_C,2003,1,1,61,E 35,,,FALSE,OE,q,1902,oe
CVOE_C,2003,1,1,62,I 93,,,FALSE,OE,q,2542,oe
CVOE_C,2003,1,1,63,D 63,,,TRUE,OE,q,2077,oe
CVOE_C,2003,1,1,64,U 89,,,FALSE,OE,q,2063,oe
CVOE_C,2003,1,1,65,E 91,,,FALSE,OE,q,1513,oe
CVOE_C,2003,1,1,66,A 12,,,TRUE,OE,p,1688,oe
CVOE_C,2003,1,1,67,P 56,,,FALSE,OE,p,4426,oe
CVOE_C,2003,1,1,68,S 65,,,TRUE,OE,q,1286,oe
CVOE_C,2003,1,1,69,P 07,,,TRUE,OE,q,1455,oe
CVOE_C,2003,1,1,70,I 77,,,FALSE,OE,q,1066,oe
CVOE_C,2003,1,1,71,J 19,,,TRUE,OE,q,1715,oe
CVOE_C,2003,1,1,72,O 59,,,FALSE,OE,q,1443,oe
CVOE_C,2003,1,1,73,J 15,,,TRUE,OE,q,1126,oe
CVOE_C,2003,1,1,74,I 89,,,FALSE,OE,q,1596,oe
CVOE_C,2003,1,1,75,O 97,,,FALSE,OE,q,1225,oe
CVOE_C,2003,1,1,76,A 92,,,TRUE,OE,q,2284,oe
CVOE_C,2003,1,1,77,J 90,,,FALSE,OE,p,3853,oe
CVOE_C,2003,1,1,78,H 65,,,TRUE,OE,q,1569,oe
CVOE_C,2003,1,1,79,H 17,,,TRUE,OE,q,863,oe
CVOE_C,2003,1,1,80,S 26,,,FALSE,OE,p,1752,oe
CVOE_C,2003,1,1,81,D 56,,,FALSE,OE,q,3007,oe
CVOE_C,2003,1,1,82,I 91,,,FALSE,OE,q,1948,oe
CVOE_C,2003,1,1,83,J 11,,,TRUE,OE,q,1474,oe
CVOE_C,2003,1,1,84,O 28,,,TRUE,OE,p,2235,oe
CVOE_C,2003,1,1,85,H 29,,,TRUE,OE,q,1775,oe
CVOE_C,2003,1,1,86,J 25,,,TRUE,OE,p,1956,oe
CVOE_C,2003,1,1,87,A 73,,,FALSE,OE,q,1819,oe
CVOE_C,2003,1,1,88,J 63,,,TRUE,OE,q,1679,oe
CVOE_C,2003,1,1,89,U 84,,,TRUE,OE,p,1592,oe
CVOE_C,2003,1,1,90,A 58,,,TRUE,OE,p,4252,oe
CVOE_C,2003,1,1,91,S 43,,,TRUE,OE,q,1624,oe
CVOE_C,2003,1,1,92,H 54,,,FALSE,OE,p,2587,oe
CVOE_C,2003,1,1,93,D 4,,,FALSE,OE,p,729,oe
CVOE_C,2003,1,1,94,J 75,,,TRUE,OE,q,3568,oe
CVOE_C,2003,1,1,95,D 19,,,TRUE,OE,q,2455,oe
CVOE_C,2003,1,1,96,J 38,,,FALSE,OE,p,8202,oe
CVOE_C,2003,1,1,97,I 56,,,TRUE,OE,q,4314,oe
CVOE_C,2003,1,1,98,P 87,,,TRUE,OE,q,1819,oe
CVOE_C,2003,1,1,99,O 80,,,TRUE,OE,p,2399,oe
CVOE_C,2003,1,1,100,U 60,,,TRUE,OE,p,676,oe
CVOE_C,2003,1,1,101,P 48,,,FALSE,OE,p,973,oe
CVOE_C,2003,1,1,102,H 64,,,FALSE,OE,p,1210,oe
CVOE_C,2003,1,1,103,A 13,,,FALSE,OE,q,1334,oe
CVOE_C,2003,1,1,104,H 68,,,FALSE,OE,p,2245,oe
CVOE_C,2003,1,1,105,E 16,,,TRUE,OE,p,927,oe
CVOE_C,2003,1,1,106,S 71,,,TRUE,OE,q,1190,oe
CVOE_C,2003,1,2,11,A 71,,,FALSE,CV,p,30570,cv
CVOE_C,2003,1,2,12,I 66,,,TRUE,CV,p,13367,cv
CVOE_C,2003,1,2,13,S 30,,,FALSE,CV,q,8787,cv
CVOE_C,2003,1,2,14,D 20,,,FALSE,CV,q,6059,cv
CVOE_C,2003,1,2,15,I 31,,,FALSE,CV,p,7456,cv
CVOE_C,2003,1,2,16,P 16,,,FALSE,CV,q,3365,cv
CVOE_C,2003,1,2,17,A 49,,,FALSE,CV,p,4379,cv
CVOE_C,2003,1,2,18,O 64,,,TRUE,CV,p,17482,cv
CVOE_C,2003,1,2,19,D 02,,,FALSE,CV,q,4660,cv
CVOE_C,2003,1,2,20,P 81,,,TRUE,CV,q,7495,cv
CVOE_C,2003,1,2,21,J 58,,,FALSE,CV,q,1930,cv
CVOE_C,2003,1,2,22,A 22,,,TRUE,CV,p,1737,cv
CVOE_C,2003,1,2,23,J 72,,,FALSE,CV,q,1793,cv
CVOE_C,2003,1,2,24,P 91,,,TRUE,CV,q,1853,cv
CVOE_C,2003,1,2,25,E 19,,,FALSE,CV,p,4512,cv
CVOE_C,2003,1,2,26,I 30,,,TRUE,CV,p,9577,cv
CVOE_C,2003,1,2,27,D 91,,,TRUE,CV,q,1259,cv
CVOE_C,2003,1,2,28,O 48,,,TRUE,CV,p,3972,cv
CVOE_C,2003,1,2,29,A 89,,,FALSE,CV,p,1315,cv
CVOE_C,2003,1,2,30,U 11,,,FALSE,CV,p,2275,cv
CVOE_C,2003,1,2,31,I 76,,,TRUE,CV,p,6389,cv
CVOE_C,2003,1,2,32,U 89,,,FALSE,CV,q,2796,cv
CVOE_C,2003,1,2,33,D 63,,,TRUE,CV,q,2449,cv
CVOE_C,2003,1,2,34,H 70,,,FALSE,CV,q,1572,cv
CVOE_C,2003,1,2,35,D 48,,,FALSE,CV,q,1426,cv
CVOE_C,2003,1,2,36,P 56,,,FALSE,CV,q,2693,cv
CVOE_C,2003,1,2,37,O 77,,,FALSE,CV,p,2982,cv
CVOE_C,2003,1,2,38,P 42,,,FALSE,CV,q,1972,cv
CVOE_C,2003,1,2,39,H 22,,,FALSE,CV,q,11442,cv
CVOE_C,2003,1,2,40,E 42,,,TRUE,CV,p,2898,cv
CVOE_C,2003,1,2,41,J 28,,,FALSE,CV,q,3203,cv
CVOE_C,2003,1,2,42,E 95,,,FALSE,CV,p,4152,cv
CVOE_C,2003,1,2,43,S 63,,,TRUE,CV,q,1904,cv
CVOE_C,2003,1,2,44,H 50,,,FALSE,CV,q,1361,cv
CVOE_C,2003,1,2,45,S 33,,,TRUE,CV,q,1086,cv
CVOE_C,2003,1,2,46,P 57,,,TRUE,CV,q,1287,cv
CVOE_C,2003,1,2,47,E 23,,,FALSE,CV,p,2384,cv
CVOE_C,2003,1,2,48,S 61,,,TRUE,CV,q,2086,cv
CVOE_C,2003,1,2,49,U 67,,,FALSE,CV,p,2423,cv
CVOE_C,2003,1,2,50,H 32,,,FALSE,CV,q,2699,cv
CVOE_C,2003,1,2,51,U 50,,,TRUE,CV,q,1813,cv
CVOE_C,2003,1,2,52,O 49,,,FALSE,CV,p,5305,cv
CVOE_C,2003,1,2,53,U 32,,,TRUE,CV,p,10707,cv
CVOE_C,2003,1,2,54,J 78,,,FALSE,CV,q,1864,cv
CVOE_C,2003,1,2,55,S 54,,,FALSE,CV,q,1978,cv
CVOE_C,2003,1,2,56,J 27,,,TRUE,CV,q,1615,cv
CVOE_C,2003,1,2,57,S 06,,,FALSE,CV,q,1483,cv
CVOE_C,2003,1,2,58,D 67,,,TRUE,CV,q,1660,cv
CVOE_C,2003,1,2,59,A 79,,,FALSE,CV,p,1798,cv
CVOE_C,2003,1,2,60,S 52,,,FALSE,CV,q,1283,cv
CVOE_C,2003,1,2,61,U 16,,,TRUE,CV,q,1883,cv
CVOE_C,2003,1,2,62,O 82,,,TRUE,CV,p,2933,cv
CVOE_C,2003,1,2,63,H 87,,,TRUE,CV,q,1741,cv
CVOE_C,2003,1,2,64,I 32,,,TRUE,CV,p,7972,cv
CVOE_C,2003,1,2,65,U 37,,,FALSE,CV,q,2141,cv
CVOE_C,2003,1,2,66,I 42,,,TRUE,CV,p,2524,cv
CVOE_C,2003,1,2,67,D 65,,,TRUE,CV,q,3244,cv
CVOE_C,2003,1,2,68,U 77,,,FALSE,CV,p,2288,cv
CVOE_C,2003,1,2,69,E 12,,,TRUE,CV,q,11065,cv
CVOE_C,2003,1,2,70,I 60,,,TRUE,CV,p,7080,cv
CVOE_C,2003,1,2,71,J 36,,,FALSE,CV,q,2132,cv
CVOE_C,2003,1,2,72,H 75,,,TRUE,CV,q,1979,cv
CVOE_C,2003,1,2,73,I 50,,,TRUE,CV,p,2232,cv
CVOE_C,2003,1,2,74,E 99,,,FALSE,CV,p,6068,cv
CVOE_C,2003,1,2,75,A 86,,,TRUE,CV,p,2272,cv
CVOE_C,2003,1,2,76,U 48,,,TRUE,CV,p,3234,cv
CVOE_C,2003,1,2,77,E 01,,,FALSE,CV,p,6230,cv
CVOE_C,2003,1,2,78,A 78,,,TRUE,CV,p,2644,cv
CVOE_C,2003,1,2,79,P 60,,,FALSE,CV,q,4191,cv
CVOE_C,2003,1,2,80,E 43,,,FALSE,CV,p,4877,cv
CVOE_C,2003,1,2,81,D 69,,,TRUE,CV,q,3680,cv
CVOE_C,2003,1,2,82,H 11,,,TRUE,CV,q,1386,cv
CVOE_C,2003,1,2,83,P 43,,,TRUE,CV,q,1351,cv
CVOE_C,2003,1,2,84,O 67,,,FALSE,CV,p,3565,cv
CVOE_C,2003,1,2,85,S 91,,,FALSE,CV,q,1756,cv
CVOE_C,2003,1,2,86,J 68,,,TRUE,CV,q,1259,cv
CVOE_C,2003,1,2,87,S 47,,,FALSE,CV,q,1452,cv
CVOE_C,2003,1,2,88,I 81,,,TRUE,CV,p,2511,cv
CVOE_C,2003,1,2,89,J 39,,,FALSE,CV,q,2263,cv
CVOE_C,2003,1,2,90,A 11,,,TRUE,CV,p,3945,cv
CVOE_C,2003,1,2,91,O 76,,,FALSE,CV,p,3041,cv
CVOE_C,2003,1,2,92,A 62,,,FALSE,CV,p,4052,cv
CVOE_C,2003,1,2,93,O 27,,,TRUE,CV,p,5488,cv
CVOE_C,2003,1,2,94,E 66,,,FALSE,CV,p,4084,cv
CVOE_C,2003,1,2,95,J 62,,,TRUE,CV,q,1814,cv
CVOE_C,2003,1,2,96,H 72,,,TRUE,CV,q,1730,cv
CVOE_C,2003,1,2,97,E 49,,,TRUE,CV,p,2281,cv
CVOE_C,2003,1,2,98,D 52,,,TRUE,CV,q,1955,cv
CVOE_C,2003,1,2,99,H 62,,,TRUE,CV,q,1697,cv
CVOE_C,2003,1,2,100,I 11,,,TRUE,CV,p,2418,cv
CVOE_C,2003,1,2,101,A 98,,,FALSE,CV,p,2798,cv
CVOE_C,2003,1,2,102,H 29,,,FALSE,CV,q,4971,cv
CVOE_C,2003,1,2,103,E 83,,,TRUE,CV,p,3643,cv
CVOE_C,2003,1,2,104,D 43,,,FALSE,CV,q,2207,cv
CVOE_C,2003,1,2,105,P 45,,,TRUE,CV,q,1323,cv
CVOE_C,2003,1,2,106,J 17,,,TRUE,CV,q,1619,cv
CVOE_C,2003,1,3,11,A 44,Letter,N,TRUE,CV,p,16596,alt
CVOE_C,2003,1,3,12,D 94,Letter,N,FALSE,CV,q,4121,alt
CVOE_C,2003,1,3,13,E 75,Number,Y,FALSE,OE,p,5802,alt
CVOE_C,2003,1,3,14,H 81,Number,N,TRUE,OE,q,3465,alt
CVOE_C,2003,1,3,15,I 64,Letter,Y,TRUE,CV,p,2268,alt
CVOE_C,2003,1,3,16,J 54,Letter,N,FALSE,CV,q,2030,alt
CVOE_C,2003,1,3,17,O 23,Number,Y,FALSE,OE,p,3105,alt
CVOE_C,2003,1,3,18,P 05,Number,N,TRUE,OE,q,4858,alt
CVOE_C,2003,1,3,19,S 34,Letter,Y,FALSE,CV,q,3822,alt
CVOE_C,2003,1,3,20,U 88,Letter,N,TRUE,CV,p,2179,alt
CVOE_C,2003,1,3,21,A 70,Number,Y,TRUE,OE,p,1377,alt
CVOE_C,2003,1,3,22,D 12,Number,N,FALSE,OE,q,1782,alt
CVOE_C,2003,1,3,23,E 79,Letter,Y,FALSE,CV,p,2963,alt
CVOE_C,2003,1,3,24,H 72,Letter,N,FALSE,CV,q,3080,alt
CVOE_C,2003,1,3,25,I 41,Number,Y,FALSE,OE,p,1946,alt
CVOE_C,2003,1,3,26,J 63,Number,N,TRUE,OE,q,1073,alt
CVOE_C,2003,1,3,27,O 03,Letter,Y,FALSE,CV,p,1987,alt
CVOE_C,2003,1,3,28,P 75,Letter,N,TRUE,CV,q,1480,alt
CVOE_C,2003,1,3,29,S 61,Number,Y,TRUE,OE,q,1625,alt
CVOE_C,2003,1,3,30,U 28,Number,N,TRUE,OE,p,2868,alt
CVOE_C,2003,1,3,31,A 21,Letter,Y,FALSE,CV,p,1231,alt
CVOE_C,2003,1,3,32,D 18,Letter,N,FALSE,CV,q,1386,alt
CVOE_C,2003,1,3,33,E 35,Number,Y,FALSE,OE,p,2319,alt
CVOE_C,2003,1,3,34,H 62,Number,N,FALSE,OE,q,1287,alt
CVOE_C,2003,1,3,35,I 82,Letter,Y,TRUE,CV,p,1656,alt
CVOE_C,2003,1,3,36,J 78,Letter,N,FALSE,CV,q,1410,alt
CVOE_C,2003,1,3,37,O 12,Number,Y,TRUE,OE,p,1526,alt
CVOE_C,2003,1,3,38,P 13,Number,N,TRUE,OE,q,1381,alt
CVOE_C,2003,1,3,39,S 07,Letter,Y,TRUE,CV,q,1714,alt
CVOE_C,2003,1,3,40,U 36,Letter,N,TRUE,CV,p,1322,alt
CVOE_C,2003,1,3,41,A 96,Number,Y,TRUE,OE,p,1234,alt
CVOE_C,2003,1,3,42,D 04,Number,N,FALSE,OE,q,1309,alt
CVOE_C,2003,1,3,43,E 60,Letter,Y,TRUE,CV,p,2868,alt
CVOE_C,2003,1,3,44,H 83,Letter,N,TRUE,CV,q,2231,alt
CVOE_C,2003,1,3,45,I 64,Number,Y,TRUE,OE,p,1434,alt
CVOE_C,2003,1,3,46,J 76,Number,N,FALSE,OE,q,1933,alt
CVOE_C,2003,1,3,47,O 78,Letter,Y,TRUE,CV,p,1389,alt
CVOE_C,2003,1,3,48,P 09,Letter,N,TRUE,CV,q,2058,alt
CVOE_C,2003,1,3,49,S 72,Number,Y,FALSE,OE,q,1620,alt
CVOE_C,2003,1,3,50,U 47,Number,N,FALSE,OE,p,1392,alt
CVOE_C,2003,1,3,51,A 31,Letter,Y,FALSE,CV,q,828,alt
CVOE_C,2003,1,3,52,D 96,Letter,N,FALSE,CV,q,2903,alt
CVOE_C,2003,1,3,53,E 40,Number,Y,TRUE,OE,p,2144,alt
CVOE_C,2003,1,3,54,H 79,Number,N,TRUE,OE,q,1119,alt
CVOE_C,2003,1,3,55,I 15,Letter,Y,FALSE,CV,p,1166,alt
CVOE_C,2003,1,3,56,J 07,Letter,N,TRUE,CV,q,2652,alt
CVOE_C,2003,1,3,57,O 61,Number,Y,FALSE,OE,p,3151,alt
CVOE_C,2003,1,3,58,P 58,Number,N,FALSE,OE,p,1766,alt
CVOE_C,2003,1,3,59,S 37,Letter,Y,TRUE,CV,q,3884,alt
CVOE_C,2003,1,3,60,U 61,Letter,N,FALSE,CV,p,1655,alt
CVOE_C,2003,1,3,61,A 17,Number,Y,FALSE,OE,p,1089,alt
CVOE_C,2003,1,3,62,D 85,Number,N,TRUE,OE,q,1242,alt
CVOE_C,2003,1,3,63,E 20,Letter,Y,TRUE,CV,p,1628,alt
CVOE_C,2003,1,3,64,H 86,Letter,N,FALSE,CV,q,1248,alt
CVOE_C,2003,1,3,65,I 21,Number,Y,FALSE,OE,p,1474,alt
CVOE_C,2003,1,3,66,J 29,Number,N,TRUE,OE,q,1148,alt
CVOE_C,2003,1,3,67,O 13,Letter,Y,FALSE,CV,p,1386,alt
CVOE_C,2003,1,3,68,P 82,Letter,N,FALSE,CV,q,1679,alt
CVOE_C,2003,1,3,69,S 72,Number,Y,FALSE,OE,q,1936,alt
CVOE_C,2003,1,3,70,U 84,Number,N,TRUE,OE,p,823,alt
CVOE_C,2003,1,3,71,A 49,Letter,Y,FALSE,CV,p,1683,alt
CVOE_C,2003,1,3,72,D 91,Letter,N,TRUE,CV,q,2180,alt
CVOE_C,2003,1,3,73,E 99,Number,Y,FALSE,OE,p,1441,alt
CVOE_C,2003,1,3,74,H 16,Number,N,FALSE,OE,q,852,alt
CVOE_C,2003,1,3,75,I 45,Letter,Y,FALSE,CV,p,1254,alt
CVOE_C,2003,1,3,76,J 70,Letter,N,FALSE,CV,q,1224,alt
CVOE_C,2003,1,3,77,O 22,Number,Y,TRUE,OE,p,1724,alt
CVOE_C,2003,1,3,78,P 41,Number,N,TRUE,OE,q,1748,alt
CVOE_C,2003,1,3,79,S 93,Letter,Y,TRUE,CV,q,1466,alt
CVOE_C,2003,1,3,80,U 70,Letter,N,TRUE,CV,p,1796,alt
CVOE_C,2003,1,3,81,A 42,Number,Y,TRUE,OE,p,1113,alt
CVOE_C,2003,1,3,82,D 85,Number,N,TRUE,OE,q,1168,alt
CVOE_C,2003,1,3,83,E 68,Letter,Y,TRUE,CV,p,1310,alt
CVOE_C,2003,1,3,84,H 17,Letter,N,TRUE,CV,q,1549,alt
CVOE_C,2003,1,3,85,I 70,Number,Y,TRUE,OE,p,828,alt
CVOE_C,2003,1,3,86,J 88,Number,N,FALSE,OE,q,1967,alt
CVOE_C,2003,1,3,87,O 32,Letter,Y,TRUE,CV,p,1221,alt
CVOE_C,2003,1,3,88,P 95,Letter,N,TRUE,CV,q,1224,alt
CVOE_C,2003,1,3,89,S 98,Number,Y,FALSE,OE,q,1548,alt
CVOE_C,2003,1,3,90,U 37,Number,N,FALSE,OE,p,986,alt
CVOE_C,2003,1,3,91,A 56,Letter,Y,TRUE,CV,p,1303,alt
CVOE_C,2003,1,3,92,D 57,Letter,N,TRUE,CV,q,1376,alt
CVOE_C,2003,1,3,93,E 93,Number,Y,FALSE,OE,p,1309,alt
CVOE_C,2003,1,3,94,H 27,Number,N,TRUE,OE,q,1284,alt
CVOE_C,2003,1,3,95,I 35,Letter,Y,FALSE,CV,p,893,alt
CVOE_C,2003,1,3,96,J 03,Letter,N,TRUE,CV,q,1653,alt
CVOE_C,2003,1,3,97,O 28,Number,Y,TRUE,OE,p,1120,alt
CVOE_C,2003,1,3,98,P 59,Number,N,TRUE,OE,q,1639,alt
CVOE_C,2003,1,3,99,S 77,Letter,Y,TRUE,CV,q,1411,alt
CVOE_C,2003,1,3,100,U 05,Letter,N,FALSE,CV,p,742,alt
CVOE_C,2003,1,3,101,A 56,Number,Y,TRUE,OE,p,1100,alt
CVOE_C,2003,1,3,102,D 01,Number,N,TRUE,OE,q,1365,alt
CVOE_C,2003,1,3,103,E 02,Letter,Y,TRUE,CV,p,850,alt
CVOE_C,2003,1,3,104,H 68,Letter,N,FALSE,CV,q,1356,alt
CVOE_C,2003,1,3,105,I 05,Number,Y,FALSE,OE,p,1115,alt
CVOE_C,2003,1,3,106,J 55,Number,N,TRUE,OE,q,1282,alt
CVOE_C,2003,1,3,107,O 73,Letter,Y,FALSE,CV,p,1323,alt
CVOE_C,2003,1,3,108,P 41,Letter,N,TRUE,CV,q,1307,alt
CVOE_C,2003,1,3,109,S 92,Number,Y,FALSE,OE,q,1099,alt
CVOE_C,2003,1,3,110,U 34,Number,N,TRUE,OE,p,747,alt
CVOE_C,2003,1,3,111,A 09,Letter,Y,FALSE,CV,p,1313,alt
CVOE_C,2003,1,3,112,D 92,Letter,N,FALSE,CV,q,1057,alt
CVOE_C,2003,1,3,113,E 48,Number,Y,TRUE,OE,p,1203,alt
CVOE_C,2003,1,3,114,H 76,Number,N,FALSE,OE,q,960,alt
CVOE_C,2003,1,3,115,I 44,Letter,Y,TRUE,CV,p,925,alt
CVOE_C,2003,1,3,116,J 67,Letter,N,TRUE,CV,q,1460,alt
CVOE_C,2003,1,3,117,O 48,Number,Y,TRUE,OE,p,958,alt
CVOE_C,2003,1,3,118,P 22,Number,N,FALSE,OE,q,1180,alt
CVOE_C,2003,1,3,119,S 86,Letter,Y,FALSE,CV,q,1081,alt
CVOE_C,2003,1,3,120,U 35,Letter,N,FALSE,CV,p,753,alt
CVOE_C,2003,1,3,121,A 91,Number,Y,FALSE,OE,p,1623,alt
CVOE_C,2003,1,3,122,D 78,Number,N,FALSE,OE,q,1187,alt
CVOE_C,2003,1,3,123,E 91,Letter,Y,FALSE,CV,p,1896,alt
CVOE_C,2003,1,3,124,H 54,Letter,N,FALSE,CV,q,1696,alt
CVOE_C,2003,1,3,125,I 65,Number,Y,FALSE,OE,p,816,alt
CVOE_C,2003,1,3,126,J 52,Number,N,FALSE,OE,q,1420,alt
CVOE_C,2003,1,3,127,O 19,Letter,Y,FALSE,CV,p,2056,alt
CVOE_C,2003,1,3,128,P 48,Letter,N,FALSE,CV,q,2154,alt
CVOE_C,2003,1,3,129,S 45,Number,Y,TRUE,OE,q,1449,alt
CVOE_C,2003,1,3,130,U 26,Number,N,TRUE,OE,p,939,alt
CVOE_C,2003,1,4,1,U 38,Number,N,TRUE,OE,p,47351,shuf
CVOE_C,2003,1,4,2,P 73,Number,N,TRUE,OE,q,2445,shuf
CVOE_C,2003,1,4,3,U 95,Letter,Y,FALSE,CV,q,3392,shuf
CVOE_C,2003,1,4,4,J 61,Number,Y,TRUE,OE,q,1277,shuf
CVOE_C,2003,1,4,5,D 51,Number,N,TRUE,OE,q,1342,shuf
CVOE_C,2003,1,4,6,S 28,Number,N,FALSE,OE,p,860,shuf
CVOE_C,2003,1,4,7,A 56,Letter,Y,TRUE,CV,p,2494,shuf
CVOE_C,2003,1,4,8,H 78,Letter,N,FALSE,CV,p,1271,shuf
CVOE_C,2003,1,4,9,P 92,Letter,N,FALSE,CV,p,1152,shuf
CVOE_C,2003,1,4,10,E 05,Number,Y,FALSE,OE,q,1711,shuf
CVOE_C,2003,1,4,11,P 57,Letter,Y,TRUE,CV,q,1191,shuf
CVOE_C,2003,1,4,12,D 88,Number,Y,FALSE,OE,p,1211,shuf
CVOE_C,2003,1,4,13,O 89,Letter,Y,FALSE,CV,q,1111,shuf
CVOE_C,2003,1,4,14,U 43,Number,Y,FALSE,OE,q,1191,shuf
CVOE_C,2003,1,4,15,H 10,Number,N,FALSE,OE,p,996,shuf
CVOE_C,2003,1,4,16,S 07,Letter,Y,TRUE,CV,q,2008,shuf
CVOE_C,2003,1,4,17,J 10,Letter,N,FALSE,CV,p,1612,shuf
CVOE_C,2003,1,4,18,H 54,Number,Y,FALSE,OE,p,3712,shuf
CVOE_C,2003,1,4,19,E 99,Number,N,FALSE,OE,q,993,shuf
CVOE_C,2003,1,4,20,J 36,Letter,Y,FALSE,CV,p,1061,shuf
CVOE_C,2003,1,4,21,I 94,Letter,N,TRUE,CV,p,3278,shuf
CVOE_C,2003,1,4,22,A 82,Letter,N,TRUE,CV,p,1288,shuf
CVOE_C,2003,1,4,23,H 79,Number,Y,TRUE,OE,q,1433,shuf
CVOE_C,2003,1,4,24,J 60,Number,N,FALSE,OE,p,796,shuf
CVOE_C,2003,1,4,25,S 28,Letter,Y,FALSE,CV,p,1688,shuf
CVOE_C,2003,1,4,26,P 11,Number,Y,TRUE,OE,q,706,shuf
CVOE_C,2003,1,4,27,D 39,Number,N,TRUE,OE,q,1634,shuf
CVOE_C,2003,1,4,28,E 90,Number,N,TRUE,OE,p,1077,shuf
CVOE_C,2003,1,4,29,I 38,Number,N,TRUE,OE,p,854,shuf
CVOE_C,2003,1,4,30,S 35,Letter,Y,TRUE,CV,q,1136,shuf
CVOE_C,2003,1,4,31,D 41,Number,Y,TRUE,OE,q,1023,shuf
CVOE_C,2003,1,4,32,E 06,Number,N,TRUE,OE,p,922,shuf
CVOE_C,2003,1,4,33,A 27,Number,N,FALSE,OE,q,1362,shuf
CVOE_C,2003,1,4,34,U 95,Letter,Y,FALSE,CV,q,3711,shuf
CVOE_C,2003,1,4,35,A 53,Letter,N,FALSE,CV,q,1736,shuf
CVOE_C,2003,1,4,36,E 43,Letter,N,FALSE,CV,q,800,shuf
CVOE_C,2003,1,4,37,P 05,Number,Y,TRUE,OE,q,1156,shuf
CVOE_C,2003,1,4,38,O 19,Letter,Y,FALSE,CV,q,1034,shuf
CVOE_C,2003,1,4,39,I 96,Number,Y,TRUE,OE,p,1037,shuf
CVOE_C,2003,1,4,40,A 88,Number,N,TRUE,OE,p,1047,shuf
CVOE_C,2003,1,4,41,I 67,Number,N,FALSE,OE,q,1026,shuf
CVOE_C,2003,1,4,42,D 40,Number,N,FALSE,OE,p,1532,shuf
CVOE_C,2003,1,4,43,P 79,Letter,Y,TRUE,CV,q,1180,shuf
CVOE_C,2003,1,4,44,U 24,Number,Y,TRUE,OE,p,1417,shuf
CVOE_C,2003,1,4,45,P 74,Number,N,FALSE,OE,p,4004,shuf
CVOE_C,2003,1,4,46,E 70,Number,N,TRUE,OE,p,954,shuf
CVOE_C,2003,1,4,47,S 27,Number,N,TRUE,OE,q,1048,shuf
CVOE_C,2003,1,4,48,E 54,Letter,Y,TRUE,CV,p,1162,shuf
CVOE_C,2003,1,4,49,A 53,Letter,N,FALSE,CV,q,928,shuf
CVOE_C,2003,1,4,50,P 34,Letter,N,FALSE,CV,p,2390,shuf
CVOE_C,2003,1,4,51,D 74,Number,Y,FALSE,OE,p,2715,shuf
CVOE_C,2003,1,4,52,A 03,Letter,Y,FALSE,CV,q,788,shuf
CVOE_C,2003,1,4,53,E 24,Number,Y,TRUE,OE,p,888,shuf
CVOE_C,2003,1,4,54,I 58,Letter,Y,TRUE,CV,p,801,shuf
CVOE_C,2003,1,4,55,D 77,Number,Y,TRUE,OE,q,877,shuf
CVOE_C,2003,1,4,56,S 75,Number,N,TRUE,OE,q,1230,shuf
CVOE_C,2003,1,4,57,I 20,Letter,Y,TRUE,CV,p,913,shuf
CVOE_C,2003,1,4,58,J 52,Letter,N,FALSE,CV,p,3184,shuf
CVOE_C,2003,1,4,59,A 38,Number,Y,TRUE,OE,p,1750,shuf
CVOE_C,2003,1,4,60,I 60,Letter,Y,TRUE,CV,p,741,shuf
CVOE_C,2003,1,4,61,S 51,Number,Y,TRUE,OE,q,683,shuf
CVOE_C,2003,1,4,62,D 63,Letter,Y,TRUE,CV,q,836,shuf
CVOE_C,2003,1,4,63,U 27,Letter,N,FALSE,CV,q,750,shuf
CVOE_C,2003,1,4,64,J 77,Letter,N,TRUE,CV,q,916,shuf
CVOE_C,2003,1,4,65,O 15,Number,Y,FALSE,OE,q,1484,shuf
CVOE_C,2003,1,4,66,J 20,Letter,Y,FALSE,CV,p,1917,shuf
CVOE_C,2003,1,4,67,U 97,Number,Y,FALSE,OE,q,1557,shuf
CVOE_C,2003,1,4,68,H 03,Number,N,TRUE,OE,q,867,shuf
CVOE_C,2003,1,4,69,O 04,Letter,Y,TRUE,CV,p,837,shuf
CVOE_C,2003,1,4,70,E 10,Letter,N,TRUE,CV,p,1040,shuf
CVOE_C,2003,1,4,71,I 52,Letter,N,TRUE,CV,p,1042,shuf
CVOE_C,2003,1,4,72,H 81,Number,Y,TRUE,OE,q,3805,shuf
CVOE_C,2003,1,4,73,I 41,Number,N,FALSE,OE,q,986,shuf
CVOE_C,2003,1,4,74,U 19,Letter,Y,FALSE,CV,q,1159,shuf
CVOE_C,2003,1,4,75,O 17,Number,Y,FALSE,OE,q,957,shuf
CVOE_C,2003,1,4,76,A 10,Number,N,TRUE,OE,p,787,shuf
CVOE_C,2003,1,4,77,P 93,Letter,Y,TRUE,CV,q,920,shuf
CVOE_C,2003,1,4,78,E 59,Letter,N,FALSE,CV,q,1039,shuf
CVOE_C,2003,1,4,79,O 53,Letter,N,FALSE,CV,q,674,shuf
CVOE_C,2003,1,4,80,A 96,Letter,N,TRUE,CV,p,2699,shuf
CVOE_C,2003,1,4,81,H 36,Letter,Y,FALSE,CV,p,4292,shuf
CVOE_C,2003,1,4,82,A 63,Letter,N,FALSE,CV,q,878,shuf
CVOE_C,2003,1,4,83,I 38,Letter,N,TRUE,CV,p,831,shuf
CVOE_C,2003,1,4,84,O 51,Number,Y,FALSE,OE,q,882,shuf
CVOE_C,2003,1,4,85,J 26,Number,N,FALSE,OE,p,1082,shuf
CVOE_C,2003,1,4,86,S 34,Letter,Y,FALSE,CV,p,915,shuf
CVOE_C,2003,1,4,87,U 85,Number,Y,FALSE,OE,q,835,shuf
CVOE_C,2003,1,4,88,J 77,Number,N,TRUE,OE,q,870,shuf
CVOE_C,2003,1,4,89,I 73,Letter,Y,FALSE,CV,q,1663,shuf
CVOE_C,2003,1,4,90,H 46,Number,Y,FALSE,OE,p,1665,shuf
CVOE_C,2003,1,4,91,D 04,Number,N,FALSE,OE,p,1003,shuf
CVOE_C,2003,1,4,92,P 72,Letter,Y,FALSE,CV,p,1015,shuf
CVOE_C,2003,1,4,93,D 99,Number,Y,TRUE,OE,q,898,shuf
CVOE_C,2003,1,4,94,U 25,Letter,Y,FALSE,CV,q,4298,shuf
CVOE_C,2003,1,4,95,O 32,Letter,N,TRUE,CV,p,2508,shuf
CVOE_C,2003,1,4,96,E 80,Letter,N,TRUE,CV,p,997,shuf
CVOE_C,2003,1,4,97,O 84,Number,Y,TRUE,OE,p,793,shuf
CVOE_C,2003,1,4,98,A 78,Number,N,TRUE,OE,q,3693,shuf
CVOE_C,2003,1,4,99,S 05,Number,N,TRUE,OE,q,1111,shuf
CVOE_C,2003,1,4,100,U 35,Letter,Y,FALSE,CV,q,2038,shuf
CVOE_C,2003,1,4,101,H 14,Letter,N,FALSE,CV,p,1450,shuf
CVOE_C,2003,1,4,102,U 15,Number,Y,FALSE,OE,q,1892,shuf
CVOE_C,2003,1,4,103,E 36,Letter,Y,TRUE,CV,p,1165,shuf
CVOE_C,2003,1,4,104,P 70,Letter,N,FALSE,CV,p,1162,shuf
CVOE_C,2003,1,4,105,O 44,Number,Y,TRUE,OE,p,920,shuf
CVOE_C,2003,1,4,106,S 41,Letter,Y,TRUE,CV,q,775,shuf
CVOE_C,2003,1,4,107,D 83,Letter,N,TRUE,CV,q,996,shuf
CVOE_C,2003,1,4,108,J 39,Letter,N,TRUE,CV,q,1072,shuf
CVOE_C,2003,1,4,109,S 22,Number,Y,FALSE,OE,p,922,shuf
CVOE_C,2003,1,4,110,D 89,Letter,Y,TRUE,CV,q,1017,shuf
CVOE_C,2003,1,4,111,P 87,Letter,N,TRUE,CV,q,1061,shuf
CVOE_C,2003,1,4,112,H 42,Letter,N,FALSE,CV,p,1534,shuf
CVOE_C,2003,1,4,113,S 49,Letter,N,TRUE,CV,q,941,shuf
CVOE_C,2003,1,4,114,J 20,Number,Y,FALSE,OE,p,828,shuf
CVOE_C,2003,1,4,115,O 19,Letter,Y,FALSE,CV,q,2103,shuf
CVOE_C,2003,1,4,116,H 50,Letter,N,FALSE,CV,p,927,shuf
CVOE_C,2003,1,4,117,I 68,Number,Y,TRUE,OE,p,1022,shuf
CVOE_C,2003,1,4,118,J 72,Number,N,FALSE,OE,p,3746,shuf
CVOE_C,2003,1,4,119,O 21,Number,N,FALSE,OE,q,889,shuf
CVOE_C,2003,1,4,120,H 22,Number,N,FALSE,OE,p,1106,shuf
CVOE updated,2001,1,1,11,A 71,,,FALSE,CV,p,4796,cv
CVOE updated,2001,1,1,12,I 66,,,TRUE,CV,p,1007,cv
CVOE updated,2001,1,1,13,S 30,,,FALSE,CV,q,1346,cv
CVOE updated,2001,1,1,14,D 20,,,FALSE,CV,q,1432,cv
CVOE updated,2001,1,1,15,I 31,,,FALSE,CV,p,1395,cv
CVOE updated,2001,1,1,16,P 16,,,FALSE,CV,q,1118,cv
CVOE updated,2001,1,1,17,A 49,,,FALSE,CV,p,1321,cv
CVOE updated,2001,1,1,18,O 64,,,TRUE,CV,p,1105,cv
CVOE updated,2001,1,1,19,D 02,,,FALSE,CV,q,932,cv
CVOE updated,2001,1,1,20,P 81,,,TRUE,CV,q,1202,cv
CVOE updated,2001,1,1,21,J 58,,,FALSE,CV,q,1125,cv
CVOE updated,2001,1,1,22,A 22,,,TRUE,CV,p,1484,cv
CVOE updated,2001,1,1,23,J 72,,,FALSE,CV,q,2416,cv
CVOE updated,2001,1,1,24,P 91,,,TRUE,CV,q,1316,cv
CVOE updated,2001,1,1,25,E 19,,,FALSE,CV,p,1122,cv
CVOE updated,2001,1,1,26,I 30,,,TRUE,CV,p,1207,cv
CVOE updated,2001,1,1,27,D 91,,,TRUE,CV,q,974,cv
CVOE updated,2001,1,1,28,O 48,,,TRUE,CV,p,1406,cv
CVOE updated,2001,1,1,29,A 89,,,FALSE,CV,p,1363,cv
CVOE updated,2001,1,1,30,U 11,,,FALSE,CV,p,1158,cv
CVOE updated,2001,1,1,31,I 76,,,TRUE,CV,p,1014,cv
CVOE updated,2001,1,1,32,U 89,,,FALSE,CV,p,768,cv
CVOE updated,2001,1,1,33,D 63,,,TRUE,CV,q,948,cv
CVOE updated,2001,1,1,34,H 70,,,FALSE,CV,q,967,cv
CVOE updated,2001,1,1,35,D 48,,,FALSE,CV,q,1163,cv
CVOE updated,2001,1,1,36,P 56,,,FALSE,CV,q,1590,cv
CVOE updated,2001,1,1,37,O 77,,,FALSE,CV,p,972,cv
CVOE updated,2001,1,1,38,P 42,,,FALSE,CV,q,1130,cv
CVOE updated,2001,1,1,39,H 22,,,FALSE,CV,q,1120,cv
CVOE updated,2001,1,1,40,E 42,,,TRUE,CV,p,1126,cv
CVOE updated,2001,1,1,41,J 28,,,FALSE,CV,q,1312,cv
CVOE updated,2001,1,1,42,E 95,,,FALSE,CV,p,1354,cv
CVOE updated,2001,1,1,43,S 63,,,TRUE,CV,q,969,cv
CVOE updated,2001,1,1,44,H 50,,,FALSE,CV,q,1009,cv
CVOE updated,2001,1,1,45,S 33,,,TRUE,CV,q,1155,cv
CVOE updated,2001,1,1,46,P 57,,,TRUE,CV,q,1247,cv
CVOE updated,2001,1,1,47,E 23,,,FALSE,CV,p,1002,cv
CVOE updated,2001,1,1,48,S 61,,,TRUE,CV,q,929,cv
CVOE updated,2001,1,1,49,U 67,,,FALSE,CV,p,1199,cv
CVOE updated,2001,1,1,50,H 32,,,FALSE,CV,q,848,cv
CVOE updated,2001,1,1,51,U 50,,,TRUE,CV,p,1083,cv
CVOE updated,2001,1,1,52,O 49,,,FALSE,CV,p,967,cv
CVOE updated,2001,1,1,53,U 32,,,TRUE,CV,p,889,cv
CVOE updated,2001,1,1,54,J 78,,,FALSE,CV,q,1639,cv
CVOE updated,2001,1,1,55,S 54,,,FALSE,CV,p,1284,cv
CVOE updated,2001,1,1,56,J 27,,,TRUE,CV,q,4611,cv
CVOE updated,2001,1,1,57,S 06,,,FALSE,CV,q,1201,cv
CVOE updated,2001,1,1,58,D 67,,,TRUE,CV,q,969,cv
CVOE updated,2001,1,1,59,A 79,,,FALSE,CV,p,1087,cv
CVOE updated,2001,1,1,60,S 52,,,FALSE,CV,q,853,cv
CVOE updated,2001,1,1,61,U 16,,,TRUE,CV,p,1009,cv
CVOE updated,2001,1,1,62,O 82,,,TRUE,CV,p,898,cv
CVOE updated,2001,1,1,63,H 87,,,TRUE,CV,q,809,cv
CVOE updated,2001,1,1,64,I 32,,,TRUE,CV,p,961,cv
CVOE updated,2001,1,1,65,U 37,,,FALSE,CV,p,1157,cv
CVOE updated,2001,1,1,66,I 42,,,TRUE,CV,p,895,cv
CVOE updated,2001,1,1,67,D 65,,,TRUE,CV,p,1002,cv
CVOE updated,2001,1,1,68,U 77,,,FALSE,CV,q,264,cv
CVOE updated,2001,1,1,69,E 12,,,TRUE,CV,q,1358,cv
CVOE updated,2001,1,1,70,I 60,,,TRUE,CV,p,1601,cv
CVOE updated,2001,1,1,71,J 36,,,FALSE,CV,p,4726,cv
CVOE updated,2001,1,1,72,H 75,,,TRUE,CV,q,1122,cv
CVOE updated,2001,1,1,73,I 50,,,TRUE,CV,p,1051,cv
CVOE updated,2001,1,1,74,E 99,,,FALSE,CV,p,1198,cv
CVOE updated,2001,1,1,75,A 86,,,TRUE,CV,p,1160,cv
CVOE updated,2001,1,1,76,U 48,,,TRUE,CV,p,921,cv
CVOE updated,2001,1,1,77,E 01,,,FALSE,CV,p,1207,cv
CVOE updated,2001,1,1,78,A 78,,,TRUE,CV,p,777,cv
CVOE updated,2001,1,1,79,P 60,,,FALSE,CV,q,1041,cv
CVOE updated,2001,1,1,80,E 43,,,FALSE,CV,p,974,cv
CVOE updated,2001,1,1,81,D 69,,,TRUE,CV,q,1036,cv
CVOE updated,2001,1,1,82,H 11,,,TRUE,CV,q,1010,cv
CVOE updated,2001,1,1,83,P 43,,,TRUE,CV,q,960,cv
CVOE updated,2001,1,1,84,O 67,,,FALSE,CV,p,843,cv
CVOE updated,2001,1,1,85,S 91,,,FALSE,CV,q,806,cv
CVOE updated,2001,1,1,86,J 68,,,TRUE,CV,q,1520,cv
CVOE updated,2001,1,1,87,S 47,,,FALSE,CV,q,1008,cv
CVOE updated,2001,1,1,88,I 81,,,TRUE,CV,p,998,cv
CVOE updated,2001,1,1,89,J 39,,,FALSE,CV,q,1553,cv
CVOE updated,2001,1,1,90,A 11,,,TRUE,CV,p,1142,cv
CVOE updated,2001,1,1,91,O 76,,,FALSE,CV,p,1076,cv
CVOE updated,2001,1,1,92,A 62,,,FALSE,CV,p,999,cv
CVOE updated,2001,1,1,93,O 27,,,TRUE,CV,p,809,cv
CVOE updated,2001,1,1,94,E 66,,,FALSE,CV,p,1196,cv
CVOE updated,2001,1,1,95,J 62,,,TRUE,CV,q,1197,cv
CVOE updated,2001,1,1,96,H 72,,,TRUE,CV,q,1238,cv
CVOE updated,2001,1,1,97,E 49,,,TRUE,CV,p,932,cv
CVOE updated,2001,1,1,98,D 52,,,TRUE,CV,q,887,cv
CVOE updated,2001,1,1,99,H 62,,,TRUE,CV,q,1050,cv
CVOE updated,2001,1,1,100,I 11,,,TRUE,CV,p,928,cv
CVOE updated,2001,1,1,101,A 98,,,FALSE,CV,p,1079,cv
CVOE updated,2001,1,1,102,H 29,,,FALSE,CV,q,1119,cv
CVOE updated,2001,1,1,103,E 83,,,TRUE,CV,p,1244,cv
CVOE updated,2001,1,1,104,D 43,,,FALSE,CV,q,843,cv
CVOE updated,2001,1,1,105,P 45,,,TRUE,CV,p,1039,cv
CVOE updated,2001,1,1,106,J 17,,,TRUE,CV,q,2383,cv
CVOE updated,2001,1,2,11,A 24,,,TRUE,OE,q,18535,oe
CVOE updated,2001,1,2,12,O 83,,,FALSE,OE,p,5667,oe
CVOE updated,2001,1,2,13,H 55,,,TRUE,OE,q,4456,oe
CVOE updated,2001,1,2,14,P 10,,,FALSE,OE,q,13966,oe
CVOE updated,2001,1,2,15,D 30,,,FALSE,OE,p,3037,oe
CVOE updated,2001,1,2,16,U 62,,,TRUE,OE,q,4999,oe
CVOE updated,2001,1,2,17,P 95,,,TRUE,OE,p,3282,oe
CVOE updated,2001,1,2,18,U 06,,,TRUE,OE,q,1115,oe
CVOE updated,2001,1,2,19,E 75,,,FALSE,OE,p,4726,oe
CVOE updated,2001,1,2,20,I 67,,,FALSE,OE,q,3511,oe
CVOE updated,2001,1,2,21,S 13,,,TRUE,OE,q,6809,oe
CVOE updated,2001,1,2,22,P 78,,,FALSE,OE,q,5151,oe
CVOE updated,2001,1,2,23,I 15,,,FALSE,OE,p,2070,oe
CVOE updated,2001,1,2,24,D 27,,,TRUE,OE,p,4492,oe
CVOE updated,2001,1,2,25,O 94,,,TRUE,OE,p,3355,oe
CVOE updated,2001,1,2,26,A 65,,,FALSE,OE,q,1083,oe
CVOE updated,2001,1,2,27,I 42,,,TRUE,OE,p,9625,oe
CVOE updated,2001,1,2,28,E 25,,,FALSE,OE,q,5980,oe
CVOE updated,2001,1,2,29,H 49,,,TRUE,OE,p,5900,oe
CVOE updated,2001,1,2,30,S 18,,,FALSE,OE,p,3593,oe
CVOE updated,2001,1,2,31,H 51,,,TRUE,OE,q,3359,oe
CVOE updated,2001,1,2,32,U 14,,,TRUE,OE,q,4652,oe
CVOE updated,2001,1,2,33,E 02,,,TRUE,OE,q,3990,oe
CVOE updated,2001,1,2,34,J 26,,,FALSE,OE,p,5430,oe
CVOE updated,2001,1,2,35,D 24,,,FALSE,OE,q,2965,oe
CVOE updated,2001,1,2,36,O 50,,,TRUE,OE,q,2370,oe
CVOE updated,2001,1,2,37,U 16,,,TRUE,OE,q,2807,oe
CVOE updated,2001,1,2,38,O 15,,,FALSE,OE,q,2106,oe
CVOE updated,2001,1,2,39,D 32,,,FALSE,OE,p,5395,oe
CVOE updated,2001,1,2,40,S 67,,,TRUE,OE,p,5118,oe
CVOE updated,2001,1,2,41,J 74,,,FALSE,OE,q,2893,oe
CVOE updated,2001,1,2,42,D 92,,,FALSE,OE,p,3438,oe
CVOE updated,2001,1,2,43,A 65,,,FALSE,OE,q,4529,oe
CVOE updated,2001,1,2,44,I 87,,,FALSE,OE,q,1126,oe
CVOE updated,2001,1,2,45,H 61,,,TRUE,OE,q,3937,oe
CVOE updated,2001,1,2,46,E 59,,,FALSE,OE,q,1784,oe
CVOE updated,2001,1,2,47,I 33,,,FALSE,OE,q,2456,oe
CVOE updated,2001,1,2,48,O 90,,,TRUE,OE,q,2693,oe
CVOE updated,2001,1,2,49,U 51,,,FALSE,OE,q,5476,oe
CVOE updated,2001,1,2,50,A 10,,,TRUE,OE,p,11813,oe
CVOE updated,2001,1,2,51,E 50,,,TRUE,OE,q,8524,oe
CVOE updated,2001,1,2,52,D 92,,,FALSE,OE,p,2888,oe
CVOE updated,2001,1,2,53,E 60,,,TRUE,OE,p,7821,oe
CVOE updated,2001,1,2,54,A 95,,,FALSE,OE,q,4829,oe
CVOE updated,2001,1,2,55,E 64,,,TRUE,OE,q,6725,oe
CVOE updated,2001,1,2,56,P 20,,,FALSE,OE,q,3661,oe
CVOE updated,2001,1,2,57,S 06,,,FALSE,OE,q,5084,oe
CVOE updated,2001,1,2,58,P 64,,,FALSE,OE,p,4537,oe
CVOE updated,2001,1,2,59,U 70,,,TRUE,OE,p,8167,oe
CVOE updated,2001,1,2,60,S 16,,,FALSE,OE,q,6956,oe
CVOE updated,2001,1,2,61,E 35,,,FALSE,OE,p,6220,oe
CVOE updated,2001,1,2,62,I 93,,,FALSE,OE,q,4928,oe
CVOE updated,2001,1,2,63,D 63,,,TRUE,OE,q,3943,oe
CVOE updated,2001,1,2,64,U 89,,,FALSE,OE,p,2144,oe
CVOE updated,2001,1,2,65,E 91,,,FALSE,OE,p,2189,oe
CVOE updated,2001,1,2,66,A 12,,,TRUE,OE,q,5335,oe
CVOE updated,2001,1,2,67,P 56,,,FALSE,OE,q,4928,oe
CVOE updated,2001,1,2,68,S 65,,,TRUE,OE,p,5746,oe
CVOE updated,2001,1,2,69,P 07,,,TRUE,OE,q,1631,oe
CVOE updated,2001,1,2,70,I 77,,,FALSE,OE,p,4450,oe
CVOE updated,2001,1,2,71,J 19,,,TRUE,OE,p,4068,oe
CVOE updated,2001,1,2,72,O 59,,,FALSE,OE,q,4327,oe
CVOE updated,2001,1,2,73,J 15,,,TRUE,OE,q,5903,oe
CVOE updated,2001,1,2,74,I 89,,,FALSE,OE,q,4537,oe
CVOE updated,2001,1,2,75,O 97,,,FALSE,OE,q,7502,oe
CVOE updated,2001,1,2,76,A 92,,,TRUE,OE,p,1398,oe
CVOE updated,2001,1,2,77,J 90,,,FALSE,OE,q,2452,oe
CVOE updated,2001,1,2,78,H 65,,,TRUE,OE,p,2023,oe
CVOE updated,2001,1,2,79,H 17,,,TRUE,OE,p,2694,oe
CVOE updated,2001,1,2,80,S 26,,,FALSE,OE,q,6104,oe
CVOE updated,2001,1,2,81,D 56,,,FALSE,OE,p,7788,oe
CVOE updated,2001,1,2,82,I 91,,,FALSE,OE,q,1752,oe
CVOE updated,2001,1,2,83,J 11,,,TRUE,OE,q,2103,oe
CVOE updated,2001,1,2,84,O 28,,,TRUE,OE,p,6412,oe
CVOE updated,2001,1,2,85,H 29,,,TRUE,OE,q,3157,oe
CVOE updated,2001,1,2,86,J 25,,,TRUE,OE,q,3043,oe
CVOE updated,2001,1,2,87,A 73,,,FALSE,OE,q,2657,oe
CVOE updated,2001,1,2,88,J 63,,,TRUE,OE,q,1597,oe
CVOE updated,2001,1,2,89,U 84,,,TRUE,OE,p,1902,oe
CVOE updated,2001,1,2,90,A 58,,,TRUE,OE,p,2887,oe
CVOE updated,2001,1,2,91,S 43,,,TRUE,OE,q,4412,oe
CVOE updated,2001,1,2,92,H 54,,,FALSE,OE,q,4259,oe
CVOE updated,2001,1,2,93,D 4,,,FALSE,OE,p,4688,oe
CVOE updated,2001,1,2,94,J 75,,,TRUE,OE,p,6015,oe
CVOE updated,2001,1,2,95,D 19,,,TRUE,OE,q,2612,oe
CVOE updated,2001,1,2,96,J 38,,,FALSE,OE,q,4225,oe
CVOE updated,2001,1,2,97,I 56,,,TRUE,OE,p,3278,oe
CVOE updated,2001,1,2,98,P 87,,,TRUE,OE,q,2930,oe
CVOE updated,2001,1,2,99,O 80,,,TRUE,OE,p,4618,oe
CVOE updated,2001,1,2,100,U 60,,,TRUE,OE,p,9435,oe
CVOE updated,2001,1,2,101,P 48,,,FALSE,OE,p,4447,oe
CVOE updated,2001,1,2,102,H 64,,,FALSE,OE,p,4183,oe
CVOE updated,2001,1,2,103,A 13,,,FALSE,OE,q,3755,oe
CVOE updated,2001,1,2,104,H 68,,,FALSE,OE,p,7349,oe
CVOE updated,2001,1,2,105,E 16,,,TRUE,OE,p,3079,oe
CVOE updated,2001,1,2,106,S 71,,,TRUE,OE,q,3912,oe
CVOE updated,2001,1,3,11,A 44,Letter,N,TRUE,CV,q,41190,alt
CVOE updated,2001,1,3,12,D 94,Letter,N,FALSE,CV,q,38890,alt
CVOE updated,2001,1,3,13,E 75,Number,Y,FALSE,OE,q,16356,alt
CVOE updated,2001,1,3,14,H 81,Number,N,TRUE,OE,p,24738,alt
CVOE updated,2001,1,3,15,I 64,Letter,Y,TRUE,CV,p,55694,alt
CVOE updated,2001,1,3,16,J 54,Letter,N,FALSE,CV,p,5624,alt
CVOE updated,2001,1,3,17,O 23,Number,Y,FALSE,OE,q,6604,alt
CVOE updated,2001,1,3,18,P 05,Number,N,TRUE,OE,q,32780,alt
CVOE updated,2001,1,3,19,S 34,Letter,Y,FALSE,CV,q,10959,alt
CVOE updated,2001,1,3,20,U 88,Letter,N,TRUE,CV,q,9816,alt
CVOE updated,2001,1,3,21,A 70,Number,Y,TRUE,OE,p,14747,alt
CVOE updated,2001,1,3,22,D 12,Number,N,FALSE,OE,p,30668,alt
CVOE updated,2001,1,3,23,E 79,Letter,Y,FALSE,CV,q,11540,alt
CVOE updated,2001,1,3,24,H 72,Letter,N,FALSE,CV,p,11576,alt
CVOE updated,2001,1,3,25,I 41,Number,Y,FALSE,OE,q,4566,alt
CVOE updated,2001,1,3,26,J 63,Number,N,TRUE,OE,q,5400,alt
CVOE updated,2001,1,3,27,O 03,Letter,Y,FALSE,CV,q,4262,alt
CVOE updated,2001,1,3,28,P 75,Letter,N,TRUE,CV,q,16405,alt
CVOE updated,2001,1,3,29,S 61,Number,Y,TRUE,OE,q,5661,alt
CVOE updated,2001,1,3,30,U 28,Number,N,TRUE,OE,q,6135,alt
CVOE updated,2001,1,3,31,A 21,Letter,Y,FALSE,CV,q,11039,alt
CVOE updated,2001,1,3,32,D 18,Letter,N,FALSE,CV,q,5034,alt
CVOE updated,2001,1,3,33,E 35,Number,Y,FALSE,OE,q,5204,alt
CVOE updated,2001,1,3,34,H 62,Number,N,FALSE,OE,q,5269,alt
CVOE updated,2001,1,3,35,I 82,Letter,Y,TRUE,CV,q,3990,alt
CVOE updated,2001,1,3,36,J 78,Letter,N,FALSE,CV,q,2062,alt
CVOE updated,2001,1,3,37,O 12,Number,Y,TRUE,OE,q,4408,alt
CVOE updated,2001,1,3,38,P 13,Number,N,TRUE,OE,q,2414,alt
CVOE updated,2001,1,3,39,S 07,Letter,Y,TRUE,CV,q,1786,alt
CVOE updated,2001,1,3,40,U 36,Letter,N,TRUE,CV,q,1673,alt
CVOE updated,2001,1,3,41,A 96,Number,Y,TRUE,OE,q,6065,alt
CVOE updated,2001,1,3,42,D 04,Number,N,FALSE,OE,q,2770,alt
CVOE updated,2001,1,3,43,E 60,Letter,Y,TRUE,CV,p,6921,alt
CVOE updated,2001,1,3,44,H 83,Letter,N,TRUE,CV,q,5201,alt
CVOE updated,2001,1,3,45,I 64,Number,Y,TRUE,OE,p,8967,alt
CVOE updated,2001,1,3,46,J 76,Number,N,FALSE,OE,q,5467,alt
CVOE updated,2001,1,3,47,O 78,Letter,Y,TRUE,CV,p,7826,alt
CVOE updated,2001,1,3,48,P 09,Letter,N,TRUE,CV,p,2619,alt
CVOE updated,2001,1,3,49,S 72,Number,Y,FALSE,OE,q,5079,alt
CVOE updated,2001,1,3,50,U 47,Number,N,FALSE,OE,p,5786,alt
CVOE updated,2001,1,3,51,A 31,Letter,Y,FALSE,CV,p,7633,alt
CVOE updated,2001,1,3,52,D 96,Letter,N,FALSE,CV,q,4020,alt
CVOE updated,2001,1,3,53,E 40,Number,Y,TRUE,OE,q,2176,alt
CVOE updated,2001,1,3,54,H 79,Number,N,TRUE,OE,q,1484,alt
CVOE updated,2001,1,3,55,I 15,Letter,Y,FALSE,CV,q,1123,alt
CVOE updated,2001,1,3,56,J 07,Letter,N,TRUE,CV,q,1052,alt
CVOE updated,2001,1,3,57,O 61,Number,Y,FALSE,OE,q,1871,alt
CVOE updated,2001,1,3,58,P 58,Number,N,FALSE,OE,q,1872,alt
CVOE updated,2001,1,3,59,S 37,Letter,Y,TRUE,CV,q,1324,alt
CVOE updated,2001,1,3,60,U 61,Letter,N,FALSE,CV,q,1405,alt
CVOE updated,2001,1,3,61,A 17,Number,Y,FALSE,OE,q,1089,alt
CVOE updated,2001,1,3,62,D 85,Number,N,TRUE,OE,q,1404,alt
CVOE updated,2001,1,3,63,E 20,Letter,Y,TRUE,CV,q,2304,alt
CVOE updated,2001,1,3,64,H 86,Letter,N,FALSE,CV,q,1752,alt
CVOE updated,2001,1,3,65,I 21,Number,Y,FALSE,OE,q,1281,alt
CVOE updated,2001,1,3,66,J 29,Number,N,TRUE,OE,q,967,alt
CVOE updated,2001,1,3,67,O 13,Letter,Y,FALSE,CV,p,4937,alt
CVOE updated,2001,1,3,68,P 82,Letter,N,FALSE,CV,q,4486,alt
CVOE updated,2001,1,3,69,S 72,Number,Y,FALSE,OE,q,3156,alt
CVOE updated,2001,1,3,70,U 84,Number,N,TRUE,OE,q,1868,alt
CVOE updated,2001,1,3,71,A 49,Letter,Y,FALSE,CV,q,1710,alt
CVOE updated,2001,1,3,72,D 91,Letter,N,TRUE,CV,p,4054,alt
CVOE updated,2001,1,3,73,E 99,Number,Y,FALSE,OE,q,2883,alt
CVOE updated,2001,1,3,74,H 16,Number,N,FALSE,OE,q,2179,alt
CVOE updated,2001,1,3,75,I 45,Letter,Y,FALSE,CV,p,4250,alt
CVOE updated,2001,1,3,76,J 70,Letter,N,FALSE,CV,q,4148,alt
CVOE updated,2001,1,3,77,O 22,Number,Y,TRUE,OE,q,1522,alt
CVOE updated,2001,1,3,78,P 41,Number,N,TRUE,OE,q,4145,alt
CVOE updated,2001,1,3,79,S 93,Letter,Y,TRUE,CV,q,3360,alt
CVOE updated,2001,1,3,80,U 70,Letter,N,TRUE,CV,q,774,alt
CVOE updated,2001,1,3,81,A 42,Number,Y,TRUE,OE,p,3271,alt
CVOE updated,2001,1,3,82,D 85,Number,N,TRUE,OE,q,5196,alt
CVOE updated,2001,1,3,83,E 68,Letter,Y,TRUE,CV,q,1320,alt
CVOE updated,2001,1,3,84,H 17,Letter,N,TRUE,CV,q,1558,alt
CVOE updated,2001,1,3,85,I 70,Number,Y,TRUE,OE,q,2895,alt
CVOE updated,2001,1,3,86,J 88,Number,N,FALSE,OE,p,5517,alt
CVOE updated,2001,1,3,87,O 32,Letter,Y,TRUE,CV,q,7318,alt
CVOE updated,2001,1,3,88,P 95,Letter,N,TRUE,CV,q,3359,alt
CVOE updated,2001,1,3,89,S 98,Number,Y,FALSE,OE,q,2890,alt
CVOE updated,2001,1,3,90,U 37,Number,N,FALSE,OE,q,1556,alt
CVOE updated,2001,1,3,91,A 56,Letter,Y,TRUE,CV,q,5165,alt
CVOE updated,2001,1,3,92,D 57,Letter,N,TRUE,CV,p,4339,alt
CVOE updated,2001,1,3,93,E 93,Number,Y,FALSE,OE,p,7819,alt
CVOE updated,2001,1,3,94,H 27,Number,N,TRUE,OE,q,2259,alt
CVOE updated,2001,1,3,95,I 35,Letter,Y,FALSE,CV,p,7516,alt
CVOE updated,2001,1,3,96,J 03,Letter,N,TRUE,CV,q,28733,alt
CVOE updated,2001,1,3,97,O 28,Number,Y,TRUE,OE,q,5787,alt
CVOE updated,2001,1,3,98,P 59,Number,N,TRUE,OE,p,4342,alt
CVOE updated,2001,1,3,99,S 77,Letter,Y,TRUE,CV,p,2103,alt
CVOE updated,2001,1,3,100,U 05,Letter,N,FALSE,CV,q,1611,alt
CVOE updated,2001,1,3,101,A 56,Number,Y,TRUE,OE,p,4957,alt
CVOE updated,2001,1,3,102,D 01,Number,N,TRUE,OE,q,3666,alt
CVOE updated,2001,1,3,103,E 02,Letter,Y,TRUE,CV,q,1706,alt
CVOE updated,2001,1,3,104,H 68,Letter,N,FALSE,CV,q,4811,alt
CVOE updated,2001,1,3,105,I 05,Number,Y,FALSE,OE,p,4532,alt
CVOE updated,2001,1,3,106,J 55,Number,N,TRUE,OE,q,3754,alt
CVOE updated,2001,1,3,107,O 73,Letter,Y,FALSE,CV,p,4176,alt
CVOE updated,2001,1,3,108,P 41,Letter,N,TRUE,CV,q,8411,alt
CVOE updated,2001,1,3,109,S 92,Number,Y,FALSE,OE,p,6928,alt
CVOE updated,2001,1,3,110,U 34,Number,N,TRUE,OE,q,4292,alt
CVOE updated,2001,1,3,111,A 09,Letter,Y,FALSE,CV,q,3317,alt
CVOE updated,2001,1,3,112,D 92,Letter,N,FALSE,CV,p,3390,alt
CVOE updated,2001,1,3,113,E 48,Number,Y,TRUE,OE,q,8058,alt
CVOE updated,2001,1,3,114,H 76,Number,N,FALSE,OE,p,4498,alt
CVOE updated,2001,1,3,115,I 44,Letter,Y,TRUE,CV,q,1481,alt
CVOE updated,2001,1,3,116,J 67,Letter,N,TRUE,CV,p,3236,alt
CVOE updated,2001,1,3,117,O 48,Number,Y,TRUE,OE,p,6488,alt
CVOE updated,2001,1,3,118,P 22,Number,N,FALSE,OE,p,4012,alt
CVOE updated,2001,1,3,119,S 86,Letter,Y,FALSE,CV,p,1559,alt
CVOE updated,2001,1,3,120,U 35,Letter,N,FALSE,CV,p,1406,alt
CVOE updated,2001,1,3,121,A 91,Number,Y,FALSE,OE,p,1834,alt
CVOE updated,2001,1,3,122,D 78,Number,N,FALSE,OE,p,2611,alt
CVOE updated,2001,1,3,123,E 91,Letter,Y,FALSE,CV,q,4305,alt
CVOE updated,2001,1,3,124,H 54,Letter,N,FALSE,CV,p,1788,alt
CVOE updated,2001,1,3,125,I 65,Number,Y,FALSE,OE,p,2851,alt
CVOE updated,2001,1,3,126,J 52,Number,N,FALSE,OE,p,4724,alt
CVOE updated,2001,1,3,127,O 19,Letter,Y,FALSE,CV,p,2727,alt
CVOE updated,2001,1,3,128,P 48,Letter,N,FALSE,CV,q,2657,alt
CVOE updated,2001,1,3,129,S 45,Number,Y,TRUE,OE,p,2694,alt
CVOE updated,2001,1,3,130,U 26,Number,N,TRUE,OE,p,3755,alt
CVOE updated,2001,1,4,1,U 38,Number,N,TRUE,OE,p,19006,shuf
CVOE updated,2001,1,4,2,P 73,Number,N,TRUE,OE,q,6260,shuf
CVOE updated,2001,1,4,3,U 95,Letter,Y,FALSE,CV,q,12598,shuf
CVOE updated,2001,1,4,4,J 61,Number,Y,TRUE,OE,q,5783,shuf
CVOE updated,2001,1,4,5,D 51,Number,N,TRUE,OE,q,3303,shuf
CVOE updated,2001,1,4,6,S 28,Number,N,FALSE,OE,q,3823,shuf
CVOE updated,2001,1,4,7,A 56,Letter,Y,TRUE,CV,q,4688,shuf
CVOE updated,2001,1,4,8,H 78,Letter,N,FALSE,CV,q,4253,shuf
CVOE updated,2001,1,4,9,P 92,Letter,N,FALSE,CV,p,6015,shuf
CVOE updated,2001,1,4,10,E 05,Number,Y,FALSE,OE,q,3101,shuf
CVOE updated,2001,1,4,11,P 57,Letter,Y,TRUE,CV,q,2334,shuf
CVOE updated,2001,1,4,12,D 88,Number,Y,FALSE,OE,q,1364,shuf
CVOE updated,2001,1,4,13,O 89,Letter,Y,FALSE,CV,p,2254,shuf
CVOE updated,2001,1,4,14,U 43,Number,Y,FALSE,OE,p,4846,shuf
CVOE updated,2001,1,4,15,H 10,Number,N,FALSE,OE,p,4690,shuf
CVOE updated,2001,1,4,16,S 07,Letter,Y,TRUE,CV,p,7743,shuf
CVOE updated,2001,1,4,17,J 10,Letter,N,FALSE,CV,p,8613,shuf
CVOE updated,2001,1,4,18,H 54,Number,Y,FALSE,OE,p,5403,shuf
CVOE updated,2001,1,4,19,E 99,Number,N,FALSE,OE,q,3443,shuf
CVOE updated,2001,1,4,20,J 36,Letter,Y,FALSE,CV,q,5829,shuf
CVOE updated,2001,1,4,21,I 94,Letter,N,TRUE,CV,q,3907,shuf
CVOE updated,2001,1,4,22,A 82,Letter,N,TRUE,CV,q,2964,shuf
CVOE updated,2001,1,4,23,H 79,Number,Y,TRUE,OE,q,1038,shuf
CVOE updated,2001,1,4,24,J 60,Number,N,FALSE,OE,q,1560,shuf
CVOE updated,2001,1,4,25,S 28,Letter,Y,FALSE,CV,q,6838,shuf
CVOE updated,2001,1,4,26,P 11,Number,Y,TRUE,OE,p,2675,shuf
CVOE updated,2001,1,4,27,D 39,Number,N,TRUE,OE,q,2070,shuf
CVOE updated,2001,1,4,28,E 90,Number,N,TRUE,OE,q,1517,shuf
CVOE updated,2001,1,4,29,I 38,Number,N,TRUE,OE,q,1987,shuf
CVOE updated,2001,1,4,30,S 35,Letter,Y,TRUE,CV,p,3085,shuf
CVOE updated,2001,1,4,31,D 41,Number,Y,TRUE,OE,q,3432,shuf
CVOE updated,2001,1,4,32,E 06,Number,N,TRUE,OE,p,2370,shuf
CVOE updated,2001,1,4,33,A 27,Number,N,FALSE,OE,p,5238,shuf
CVOE updated,2001,1,4,34,U 95,Letter,Y,FALSE,CV,p,2214,shuf
CVOE updated,2001,1,4,35,A 53,Letter,N,FALSE,CV,q,2763,shuf
CVOE updated,2001,1,4,36,E 43,Letter,N,FALSE,CV,p,5270,shuf
CVOE updated,2001,1,4,37,P 05,Number,Y,TRUE,OE,p,3992,shuf
CVOE updated,2001,1,4,38,O 19,Letter,Y,FALSE,CV,p,2926,shuf
CVOE updated,2001,1,4,39,I 96,Number,Y,TRUE,OE,p,1873,shuf
CVOE updated,2001,1,4,40,A 88,Number,N,TRUE,OE,p,2186,shuf
CVOE updated,2001,1,4,41,I 67,Number,N,FALSE,OE,q,2848,shuf
CVOE updated,2001,1,4,42,D 40,Number,N,FALSE,OE,p,1548,shuf
CVOE updated,2001,1,4,43,P 79,Letter,Y,TRUE,CV,q,3746,shuf
CVOE updated,2001,1,4,44,U 24,Number,Y,TRUE,OE,p,3128,shuf
CVOE updated,2001,1,4,45,P 74,Number,N,FALSE,OE,p,1913,shuf
CVOE updated,2001,1,4,46,E 70,Number,N,TRUE,OE,q,5036,shuf
CVOE updated,2001,1,4,47,S 27,Number,N,TRUE,OE,p,3109,shuf
CVOE updated,2001,1,4,48,E 54,Letter,Y,TRUE,CV,q,4616,shuf
CVOE updated,2001,1,4,49,A 53,Letter,N,FALSE,CV,q,4343,shuf
CVOE updated,2001,1,4,50,P 34,Letter,N,FALSE,CV,q,1595,shuf
CVOE updated,2001,1,4,51,D 74,Number,Y,FALSE,OE,q,2881,shuf
CVOE updated,2001,1,4,52,A 03,Letter,Y,FALSE,CV,p,3506,shuf
CVOE updated,2001,1,4,53,E 24,Number,Y,TRUE,OE,p,6061,shuf
CVOE updated,2001,1,4,54,I 58,Letter,Y,TRUE,CV,q,3685,shuf
CVOE updated,2001,1,4,55,D 77,Number,Y,TRUE,OE,p,1744,shuf
CVOE updated,2001,1,4,56,S 75,Number,N,TRUE,OE,p,1783,shuf
CVOE updated,2001,1,4,57,I 20,Letter,Y,TRUE,CV,p,2220,shuf
CVOE updated,2001,1,4,58,J 52,Letter,N,FALSE,CV,p,1790,shuf
CVOE updated,2001,1,4,59,A 38,Number,Y,TRUE,OE,p,3440,shuf
CVOE updated,2001,1,4,60,I 60,Letter,Y,TRUE,CV,p,1947,shuf
CVOE updated,2001,1,4,61,S 51,Number,Y,TRUE,OE,p,2843,shuf
CVOE updated,2001,1,4,62,D 63,Letter,Y,TRUE,CV,p,1678,shuf
CVOE updated,2001,1,4,63,U 27,Letter,N,FALSE,CV,p,1744,shuf
CVOE updated,2001,1,4,64,J 77,Letter,N,TRUE,CV,q,1743,shuf
CVOE updated,2001,1,4,65,O 15,Number,Y,FALSE,OE,p,3349,shuf
CVOE updated,2001,1,4,66,J 20,Letter,Y,FALSE,CV,p,2231,shuf
CVOE updated,2001,1,4,67,U 97,Number,Y,FALSE,OE,p,2804,shuf
CVOE updated,2001,1,4,68,H 03,Number,N,TRUE,OE,p,3396,shuf
CVOE updated,2001,1,4,69,O 04,Letter,Y,TRUE,CV,q,2305,shuf
CVOE updated,2001,1,4,70,E 10,Letter,N,TRUE,CV,p,2106,shuf
CVOE updated,2001,1,4,71,I 52,Letter,N,TRUE,CV,p,1441,shuf
CVOE updated,2001,1,4,72,H 81,Number,Y,TRUE,OE,p,1618,shuf
CVOE updated,2001,1,4,73,I 41,Number,N,FALSE,OE,p,946,shuf
CVOE updated,2001,1,4,74,U 19,Letter,Y,FALSE,CV,p,1160,shuf
CVOE updated,2001,1,4,75,O 17,Number,Y,FALSE,OE,p,1274,shuf
CVOE updated,2001,1,4,76,A 10,Number,N,TRUE,OE,p,5481,shuf
CVOE updated,2001,1,4,77,P 93,Letter,Y,TRUE,CV,p,2317,shuf
CVOE updated,2001,1,4,78,E 59,Letter,N,FALSE,CV,p,1905,shuf
CVOE updated,2001,1,4,79,O 53,Letter,N,FALSE,CV,p,1127,shuf
CVOE updated,2001,1,4,80,A 96,Letter,N,TRUE,CV,p,805,shuf
CVOE updated,2001,1,4,81,H 36,Letter,Y,FALSE,CV,p,3717,shuf
CVOE updated,2001,1,4,82,A 63,Letter,N,FALSE,CV,p,3467,shuf
CVOE updated,2001,1,4,83,I 38,Letter,N,TRUE,CV,p,2450,shuf
CVOE updated,2001,1,4,84,O 51,Number,Y,FALSE,OE,p,2453,shuf
CVOE updated,2001,1,4,85,J 26,Number,N,FALSE,OE,p,3043,shuf
CVOE updated,2001,1,4,86,S 34,Letter,Y,FALSE,CV,p,3126,shuf
CVOE updated,2001,1,4,87,U 85,Number,Y,FALSE,OE,p,1598,shuf
CVOE updated,2001,1,4,88,J 77,Number,N,TRUE,OE,p,2100,shuf
CVOE updated,2001,1,4,89,I 73,Letter,Y,FALSE,CV,p,1200,shuf
CVOE updated,2001,1,4,90,H 46,Number,Y,FALSE,OE,p,2160,shuf
CVOE updated,2001,1,4,91,D 04,Number,N,FALSE,OE,q,4430,shuf
CVOE updated,2001,1,4,92,P 72,Letter,Y,FALSE,CV,q,4928,shuf
CVOE updated,2001,1,4,93,D 99,Number,Y,TRUE,OE,p,4081,shuf
CVOE updated,2001,1,4,94,U 25,Letter,Y,FALSE,CV,q,2931,shuf
CVOE updated,2001,1,4,95,O 32,Letter,N,TRUE,CV,q,2567,shuf
CVOE updated,2001,1,4,96,E 80,Letter,N,TRUE,CV,p,6409,shuf
CVOE updated,2001,1,4,97,O 84,Number,Y,TRUE,OE,p,4527,shuf
CVOE updated,2001,1,4,98,A 78,Number,N,TRUE,OE,p,1947,shuf
CVOE updated,2001,1,4,99,S 05,Number,N,TRUE,OE,p,3588,shuf
CVOE updated,2001,1,4,100,U 35,Letter,Y,FALSE,CV,p,2336,shuf
CVOE updated,2001,1,4,101,H 14,Letter,N,FALSE,CV,p,1750,shuf
CVOE updated,2001,1,4,102,U 15,Number,Y,FALSE,OE,q,4219,shuf
CVOE updated,2001,1,4,103,E 36,Letter,Y,TRUE,CV,p,2958,shuf
CVOE updated,2001,1,4,104,P 70,Letter,N,FALSE,CV,p,1597,shuf
CVOE updated,2001,1,4,105,O 44,Number,Y,TRUE,OE,p,1904,shuf
CVOE updated,2001,1,4,106,S 41,Letter,Y,TRUE,CV,q,5162,shuf
CVOE updated,2001,1,4,107,D 83,Letter,N,TRUE,CV,p,4337,shuf
CVOE updated,2001,1,4,108,J 39,Letter,N,TRUE,CV,p,1706,shuf
CVOE updated,2001,1,4,109,S 22,Number,Y,FALSE,OE,q,3597,shuf
CVOE updated,2001,1,4,110,D 89,Letter,Y,TRUE,CV,p,1562,shuf
CVOE updated,2001,1,4,111,P 87,Letter,N,TRUE,CV,q,2803,shuf
CVOE updated,2001,1,4,112,H 42,Letter,N,FALSE,CV,q,1435,shuf
CVOE updated,2001,1,4,113,S 49,Letter,N,TRUE,CV,q,4182,shuf
CVOE updated,2001,1,4,114,J 20,Number,Y,FALSE,OE,q,4696,shuf
CVOE updated,2001,1,4,115,O 19,Letter,Y,FALSE,CV,q,2733,shuf
CVOE updated,2001,1,4,116,H 50,Letter,N,FALSE,CV,q,1315,shuf
CVOE updated,2001,1,4,117,I 68,Number,Y,TRUE,OE,q,1984,shuf
CVOE updated,2001,1,4,118,J 72,Number,N,FALSE,OE,q,1986,shuf
CVOE updated,2001,1,4,119,O 21,Number,N,FALSE,OE,q,3906,shuf
CVOE updated,2001,1,4,120,H 22,Number,N,FALSE,OE,p,1474,shuf
CVOE_B,1002,1,1,11,A 24,,,TRUE,OE,p,8461,oe
CVOE_B,1002,1,1,12,O 83,,,FALSE,OE,q,1323,oe
CVOE_B,1002,1,1,13,H 55,,,TRUE,OE,p,1441,oe
CVOE_B,1002,1,1,14,P 10,,,FALSE,OE,p,1442,oe
CVOE_B,1002,1,1,15,D 30,,,FALSE,OE,p,1035,oe
CVOE_B,1002,1,1,16,U 62,,,TRUE,OE,p,929,oe
CVOE_B,1002,1,1,17,P 95,,,TRUE,OE,q,1235,oe
CVOE_B,1002,1,1,18,U 06,,,TRUE,OE,p,850,oe
CVOE_B,1002,1,1,19,E 75,,,FALSE,OE,q,849,oe
CVOE_B,1002,1,1,20,I 67,,,FALSE,OE,q,1005,oe
CVOE_B,1002,1,1,21,S 13,,,TRUE,OE,q,893,oe
CVOE_B,1002,1,1,22,P 78,,,FALSE,OE,p,998,oe
CVOE_B,1002,1,1,23,I 15,,,FALSE,OE,q,886,oe
CVOE_B,1002,1,1,24,D 27,,,TRUE,OE,q,1361,oe
CVOE_B,1002,1,1,25,O 94,,,TRUE,OE,p,881,oe
CVOE_B,1002,1,1,26,A 65,,,FALSE,OE,q,1004,oe
CVOE_B,1002,1,1,27,I 42,,,TRUE,OE,p,1047,oe
CVOE_B,1002,1,1,28,E 25,,,FALSE,OE,q,807,oe
CVOE_B,1002,1,1,29,H 49,,,TRUE,OE,q,1091,oe
CVOE_B,1002,1,1,30,S 18,,,FALSE,OE,p,1052,oe
CVOE_B,1002,1,1,31,H 51,,,TRUE,OE,q,694,oe
CVOE_B,1002,1,1,32,U 14,,,TRUE,OE,p,1079,oe
CVOE_B,1002,1,1,33,E 02,,,TRUE,OE,p,844,oe
CVOE_B,1002,1,1,34,J 26,,,FALSE,OE,p,843,oe
CVOE_B,1002,1,1,35,D 24,,,FALSE,OE,p,842,oe
CVOE_B,1002,1,1,36,O 50,,,TRUE,OE,p,997,oe
CVOE_B,1002,1,1,37,U 16,,,TRUE,OE,p,842,oe
CVOE_B,1002,1,1,38,O 15,,,FALSE,OE,q,1232,oe
CVOE_B,1002,1,1,39,D 32,,,FALSE,OE,p,847,oe
CVOE_B,1002,1,1,40,S 67,,,TRUE,OE,q,1042,oe
CVOE_B,1002,1,1,41,J 74,,,FALSE,OE,p,1232,oe
CVOE_B,1002,1,1,42,D 92,,,FALSE,OE,p,1669,oe
CVOE_B,1002,1,1,43,A 65,,,FALSE,OE,q,809,oe
CVOE_B,1002,1,1,44,I 87,,,FALSE,OE,q,1233,oe
CVOE_B,1002,1,1,45,H 61,,,TRUE,OE,q,769,oe
CVOE_B,1002,1,1,46,E 59,,,FALSE,OE,q,931,oe
CVOE_B,1002,1,1,47,I 33,,,FALSE,OE,q,924,oe
CVOE_B,1002,1,1,48,O 90,,,TRUE,OE,p,739,oe
CVOE_B,1002,1,1,49,U 51,,,FALSE,OE,q,699,oe
CVOE_B,1002,1,1,50,A 10,,,TRUE,OE,p,1164,oe
CVOE_B,1002,1,1,51,E 50,,,TRUE,OE,p,610,oe
CVOE_B,1002,1,1,52,D 92,,,FALSE,OE,p,608,oe
CVOE_B,1002,1,1,53,E 60,,,TRUE,OE,p,803,oe
CVOE_B,1002,1,1,54,A 95,,,FALSE,OE,q,1165,oe
CVOE_B,1002,1,1,55,E 64,,,TRUE,OE,p,808,oe
CVOE_B,1002,1,1,56,P 20,,,FALSE,OE,p,1075,oe
CVOE_B,1002,1,1,57,S 06,,,FALSE,OE,p,1036,oe
CVOE_B,1002,1,1,58,P 64,,,FALSE,OE,p,673,oe
CVOE_B,1002,1,1,59,U 70,,,TRUE,OE,p,778,oe
CVOE_B,1002,1,1,60,S 16,,,FALSE,OE,p,883,oe
CVOE_B,1002,1,1,61,E 35,,,FALSE,OE,q,732,oe
CVOE_B,1002,1,1,62,I 93,,,FALSE,OE,q,691,oe
CVOE_B,1002,1,1,63,D 63,,,TRUE,OE,q,763,oe
CVOE_B,1002,1,1,64,U 89,,,FALSE,OE,q,808,oe
CVOE_B,1002,1,1,65,E 91,,,FALSE,OE,q,762,oe
CVOE_B,1002,1,1,66,A 12,,,TRUE,OE,p,650,oe
CVOE_B,1002,1,1,67,P 56,,,FALSE,OE,p,1084,oe
CVOE_B,1002,1,1,68,S 65,,,TRUE,OE,q,771,oe
CVOE_B,1002,1,1,69,P 07,,,TRUE,OE,q,1637,oe
CVOE_B,1002,1,1,70,I 77,,,FALSE,OE,q,1045,oe
CVOE_B,1002,1,1,71,J 19,,,TRUE,OE,q,1392,oe
CVOE_B,1002,1,1,72,O 59,,,FALSE,OE,q,856,oe
CVOE_B,1002,1,1,73,J 15,,,TRUE,OE,q,894,oe
CVOE_B,1002,1,1,74,I 89,,,FALSE,OE,q,804,oe
CVOE_B,1002,1,1,75,O 97,,,FALSE,OE,q,657,oe
CVOE_B,1002,1,1,76,A 92,,,TRUE,OE,p,724,oe
CVOE_B,1002,1,1,77,J 90,,,FALSE,OE,p,699,oe
CVOE_B,1002,1,1,78,H 65,,,TRUE,OE,q,967,oe
CVOE_B,1002,1,1,79,H 17,,,TRUE,OE,q,849,oe
CVOE_B,1002,1,1,80,S 26,,,FALSE,OE,p,692,oe
CVOE_B,1002,1,1,81,D 56,,,FALSE,OE,p,858,oe
CVOE_B,1002,1,1,82,I 91,,,FALSE,OE,q,685,oe
CVOE_B,1002,1,1,83,J 11,,,TRUE,OE,q,733,oe
CVOE_B,1002,1,1,84,O 28,,,TRUE,OE,p,810,oe
CVOE_B,1002,1,1,85,H 29,,,TRUE,OE,q,843,oe
CVOE_B,1002,1,1,86,J 25,,,TRUE,OE,q,1077,oe
CVOE_B,1002,1,1,87,A 73,,,FALSE,OE,q,803,oe
CVOE_B,1002,1,1,88,J 63,,,TRUE,OE,q,775,oe
CVOE_B,1002,1,1,89,U 84,,,TRUE,OE,p,802,oe
CVOE_B,1002,1,1,90,A 58,,,TRUE,OE,p,711,oe
CVOE_B,1002,1,1,91,S 43,,,TRUE,OE,q,768,oe
CVOE_B,1002,1,1,92,H 54,,,FALSE,OE,p,1203,oe
CVOE_B,1002,1,1,93,D 4,,,FALSE,OE,p,695,oe
CVOE_B,1002,1,1,94,J 75,,,TRUE,OE,q,727,oe
CVOE_B,1002,1,1,95,D 19,,,TRUE,OE,q,765,oe
CVOE_B,1002,1,1,96,J 38,,,FALSE,OE,p,770,oe
CVOE_B,1002,1,1,97,I 56,,,TRUE,OE,p,1439,oe
CVOE_B,1002,1,1,98,P 87,,,TRUE,OE,q,774,oe
CVOE_B,1002,1,1,99,O 80,,,TRUE,OE,p,1859,oe
CVOE_B,1002,1,1,100,U 60,,,TRUE,OE,p,816,oe
CVOE_B,1002,1,1,101,P 48,,,FALSE,OE,p,769,oe
CVOE_B,1002,1,1,102,H 64,,,FALSE,OE,p,813,oe
CVOE_B,1002,1,1,103,A 13,,,FALSE,OE,q,651,oe
CVOE_B,1002,1,1,104,H 68,,,FALSE,OE,p,696,oe
CVOE_B,1002,1,1,105,E 16,,,TRUE,OE,p,1276,oe
CVOE_B,1002,1,1,106,S 71,,,TRUE,OE,q,762,oe
CVOE_B,1002,1,2,11,A 71,,,FALSE,CV,p,4490,cv
CVOE_B,1002,1,2,12,I 66,,,TRUE,CV,p,1197,cv
CVOE_B,1002,1,2,13,S 30,,,FALSE,CV,q,1276,cv
CVOE_B,1002,1,2,14,D 20,,,FALSE,CV,q,1076,cv
CVOE_B,1002,1,2,15,I 31,,,FALSE,CV,p,921,cv
CVOE_B,1002,1,2,16,P 16,,,FALSE,CV,q,931,cv
CVOE_B,1002,1,2,17,A 49,,,FALSE,CV,p,886,cv
CVOE_B,1002,1,2,18,O 64,,,TRUE,CV,p,734,cv
CVOE_B,1002,1,2,19,D 02,,,FALSE,CV,q,812,cv
CVOE_B,1002,1,2,20,P 81,,,TRUE,CV,q,1079,cv
CVOE_B,1002,1,2,21,J 58,,,FALSE,CV,q,1119,cv
CVOE_B,1002,1,2,22,A 22,,,TRUE,CV,p,928,cv
CVOE_B,1002,1,2,23,J 72,,,FALSE,CV,q,883,cv
CVOE_B,1002,1,2,24,P 91,,,TRUE,CV,q,966,cv
CVOE_B,1002,1,2,25,E 19,,,FALSE,CV,p,811,cv
CVOE_B,1002,1,2,26,I 30,,,TRUE,CV,p,883,cv
CVOE_B,1002,1,2,27,D 91,,,TRUE,CV,q,927,cv
CVOE_B,1002,1,2,28,O 48,,,TRUE,CV,p,726,cv
CVOE_B,1002,1,2,29,A 89,,,FALSE,CV,p,802,cv
CVOE_B,1002,1,2,30,U 11,,,FALSE,CV,q,773,cv
CVOE_B,1002,1,2,31,I 76,,,TRUE,CV,p,1857,cv
CVOE_B,1002,1,2,32,U 89,,,FALSE,CV,p,1167,cv
CVOE_B,1002,1,2,33,D 63,,,TRUE,CV,q,965,cv
CVOE_B,1002,1,2,34,H 70,,,FALSE,CV,q,1982,cv
CVOE_B,1002,1,2,35,D 48,,,FALSE,CV,q,1354,cv
CVOE_B,1002,1,2,36,P 56,,,FALSE,CV,q,891,cv
CVOE_B,1002,1,2,37,O 77,,,FALSE,CV,p,723,cv
CVOE_B,1002,1,2,38,P 42,,,FALSE,CV,q,660,cv
CVOE_B,1002,1,2,39,H 22,,,FALSE,CV,q,843,cv
CVOE_B,1002,1,2,40,E 42,,,TRUE,CV,p,725,cv
CVOE_B,1002,1,2,41,J 28,,,FALSE,CV,q,997,cv
CVOE_B,1002,1,2,42,E 95,,,FALSE,CV,p,690,cv
CVOE_B,1002,1,2,43,S 63,,,TRUE,CV,q,817,cv
CVOE_B,1002,1,2,44,H 50,,,FALSE,CV,q,889,cv
CVOE_B,1002,1,2,45,S 33,,,TRUE,CV,q,1285,cv
CVOE_B,1002,1,2,46,P 57,,,TRUE,CV,q,1632,cv
CVOE_B,1002,1,2,47,E 23,,,FALSE,CV,p,728,cv
CVOE_B,1002,1,2,48,S 61,,,TRUE,CV,q,649,cv
CVOE_B,1002,1,2,49,U 67,,,FALSE,CV,p,614,cv
CVOE_B,1002,1,2,50,H 32,,,FALSE,CV,q,690,cv
CVOE_B,1002,1,2,51,U 50,,,TRUE,CV,p,645,cv
CVOE_B,1002,1,2,52,O 49,,,FALSE,CV,p,766,cv
CVOE_B,1002,1,2,53,U 32,,,TRUE,CV,p,631,cv
CVOE_B,1002,1,2,54,J 78,,,FALSE,CV,q,848,cv
CVOE_B,1002,1,2,55,S 54,,,FALSE,CV,q,886,cv
CVOE_B,1002,1,2,56,J 27,,,TRUE,CV,q,1400,cv
CVOE_B,1002,1,2,57,S 06,,,FALSE,CV,q,651,cv
CVOE_B,1002,1,2,58,D 67,,,TRUE,CV,q,736,cv
CVOE_B,1002,1,2,59,A 79,,,FALSE,CV,p,735,cv
CVOE_B,1002,1,2,60,S 52,,,FALSE,CV,q,812,cv
CVOE_B,1002,1,2,61,U 16,,,TRUE,CV,p,649,cv
CVOE_B,1002,1,2,62,O 82,,,TRUE,CV,p,614,cv
CVOE_B,1002,1,2,63,H 87,,,TRUE,CV,q,730,cv
CVOE_B,1002,1,2,64,I 32,,,TRUE,CV,p,807,cv
CVOE_B,1002,1,2,65,U 37,,,FALSE,CV,p,762,cv
CVOE_B,1002,1,2,66,I 42,,,TRUE,CV,p,766,cv
CVOE_B,1002,1,2,67,D 65,,,TRUE,CV,q,693,cv
CVOE_B,1002,1,2,68,U 77,,,FALSE,CV,p,646,cv
CVOE_B,1002,1,2,69,E 12,,,TRUE,CV,p,611,cv
CVOE_B,1002,1,2,70,I 60,,,TRUE,CV,p,727,cv
CVOE_B,1002,1,2,71,J 36,,,FALSE,CV,q,687,cv
CVOE_B,1002,1,2,72,H 75,,,TRUE,CV,q,814,cv
CVOE_B,1002,1,2,73,I 50,,,TRUE,CV,p,769,cv
CVOE_B,1002,1,2,74,E 99,,,FALSE,CV,p,734,cv
CVOE_B,1002,1,2,75,A 86,,,TRUE,CV,p,772,cv
CVOE_B,1002,1,2,76,U 48,,,TRUE,CV,p,737,cv
CVOE_B,1002,1,2,77,E 01,,,FALSE,CV,p,737,cv
CVOE_B,1002,1,2,78,A 78,,,TRUE,CV,p,870,cv
CVOE_B,1002,1,2,79,P 60,,,FALSE,CV,q,1243,cv
CVOE_B,1002,1,2,80,E 43,,,FALSE,CV,p,763,cv
CVOE_B,1002,1,2,81,D 69,,,TRUE,CV,q,1003,cv
CVOE_B,1002,1,2,82,H 11,,,TRUE,CV,q,1126,cv
CVOE_B,1002,1,2,83,P 43,,,TRUE,CV,q,1075,cv
CVOE_B,1002,1,2,84,O 67,,,FALSE,CV,p,645,cv
CVOE_B,1002,1,2,85,S 91,,,FALSE,CV,q,649,cv
CVOE_B,1002,1,2,86,J 68,,,TRUE,CV,q,693,cv
CVOE_B,1002,1,2,87,S 47,,,FALSE,CV,q,724,cv
CVOE_B,1002,1,2,88,I 81,,,TRUE,CV,p,762,cv
CVOE_B,1002,1,2,89,J 39,,,FALSE,CV,q,649,cv
CVOE_B,1002,1,2,90,A 11,,,TRUE,CV,p,656,cv
CVOE_B,1002,1,2,91,O 76,,,FALSE,CV,p,560,cv
CVOE_B,1002,1,2,92,A 62,,,FALSE,CV,p,608,cv
CVOE_B,1002,1,2,93,O 27,,,TRUE,CV,p,920,cv
CVOE_B,1002,1,2,94,E 66,,,FALSE,CV,p,657,cv
CVOE_B,1002,1,2,95,J 62,,,TRUE,CV,q,762,cv
CVOE_B,1002,1,2,96,H 72,,,TRUE,CV,q,610,cv
CVOE_B,1002,1,2,97,E 49,,,TRUE,CV,p,726,cv
CVOE_B,1002,1,2,98,D 52,,,TRUE,CV,q,607,cv
CVOE_B,1002,1,2,99,H 62,,,TRUE,CV,q,722,cv
CVOE_B,1002,1,2,100,I 11,,,TRUE,CV,p,738,cv
CVOE_B,1002,1,2,101,A 98,,,FALSE,CV,p,620,cv
CVOE_B,1002,1,2,102,H 29,,,FALSE,CV,q,697,cv
CVOE_B,1002,1,2,103,E 83,,,TRUE,CV,p,689,cv
CVOE_B,1002,1,2,104,D 43,,,FALSE,CV,q,817,cv
CVOE_B,1002,1,2,105,P 45,,,TRUE,CV,q,654,cv
CVOE_B,1002,1,2,106,J 17,,,TRUE,CV,q,699,cv
CVOE_B,1002,1,3,11,U 38,Number,N,TRUE,OE,p,3842,shuf
CVOE_B,1002,1,3,12,P 73,Number,N,TRUE,OE,q,1125,shuf
CVOE_B,1002,1,3,13,U 95,Letter,Y,FALSE,CV,p,2015,shuf
CVOE_B,1002,1,3,14,J 61,Number,Y,TRUE,OE,q,2057,shuf
CVOE_B,1002,1,3,15,D 51,Number,N,TRUE,OE,q,1736,shuf
CVOE_B,1002,1,3,16,S 28,Number,N,FALSE,OE,p,1280,shuf
CVOE_B,1002,1,3,17,A 56,Letter,Y,TRUE,CV,p,1997,shuf
CVOE_B,1002,1,3,18,H 78,Letter,N,FALSE,CV,q,1468,shuf
CVOE_B,1002,1,3,19,P 92,Letter,N,FALSE,CV,q,2024,shuf
CVOE_B,1002,1,3,20,E 05,Number,Y,FALSE,OE,q,1870,shuf
CVOE_B,1002,1,3,21,P 57,Letter,Y,TRUE,CV,q,2297,shuf
CVOE_B,1002,1,3,22,D 88,Number,Y,FALSE,OE,p,1899,shuf
CVOE_B,1002,1,3,23,O 89,Letter,Y,FALSE,CV,p,2646,shuf
CVOE_B,1002,1,3,24,U 43,Number,Y,FALSE,OE,q,1662,shuf
CVOE_B,1002,1,3,25,H 10,Number,N,FALSE,OE,p,1899,shuf
CVOE_B,1002,1,3,26,S 07,Letter,Y,TRUE,CV,q,2371,shuf
CVOE_B,1002,1,3,27,J 10,Letter,N,FALSE,CV,q,2884,shuf
CVOE_B,1002,1,3,28,H 54,Number,Y,FALSE,OE,p,3623,shuf
CVOE_B,1002,1,3,29,E 99,Number,N,FALSE,OE,q,1787,shuf
CVOE_B,1002,1,3,30,J 36,Letter,Y,FALSE,CV,q,2102,shuf
CVOE_B,1002,1,3,31,I 94,Letter,N,TRUE,CV,p,1317,shuf
CVOE_B,1002,1,3,32,A 82,Letter,N,TRUE,CV,p,1319,shuf
CVOE_B,1002,1,3,33,H 79,Number,Y,TRUE,OE,q,1320,shuf
CVOE_B,1002,1,3,34,J 60,Number,N,FALSE,OE,p,1829,shuf
CVOE_B,1002,1,3,35,S 28,Letter,Y,FALSE,CV,q,1586,shuf
CVOE_B,1002,1,3,36,P 11,Number,Y,TRUE,OE,q,1514,shuf
CVOE_B,1002,1,3,37,D 39,Number,N,TRUE,OE,q,1706,shuf
CVOE_B,1002,1,3,38,E 90,Number,N,TRUE,OE,p,1949,shuf
CVOE_B,1002,1,3,39,I 38,Number,N,TRUE,OE,p,1706,shuf
CVOE_B,1002,1,3,40,S 35,Letter,Y,TRUE,CV,q,2692,shuf
CVOE_B,1002,1,3,41,D 41,Number,Y,TRUE,OE,q,1518,shuf
CVOE_B,1002,1,3,42,E 06,Number,N,TRUE,OE,p,1631,shuf
CVOE_B,1002,1,3,43,A 27,Number,N,FALSE,OE,q,2410,shuf
CVOE_B,1002,1,3,44,U 95,Letter,Y,FALSE,CV,p,1247,shuf
CVOE_B,1002,1,3,45,A 53,Letter,N,FALSE,CV,p,1119,shuf
CVOE_B,1002,1,3,46,E 43,Letter,N,FALSE,CV,p,1712,shuf
CVOE_B,1002,1,3,47,P 05,Number,Y,TRUE,OE,q,1273,shuf
CVOE_B,1002,1,3,48,O 19,Letter,Y,FALSE,CV,p,1754,shuf
CVOE_B,1002,1,3,49,I 96,Number,Y,TRUE,OE,p,2102,shuf
CVOE_B,1002,1,3,50,A 88,Number,N,TRUE,OE,p,2023,shuf
CVOE_B,1002,1,3,51,I 67,Number,N,FALSE,OE,q,1361,shuf
CVOE_B,1002,1,3,52,D 40,Number,N,FALSE,OE,p,2055,shuf
CVOE_B,1002,1,3,53,P 79,Letter,Y,TRUE,CV,q,1672,shuf
CVOE_B,1002,1,3,54,U 24,Number,Y,TRUE,OE,p,2457,shuf
CVOE_B,1002,1,3,55,P 74,Number,N,FALSE,OE,p,3279,shuf
CVOE_B,1002,1,3,56,E 70,Number,N,TRUE,OE,p,1597,shuf
CVOE_B,1002,1,3,57,S 27,Number,N,TRUE,OE,q,1118,shuf
CVOE_B,1002,1,3,58,E 54,Letter,Y,TRUE,CV,p,1046,shuf
CVOE_B,1002,1,3,59,A 53,Letter,N,FALSE,CV,p,1079,shuf
CVOE_B,1002,1,3,60,P 34,Letter,N,FALSE,CV,q,2840,shuf
CVOE_B,1002,1,3,61,D 74,Number,Y,FALSE,OE,p,1320,shuf
CVOE_B,1002,1,3,62,A 03,Letter,Y,FALSE,CV,p,1478,shuf
CVOE_B,1002,1,3,63,E 24,Number,Y,TRUE,OE,p,1859,shuf
CVOE_B,1002,1,3,64,I 58,Letter,Y,TRUE,CV,p,1913,shuf
CVOE_B,1002,1,3,65,D 77,Number,Y,TRUE,OE,q,2056,shuf
CVOE_B,1002,1,3,66,S 75,Number,N,TRUE,OE,q,1869,shuf
CVOE_B,1002,1,3,67,I 20,Letter,Y,TRUE,CV,p,1984,shuf
CVOE_B,1002,1,3,68,J 52,Letter,N,FALSE,CV,q,2372,shuf
CVOE_B,1002,1,3,69,A 38,Number,Y,TRUE,OE,p,2064,shuf
CVOE_B,1002,1,3,70,I 60,Letter,Y,TRUE,CV,p,1939,shuf
CVOE_B,1002,1,3,71,S 51,Number,Y,TRUE,OE,q,1559,shuf
CVOE_B,1002,1,3,72,D 63,Letter,Y,TRUE,CV,q,2147,shuf
CVOE_B,1002,1,3,73,U 27,Letter,N,FALSE,CV,p,1486,shuf
CVOE_B,1002,1,3,74,J 77,Letter,N,TRUE,CV,q,1790,shuf
CVOE_B,1002,1,3,75,O 15,Number,Y,FALSE,OE,q,2849,shuf
CVOE_B,1002,1,3,76,J 20,Letter,Y,FALSE,CV,q,1390,shuf
CVOE_B,1002,1,3,77,U 97,Number,Y,FALSE,OE,q,1991,shuf
CVOE_B,1002,1,3,78,H 03,Number,N,TRUE,OE,q,2536,shuf
CVOE_B,1002,1,3,79,O 04,Letter,Y,TRUE,CV,p,1317,shuf
CVOE_B,1002,1,3,80,E 10,Letter,N,TRUE,CV,p,1161,shuf
CVOE_B,1002,1,3,81,I 52,Letter,N,TRUE,CV,p,960,shuf
CVOE_B,1002,1,3,82,H 81,Number,Y,TRUE,OE,q,1430,shuf
CVOE_B,1002,1,3,83,I 41,Number,N,FALSE,OE,q,1549,shuf
CVOE_B,1002,1,3,84,U 19,Letter,Y,FALSE,CV,p,1316,shuf
CVOE_B,1002,1,3,85,O 17,Number,Y,FALSE,OE,q,1238,shuf
CVOE_B,1002,1,3,86,A 10,Number,N,TRUE,OE,p,1443,shuf
CVOE_B,1002,1,3,87,P 93,Letter,Y,TRUE,CV,q,2562,shuf
CVOE_B,1002,1,3,88,E 59,Letter,N,FALSE,CV,p,1209,shuf
CVOE_B,1002,1,3,89,O 53,Letter,N,FALSE,CV,p,3150,shuf
CVOE_B,1002,1,3,90,A 96,Letter,N,TRUE,CV,p,1038,shuf
CVOE_B,1002,1,3,91,H 36,Letter,Y,FALSE,CV,q,1832,shuf
CVOE_B,1002,1,3,92,A 63,Letter,N,FALSE,CV,p,923,shuf
CVOE_B,1002,1,3,93,I 38,Letter,N,TRUE,CV,p,1029,shuf
CVOE_B,1002,1,3,94,O 51,Number,Y,FALSE,OE,q,1472,shuf
CVOE_B,1002,1,3,95,J 26,Number,N,FALSE,OE,p,2300,shuf
CVOE_B,1002,1,3,96,S 34,Letter,Y,FALSE,CV,q,2115,shuf
CVOE_B,1002,1,3,97,U 85,Number,Y,FALSE,OE,p,1314,shuf
CVOE_B,1002,1,3,98,J 77,Number,N,TRUE,OE,q,2332,shuf
CVOE_B,1002,1,3,99,I 73,Letter,Y,FALSE,CV,p,1274,shuf
CVOE_B,1002,1,3,100,H 46,Number,Y,FALSE,OE,p,1678,shuf
CVOE_B,1002,1,3,101,D 04,Number,N,FALSE,OE,p,1663,shuf
CVOE_B,1002,1,3,102,P 72,Letter,Y,FALSE,CV,q,1744,shuf
CVOE_B,1002,1,3,103,D 99,Number,Y,TRUE,OE,q,2367,shuf
CVOE_B,1002,1,3,104,U 25,Letter,Y,FALSE,CV,p,1119,shuf
CVOE_B,1002,1,3,105,O 32,Letter,N,TRUE,CV,p,1751,shuf
CVOE_B,1002,1,3,106,E 80,Letter,N,TRUE,CV,p,965,shuf
CVOE_B,1002,1,3,107,O 84,Number,Y,TRUE,OE,p,2022,shuf
CVOE_B,1002,1,3,108,A 78,Number,N,TRUE,OE,p,2064,shuf
CVOE_B,1002,1,3,109,S 05,Number,N,TRUE,OE,q,1746,shuf
CVOE_B,1002,1,3,110,U 35,Letter,Y,FALSE,CV,p,1390,shuf
CVOE_B,1002,1,3,111,H 14,Letter,N,FALSE,CV,q,3830,shuf
CVOE_B,1002,1,3,112,U 15,Number,Y,FALSE,OE,q,2067,shuf
CVOE_B,1002,1,3,113,E 36,Letter,Y,TRUE,CV,p,1433,shuf
CVOE_B,1002,1,3,114,P 70,Letter,N,FALSE,CV,q,2217,shuf
CVOE_B,1002,1,3,115,O 44,Number,Y,TRUE,OE,p,1706,shuf
CVOE_B,1002,1,3,116,S 41,Letter,Y,TRUE,CV,q,2145,shuf
CVOE_B,1002,1,3,117,D 83,Letter,N,TRUE,CV,q,3424,shuf
CVOE_B,1002,1,3,118,J 39,Letter,N,TRUE,CV,q,1397,shuf
CVOE_B,1002,1,3,119,S 22,Number,Y,FALSE,OE,p,1315,shuf
CVOE_B,1002,1,3,120,D 89,Letter,Y,TRUE,CV,q,2099,shuf
CVOE_B,1002,1,3,121,P 87,Letter,N,TRUE,CV,q,1548,shuf
CVOE_B,1002,1,3,122,H 42,Letter,N,FALSE,CV,q,1239,shuf
CVOE_B,1002,1,3,123,S 49,Letter,N,TRUE,CV,q,1013,shuf
CVOE_B,1002,1,3,124,J 20,Number,Y,FALSE,OE,p,1902,shuf
CVOE_B,1002,1,3,125,O 19,Letter,Y,FALSE,CV,p,2649,shuf
CVOE_B,1002,1,3,126,H 50,Letter,N,FALSE,CV,q,1704,shuf
CVOE_B,1002,1,3,127,I 68,Number,Y,TRUE,OE,p,1868,shuf
CVOE_B,1002,1,3,128,J 72,Number,N,FALSE,OE,p,2727,shuf
CVOE_B,1002,1,3,129,O 21,Number,N,FALSE,OE,q,1894,shuf
CVOE_B,1002,1,3,130,H 22,Number,N,FALSE,OE,p,1662,shuf
CVOE_B,1002,1,4,1,A 44,Letter,N,TRUE,CV,p,3933,alt
CVOE_B,1002,1,4,2,D 94,Letter,N,FALSE,CV,q,1247,alt
CVOE_B,1002,1,4,3,E 75,Number,Y,FALSE,OE,q,1550,alt
CVOE_B,1002,1,4,4,H 81,Number,N,TRUE,OE,q,1278,alt
CVOE_B,1002,1,4,5,I 64,Letter,Y,TRUE,CV,p,1861,alt
CVOE_B,1002,1,4,6,J 54,Letter,N,FALSE,CV,q,1075,alt
CVOE_B,1002,1,4,7,O 23,Number,Y,FALSE,OE,q,1899,alt
CVOE_B,1002,1,4,8,P 05,Number,N,TRUE,OE,q,1706,alt
CVOE_B,1002,1,4,9,S 34,Letter,Y,FALSE,CV,q,1284,alt
CVOE_B,1002,1,4,10,U 88,Letter,N,TRUE,CV,p,888,alt
CVOE_B,1002,1,4,11,A 70,Number,Y,TRUE,OE,p,1049,alt
CVOE_B,1002,1,4,12,D 12,Number,N,FALSE,OE,p,1514,alt
CVOE_B,1002,1,4,13,E 79,Letter,Y,FALSE,CV,p,1549,alt
CVOE_B,1002,1,4,14,H 72,Letter,N,FALSE,CV,q,1003,alt
CVOE_B,1002,1,4,15,I 41,Number,Y,FALSE,OE,q,2263,alt
CVOE_B,1002,1,4,16,J 63,Number,N,TRUE,OE,q,1273,alt
CVOE_B,1002,1,4,17,O 03,Letter,Y,FALSE,CV,p,1089,alt
CVOE_B,1002,1,4,18,P 75,Letter,N,TRUE,CV,q,1598,alt
CVOE_B,1002,1,4,19,S 61,Number,Y,TRUE,OE,q,2489,alt
CVOE_B,1002,1,4,20,U 28,Number,N,TRUE,OE,p,1791,alt
CVOE_B,1002,1,4,21,A 21,Letter,Y,FALSE,CV,p,1090,alt
CVOE_B,1002,1,4,22,D 18,Letter,N,FALSE,CV,q,2342,alt
CVOE_B,1002,1,4,23,E 35,Number,Y,FALSE,OE,q,2928,alt
CVOE_B,1002,1,4,24,H 62,Number,N,FALSE,OE,p,1481,alt
CVOE_B,1002,1,4,25,I 82,Letter,Y,TRUE,CV,p,1706,alt
CVOE_B,1002,1,4,26,J 78,Letter,N,FALSE,CV,q,1401,alt
CVOE_B,1002,1,4,27,O 12,Number,Y,TRUE,OE,p,1358,alt
CVOE_B,1002,1,4,28,P 13,Number,N,TRUE,OE,q,1991,alt
CVOE_B,1002,1,4,29,S 07,Letter,Y,TRUE,CV,q,1871,alt
CVOE_B,1002,1,4,30,U 36,Letter,N,TRUE,CV,p,1046,alt
CVOE_B,1002,1,4,31,A 96,Number,Y,TRUE,OE,p,3076,alt
CVOE_B,1002,1,4,32,D 04,Number,N,FALSE,OE,p,1792,alt
CVOE_B,1002,1,4,33,E 60,Letter,Y,TRUE,CV,p,1364,alt
CVOE_B,1002,1,4,34,H 83,Letter,N,TRUE,CV,q,1158,alt
CVOE_B,1002,1,4,35,I 64,Number,Y,TRUE,OE,p,1193,alt
CVOE_B,1002,1,4,36,J 76,Number,N,FALSE,OE,p,1115,alt
CVOE_B,1002,1,4,37,O 78,Letter,Y,TRUE,CV,p,1081,alt
CVOE_B,1002,1,4,38,P 09,Letter,N,TRUE,CV,q,2256,alt
CVOE_B,1002,1,4,39,S 72,Number,Y,FALSE,OE,p,1477,alt
CVOE_B,1002,1,4,40,U 47,Number,N,FALSE,OE,q,1820,alt
CVOE_B,1002,1,4,41,A 31,Letter,Y,FALSE,CV,p,1085,alt
CVOE_B,1002,1,4,42,D 96,Letter,N,FALSE,CV,q,1672,alt
CVOE_B,1002,1,4,43,E 40,Number,Y,TRUE,OE,p,1204,alt
CVOE_B,1002,1,4,44,H 79,Number,N,TRUE,OE,q,2731,alt
CVOE_B,1002,1,4,45,I 15,Letter,Y,FALSE,CV,p,1743,alt
CVOE_B,1002,1,4,46,J 07,Letter,N,TRUE,CV,q,4027,alt
CVOE_B,1002,1,4,47,O 61,Number,Y,FALSE,OE,q,2807,alt
CVOE_B,1002,1,4,48,P 58,Number,N,FALSE,OE,p,2259,alt
CVOE_B,1002,1,4,49,S 37,Letter,Y,TRUE,CV,q,2146,alt
CVOE_B,1002,1,4,50,U 61,Letter,N,FALSE,CV,p,1155,alt
CVOE_B,1002,1,4,51,A 17,Number,Y,FALSE,OE,q,2263,alt
CVOE_B,1002,1,4,52,D 85,Number,N,TRUE,OE,q,1428,alt
CVOE_B,1002,1,4,53,E 20,Letter,Y,TRUE,CV,p,960,alt
CVOE_B,1002,1,4,54,H 86,Letter,N,FALSE,CV,q,1155,alt
CVOE_B,1002,1,4,55,I 21,Number,Y,FALSE,OE,q,1169,alt
CVOE_B,1002,1,4,56,J 29,Number,N,TRUE,OE,q,1362,alt
CVOE_B,1002,1,4,57,O 13,Letter,Y,FALSE,CV,p,1235,alt
CVOE_B,1002,1,4,58,P 82,Letter,N,FALSE,CV,q,1046,alt
CVOE_B,1002,1,4,59,S 72,Number,Y,FALSE,OE,p,1431,alt
CVOE_B,1002,1,4,60,U 84,Number,N,TRUE,OE,p,1080,alt
CVOE_B,1002,1,4,61,A 49,Letter,Y,FALSE,CV,p,1355,alt
CVOE_B,1002,1,4,62,D 91,Letter,N,TRUE,CV,q,1870,alt
CVOE_B,1002,1,4,63,E 99,Number,Y,FALSE,OE,q,2142,alt
CVOE_B,1002,1,4,64,H 16,Number,N,FALSE,OE,p,1442,alt
CVOE_B,1002,1,4,65,I 45,Letter,Y,FALSE,CV,p,1717,alt
CVOE_B,1002,1,4,66,J 70,Letter,N,FALSE,CV,q,1395,alt
CVOE_B,1002,1,4,67,O 22,Number,Y,TRUE,OE,p,1430,alt
CVOE_B,1002,1,4,68,P 41,Number,N,TRUE,OE,q,1549,alt
CVOE_B,1002,1,4,69,S 93,Letter,Y,TRUE,CV,q,2294,alt
CVOE_B,1002,1,4,70,U 70,Letter,N,TRUE,CV,p,857,alt
CVOE_B,1002,1,4,71,A 42,Number,Y,TRUE,OE,p,2030,alt
CVOE_B,1002,1,4,72,D 85,Number,N,TRUE,OE,q,2370,alt
CVOE_B,1002,1,4,73,E 68,Letter,Y,TRUE,CV,p,1790,alt
CVOE_B,1002,1,4,74,H 17,Letter,N,TRUE,CV,q,2262,alt
CVOE_B,1002,1,4,75,I 70,Number,Y,TRUE,OE,p,1193,alt
CVOE_B,1002,1,4,76,J 88,Number,N,FALSE,OE,p,3542,alt
CVOE_B,1002,1,4,77,O 32,Letter,Y,TRUE,CV,p,2198,alt
CVOE_B,1002,1,4,78,P 95,Letter,N,TRUE,CV,q,2333,alt
CVOE_B,1002,1,4,79,S 98,Number,Y,FALSE,OE,p,1431,alt
CVOE_B,1002,1,4,80,U 37,Number,N,FALSE,OE,q,2255,alt
CVOE_B,1002,1,4,81,A 56,Letter,Y,TRUE,CV,p,1594,alt
CVOE_B,1002,1,4,82,D 57,Letter,N,TRUE,CV,q,1937,alt
CVOE_B,1002,1,4,83,E 93,Number,Y,FALSE,OE,q,2299,alt
CVOE_B,1002,1,4,84,H 27,Number,N,TRUE,OE,q,2214,alt
CVOE_B,1002,1,4,85,I 35,Letter,Y,FALSE,CV,p,1077,alt
CVOE_B,1002,1,4,86,J 03,Letter,N,TRUE,CV,q,1314,alt
CVOE_B,1002,1,4,87,O 28,Number,Y,TRUE,OE,p,1472,alt
CVOE_B,1002,1,4,88,P 59,Number,N,TRUE,OE,q,1988,alt
CVOE_B,1002,1,4,89,S 77,Letter,Y,TRUE,CV,q,1516,alt
CVOE_B,1002,1,4,90,U 05,Letter,N,FALSE,CV,p,1474,alt
CVOE_B,1002,1,4,91,A 56,Number,Y,TRUE,OE,p,1107,alt
CVOE_B,1002,1,4,92,D 01,Number,N,TRUE,OE,q,3791,alt
CVOE_B,1002,1,4,93,E 02,Letter,Y,TRUE,CV,p,1631,alt
CVOE_B,1002,1,4,94,H 68,Letter,N,FALSE,CV,q,2886,alt
CVOE_B,1002,1,4,95,I 05,Number,Y,FALSE,OE,q,2371,alt
CVOE_B,1002,1,4,96,J 55,Number,N,TRUE,OE,q,1322,alt
CVOE_B,1002,1,4,97,O 73,Letter,Y,FALSE,CV,p,1007,alt
CVOE_B,1002,1,4,98,P 41,Letter,N,TRUE,CV,q,1584,alt
CVOE_B,1002,1,4,99,S 92,Number,Y,FALSE,OE,p,1748,alt
CVOE_B,1002,1,4,100,U 34,Number,N,TRUE,OE,p,1315,alt
CVOE_B,1002,1,4,101,A 09,Letter,Y,FALSE,CV,p,1786,alt
CVOE_B,1002,1,4,102,D 92,Letter,N,FALSE,CV,q,1201,alt
CVOE_B,1002,1,4,103,E 48,Number,Y,TRUE,OE,p,1554,alt
CVOE_B,1002,1,4,104,H 76,Number,N,FALSE,OE,p,1165,alt
CVOE_B,1002,1,4,105,I 44,Letter,Y,TRUE,CV,p,1395,alt
CVOE_B,1002,1,4,106,J 67,Letter,N,TRUE,CV,q,1430,alt
CVOE_B,1002,1,4,107,O 48,Number,Y,TRUE,OE,p,1548,alt
CVOE_B,1002,1,4,108,P 22,Number,N,FALSE,OE,p,1471,alt
CVOE_B,1002,1,4,109,S 86,Letter,Y,FALSE,CV,q,1798,alt
CVOE_B,1002,1,4,110,U 35,Letter,N,FALSE,CV,p,922,alt
CVOE_B,1002,1,4,111,A 91,Number,Y,FALSE,OE,q,1677,alt
CVOE_B,1002,1,4,112,D 78,Number,N,FALSE,OE,p,1115,alt
CVOE_B,1002,1,4,113,E 91,Letter,Y,FALSE,CV,p,1121,alt
CVOE_B,1002,1,4,114,H 54,Letter,N,FALSE,CV,q,1283,alt
CVOE_B,1002,1,4,115,I 65,Number,Y,FALSE,OE,q,1201,alt
CVOE_B,1002,1,4,116,J 52,Number,N,FALSE,OE,p,1475,alt
CVOE_B,1002,1,4,117,O 19,Letter,Y,FALSE,CV,p,1248,alt
CVOE_B,1002,1,4,118,P 48,Letter,N,FALSE,CV,q,1903,alt
CVOE_B,1002,1,4,119,S 45,Number,Y,TRUE,OE,q,1867,alt
CVOE_B,1002,1,4,120,U 26,Number,N,TRUE,OE,p,1434,alt
CVOE_B,2002,1,1,11,A 24,,,TRUE,OE,p,10781,oe
CVOE_B,2002,1,1,12,O 83,,,FALSE,OE,q,1594,oe
CVOE_B,2002,1,1,13,H 55,,,TRUE,OE,q,3698,oe
CVOE_B,2002,1,1,14,P 10,,,FALSE,OE,p,879,oe
CVOE_B,2002,1,1,15,D 30,,,FALSE,OE,p,962,oe
CVOE_B,2002,1,1,16,U 62,,,TRUE,OE,p,1745,oe
CVOE_B,2002,1,1,17,P 95,,,TRUE,OE,q,1037,oe
CVOE_B,2002,1,1,18,U 06,,,TRUE,OE,p,852,oe
CVOE_B,2002,1,1,19,E 75,,,FALSE,OE,q,852,oe
CVOE_B,2002,1,1,20,I 67,,,FALSE,OE,q,1282,oe
CVOE_B,2002,1,1,21,S 13,,,TRUE,OE,q,964,oe
CVOE_B,2002,1,1,22,P 78,,,FALSE,OE,p,885,oe
CVOE_B,2002,1,1,23,I 15,,,FALSE,OE,p,1282,oe
CVOE_B,2002,1,1,24,D 27,,,TRUE,OE,p,2413,oe
CVOE_B,2002,1,1,25,O 94,,,TRUE,OE,q,1428,oe
CVOE_B,2002,1,1,26,A 65,,,FALSE,OE,q,1469,oe
CVOE_B,2002,1,1,27,I 42,,,TRUE,OE,p,1554,oe
CVOE_B,2002,1,1,28,E 25,,,FALSE,OE,p,2064,oe
CVOE_B,2002,1,1,29,H 49,,,TRUE,OE,q,1355,oe
CVOE_B,2002,1,1,30,S 18,,,FALSE,OE,p,2458,oe
CVOE_B,2002,1,1,31,H 51,,,TRUE,OE,p,1087,oe
CVOE_B,2002,1,1,32,U 14,,,TRUE,OE,p,1165,oe
CVOE_B,2002,1,1,33,E 02,,,TRUE,OE,p,1395,oe
CVOE_B,2002,1,1,34,J 26,,,FALSE,OE,p,1157,oe
CVOE_B,2002,1,1,35,D 24,,,FALSE,OE,p,1559,oe
CVOE_B,2002,1,1,36,O 50,,,TRUE,OE,p,1348,oe
CVOE_B,2002,1,1,37,U 16,,,TRUE,OE,p,1590,oe
CVOE_B,2002,1,1,38,O 15,,,FALSE,OE,p,1951,oe
CVOE_B,2002,1,1,39,D 32,,,FALSE,OE,p,1865,oe
CVOE_B,2002,1,1,40,S 67,,,TRUE,OE,q,1001,oe
CVOE_B,2002,1,1,41,J 74,,,FALSE,OE,q,1437,oe
CVOE_B,2002,1,1,42,D 92,,,FALSE,OE,q,1010,oe
CVOE_B,2002,1,1,43,A 65,,,FALSE,OE,q,999,oe
CVOE_B,2002,1,1,44,I 87,,,FALSE,OE,q,1161,oe
CVOE_B,2002,1,1,45,H 61,,,TRUE,OE,q,999,oe
CVOE_B,2002,1,1,46,E 59,,,FALSE,OE,q,1357,oe
CVOE_B,2002,1,1,47,I 33,,,FALSE,OE,q,3399,oe
CVOE_B,2002,1,1,48,O 90,,,TRUE,OE,p,765,oe
CVOE_B,2002,1,1,49,U 51,,,FALSE,OE,q,887,oe
CVOE_B,2002,1,1,50,A 10,,,TRUE,OE,p,853,oe
CVOE_B,2002,1,1,51,E 50,,,TRUE,OE,p,735,oe
CVOE_B,2002,1,1,52,D 92,,,FALSE,OE,q,1556,oe
CVOE_B,2002,1,1,53,E 60,,,TRUE,OE,p,618,oe
CVOE_B,2002,1,1,54,A 95,,,FALSE,OE,q,773,oe
CVOE_B,2002,1,1,55,E 64,,,TRUE,OE,p,762,oe
CVOE_B,2002,1,1,56,P 20,,,FALSE,OE,p,1080,oe
CVOE_B,2002,1,1,57,S 06,,,FALSE,OE,p,727,oe
CVOE_B,2002,1,1,58,P 64,,,FALSE,OE,p,962,oe
CVOE_B,2002,1,1,59,U 70,,,TRUE,OE,q,766,oe
CVOE_B,2002,1,1,60,S 16,,,FALSE,OE,p,771,oe
CVOE_B,2002,1,1,61,E 35,,,FALSE,OE,p,2067,oe
CVOE_B,2002,1,1,62,I 93,,,FALSE,OE,q,1316,oe
CVOE_B,2002,1,1,63,D 63,,,TRUE,OE,q,1280,oe
CVOE_B,2002,1,1,64,U 89,,,FALSE,OE,q,884,oe
CVOE_B,2002,1,1,65,E 91,,,FALSE,OE,q,890,oe
CVOE_B,2002,1,1,66,A 12,,,TRUE,OE,p,739,oe
CVOE_B,2002,1,1,67,P 56,,,FALSE,OE,q,1638,oe
CVOE_B,2002,1,1,68,S 65,,,TRUE,OE,q,1673,oe
CVOE_B,2002,1,1,69,P 07,,,TRUE,OE,q,736,oe
CVOE_B,2002,1,1,70,I 77,,,FALSE,OE,q,1323,oe
CVOE_B,2002,1,1,71,J 19,,,TRUE,OE,q,776,oe
CVOE_B,2002,1,1,72,O 59,,,FALSE,OE,q,842,oe
CVOE_B,2002,1,1,73,J 15,,,TRUE,OE,p,763,oe
CVOE_B,2002,1,1,74,I 89,,,FALSE,OE,q,925,oe
CVOE_B,2002,1,1,75,O 97,,,FALSE,OE,q,801,oe
CVOE_B,2002,1,1,76,A 92,,,TRUE,OE,q,890,oe
CVOE_B,2002,1,1,77,J 90,,,FALSE,OE,p,738,oe
CVOE_B,2002,1,1,78,H 65,,,TRUE,OE,p,894,oe
CVOE_B,2002,1,1,79,H 17,,,TRUE,OE,q,922,oe
CVOE_B,2002,1,1,80,S 26,,,FALSE,OE,p,776,oe
CVOE_B,2002,1,1,81,D 56,,,FALSE,OE,p,960,oe
CVOE_B,2002,1,1,82,I 91,,,FALSE,OE,p,1038,oe
CVOE_B,2002,1,1,83,J 11,,,TRUE,OE,q,1167,oe
CVOE_B,2002,1,1,84,O 28,,,TRUE,OE,p,770,oe
CVOE_B,2002,1,1,85,H 29,,,TRUE,OE,q,1754,oe
CVOE_B,2002,1,1,86,J 25,,,TRUE,OE,p,812,oe
CVOE_B,2002,1,1,87,A 73,,,FALSE,OE,q,727,oe
CVOE_B,2002,1,1,88,J 63,,,TRUE,OE,p,1117,oe
CVOE_B,2002,1,1,89,U 84,,,TRUE,OE,p,888,oe
CVOE_B,2002,1,1,90,A 58,,,TRUE,OE,q,972,oe
CVOE_B,2002,1,1,91,S 43,,,TRUE,OE,q,1676,oe
CVOE_B,2002,1,1,92,H 54,,,FALSE,OE,q,1036,oe
CVOE_B,2002,1,1,93,D 4,,,FALSE,OE,p,734,oe
CVOE_B,2002,1,1,94,J 75,,,TRUE,OE,p,1320,oe
CVOE_B,2002,1,1,95,D 19,,,TRUE,OE,q,734,oe
CVOE_B,2002,1,1,96,J 38,,,FALSE,OE,q,1461,oe
CVOE_B,2002,1,1,97,I 56,,,TRUE,OE,p,841,oe
CVOE_B,2002,1,1,98,P 87,,,TRUE,OE,q,919,oe
CVOE_B,2002,1,1,99,O 80,,,TRUE,OE,p,774,oe
CVOE_B,2002,1,1,100,U 60,,,TRUE,OE,p,779,oe
CVOE_B,2002,1,1,101,P 48,,,FALSE,OE,p,845,oe
CVOE_B,2002,1,1,102,H 64,,,FALSE,OE,p,844,oe
CVOE_B,2002,1,1,103,A 13,,,FALSE,OE,q,704,oe
CVOE_B,2002,1,1,104,H 68,,,FALSE,OE,p,779,oe
CVOE_B,2002,1,1,105,E 16,,,TRUE,OE,p,806,oe
CVOE_B,2002,1,1,106,S 71,,,TRUE,OE,q,816,oe
CVOE_B,2002,1,2,11,A 71,,,FALSE,CV,p,5270,cv
CVOE_B,2002,1,2,12,I 66,,,TRUE,CV,p,1304,cv
CVOE_B,2002,1,2,13,S 30,,,FALSE,CV,q,891,cv
CVOE_B,2002,1,2,14,D 20,,,FALSE,CV,q,1271,cv
CVOE_B,2002,1,2,15,I 31,,,FALSE,CV,p,618,cv
CVOE_B,2002,1,2,16,P 16,,,FALSE,CV,q,655,cv
CVOE_B,2002,1,2,17,A 49,,,FALSE,CV,p,738,cv
CVOE_B,2002,1,2,18,O 64,,,TRUE,CV,p,698,cv
CVOE_B,2002,1,2,19,D 02,,,FALSE,CV,q,809,cv
CVOE_B,2002,1,2,20,P 81,,,TRUE,CV,p,608,cv
CVOE_B,2002,1,2,21,J 58,,,FALSE,CV,p,489,cv
CVOE_B,2002,1,2,22,A 22,,,TRUE,CV,q,543,cv
CVOE_B,2002,1,2,23,J 72,,,FALSE,CV,q,2409,cv
CVOE_B,2002,1,2,24,P 91,,,TRUE,CV,q,1519,cv
CVOE_B,2002,1,2,25,E 19,,,FALSE,CV,p,615,cv
CVOE_B,2002,1,2,26,I 30,,,TRUE,CV,p,1827,cv
CVOE_B,2002,1,2,27,D 91,,,TRUE,CV,q,801,cv
CVOE_B,2002,1,2,28,O 48,,,TRUE,CV,p,655,cv
CVOE_B,2002,1,2,29,A 89,,,FALSE,CV,p,816,cv
CVOE_B,2002,1,2,30,U 11,,,FALSE,CV,p,653,cv
CVOE_B,2002,1,2,31,I 76,,,TRUE,CV,p,597,cv
CVOE_B,2002,1,2,32,U 89,,,FALSE,CV,p,573,cv
CVOE_B,2002,1,2,33,D 63,,,TRUE,CV,q,974,cv
CVOE_B,2002,1,2,34,H 70,,,FALSE,CV,q,896,cv
CVOE_B,2002,1,2,35,D 48,,,FALSE,CV,q,571,cv
CVOE_B,2002,1,2,36,P 56,,,FALSE,CV,q,659,cv
CVOE_B,2002,1,2,37,O 77,,,FALSE,CV,p,610,cv
CVOE_B,2002,1,2,38,P 42,,,FALSE,CV,q,648,cv
CVOE_B,2002,1,2,39,H 22,,,FALSE,CV,q,535,cv
CVOE_B,2002,1,2,40,E 42,,,TRUE,CV,p,617,cv
CVOE_B,2002,1,2,41,J 28,,,FALSE,CV,q,537,cv
CVOE_B,2002,1,2,42,E 95,,,FALSE,CV,p,542,cv
CVOE_B,2002,1,2,43,S 63,,,TRUE,CV,q,820,cv
CVOE_B,2002,1,2,44,H 50,,,FALSE,CV,q,539,cv
CVOE_B,2002,1,2,45,S 33,,,TRUE,CV,q,487,cv
CVOE_B,2002,1,2,46,P 57,,,TRUE,CV,q,502,cv
CVOE_B,2002,1,2,47,E 23,,,FALSE,CV,p,540,cv
CVOE_B,2002,1,2,48,S 61,,,TRUE,CV,q,528,cv
CVOE_B,2002,1,2,49,U 67,,,FALSE,CV,p,649,cv
CVOE_B,2002,1,2,50,H 32,,,FALSE,CV,q,1045,cv
CVOE_B,2002,1,2,51,U 50,,,TRUE,CV,p,570,cv
CVOE_B,2002,1,2,52,O 49,,,FALSE,CV,p,596,cv
CVOE_B,2002,1,2,53,U 32,,,TRUE,CV,p,573,cv
CVOE_B,2002,1,2,54,J 78,,,FALSE,CV,q,700,cv
CVOE_B,2002,1,2,55,S 54,,,FALSE,CV,q,615,cv
CVOE_B,2002,1,2,56,J 27,,,TRUE,CV,q,614,cv
CVOE_B,2002,1,2,57,S 06,,,FALSE,CV,q,769,cv
CVOE_B,2002,1,2,58,D 67,,,TRUE,CV,q,1792,cv
CVOE_B,2002,1,2,59,A 79,,,FALSE,CV,p,464,cv
CVOE_B,2002,1,2,60,S 52,,,FALSE,CV,q,847,cv
CVOE_B,2002,1,2,61,U 16,,,TRUE,CV,p,456,cv
CVOE_B,2002,1,2,62,O 82,,,TRUE,CV,p,661,cv
CVOE_B,2002,1,2,63,H 87,,,TRUE,CV,q,1041,cv
CVOE_B,2002,1,2,64,I 32,,,TRUE,CV,p,584,cv
CVOE_B,2002,1,2,65,U 37,,,FALSE,CV,p,499,cv
CVOE_B,2002,1,2,66,I 42,,,TRUE,CV,p,458,cv
CVOE_B,2002,1,2,67,D 65,,,TRUE,CV,q,685,cv
CVOE_B,2002,1,2,68,U 77,,,FALSE,CV,p,422,cv
CVOE_B,2002,1,2,69,E 12,,,TRUE,CV,p,621,cv
CVOE_B,2002,1,2,70,I 60,,,TRUE,CV,p,502,cv
CVOE_B,2002,1,2,71,J 36,,,FALSE,CV,q,618,cv
CVOE_B,2002,1,2,72,H 75,,,TRUE,CV,p,460,cv
CVOE_B,2002,1,2,73,I 50,,,TRUE,CV,q,1235,cv
CVOE_B,2002,1,2,74,E 99,,,FALSE,CV,p,733,cv
CVOE_B,2002,1,2,75,A 86,,,TRUE,CV,p,967,cv
CVOE_B,2002,1,2,76,U 48,,,TRUE,CV,p,615,cv
CVOE_B,2002,1,2,77,E 01,,,FALSE,CV,p,748,cv
CVOE_B,2002,1,2,78,A 78,,,TRUE,CV,p,1200,cv
CVOE_B,2002,1,2,79,P 60,,,FALSE,CV,q,731,cv
CVOE_B,2002,1,2,80,E 43,,,FALSE,CV,p,574,cv
CVOE_B,2002,1,2,81,D 69,,,TRUE,CV,q,645,cv
CVOE_B,2002,1,2,82,H 11,,,TRUE,CV,q,571,cv
CVOE_B,2002,1,2,83,P 43,,,TRUE,CV,q,581,cv
CVOE_B,2002,1,2,84,O 67,,,FALSE,CV,p,652,cv
CVOE_B,2002,1,2,85,S 91,,,FALSE,CV,q,735,cv
CVOE_B,2002,1,2,86,J 68,,,TRUE,CV,q,852,cv
CVOE_B,2002,1,2,87,S 47,,,FALSE,CV,q,538,cv
CVOE_B,2002,1,2,88,I 81,,,TRUE,CV,p,581,cv
CVOE_B,2002,1,2,89,J 39,,,FALSE,CV,q,614,cv
CVOE_B,2002,1,2,90,A 11,,,TRUE,CV,p,612,cv
CVOE_B,2002,1,2,91,O 76,,,FALSE,CV,p,1276,cv
CVOE_B,2002,1,2,92,A 62,,,FALSE,CV,p,841,cv
CVOE_B,2002,1,2,93,O 27,,,TRUE,CV,p,527,cv
CVOE_B,2002,1,2,94,E 66,,,FALSE,CV,p,573,cv
CVOE_B,2002,1,2,95,J 62,,,TRUE,CV,q,854,cv
CVOE_B,2002,1,2,96,H 72,,,TRUE,CV,q,1206,cv
CVOE_B,2002,1,2,97,E 49,,,TRUE,CV,p,1324,cv
CVOE_B,2002,1,2,98,D 52,,,TRUE,CV,q,895,cv
CVOE_B,2002,1,2,99,H 62,,,TRUE,CV,q,805,cv
CVOE_B,2002,1,2,100,I 11,,,TRUE,CV,p,620,cv
CVOE_B,2002,1,2,101,A 98,,,FALSE,CV,p,736,cv
CVOE_B,2002,1,2,102,H 29,,,FALSE,CV,q,735,cv
CVOE_B,2002,1,2,103,E 83,,,TRUE,CV,q,1009,cv
CVOE_B,2002,1,2,104,D 43,,,FALSE,CV,p,998,cv
CVOE_B,2002,1,2,105,P 45,,,TRUE,CV,q,2646,cv
CVOE_B,2002,1,2,106,J 17,,,TRUE,CV,q,1315,cv
CVOE_B,2002,1,3,11,U 38,Number,N,TRUE,OE,q,26517,shuf
CVOE_B,2002,1,3,12,P 73,Number,N,TRUE,OE,q,2561,shuf
CVOE_B,2002,1,3,13,U 95,Letter,Y,FALSE,CV,q,1834,shuf
CVOE_B,2002,1,3,14,J 61,Number,Y,TRUE,OE,q,1591,shuf
CVOE_B,2002,1,3,15,D 51,Number,N,TRUE,OE,q,1325,shuf
CVOE_B,2002,1,3,16,S 28,Number,N,FALSE,OE,p,1091,shuf
CVOE_B,2002,1,3,17,A 56,Letter,Y,TRUE,CV,q,2187,shuf
CVOE_B,2002,1,3,18,H 78,Letter,N,FALSE,CV,q,1126,shuf
CVOE_B,2002,1,3,19,P 92,Letter,N,FALSE,CV,q,1428,shuf
CVOE_B,2002,1,3,20,E 05,Number,Y,FALSE,OE,q,3426,shuf
CVOE_B,2002,1,3,21,P 57,Letter,Y,TRUE,CV,q,2809,shuf
CVOE_B,2002,1,3,22,D 88,Number,Y,FALSE,OE,p,1283,shuf
CVOE_B,2002,1,3,23,O 89,Letter,Y,FALSE,CV,q,1240,shuf
CVOE_B,2002,1,3,24,U 43,Number,Y,FALSE,OE,q,1623,shuf
CVOE_B,2002,1,3,25,H 10,Number,N,FALSE,OE,p,2143,shuf
CVOE_B,2002,1,3,26,S 07,Letter,Y,TRUE,CV,q,1090,shuf
CVOE_B,2002,1,3,27,J 10,Letter,N,FALSE,CV,p,1208,shuf
CVOE_B,2002,1,3,28,H 54,Number,Y,FALSE,OE,p,2774,shuf
CVOE_B,2002,1,3,29,E 99,Number,N,FALSE,OE,p,1652,shuf
CVOE_B,2002,1,3,30,J 36,Letter,Y,FALSE,CV,p,1084,shuf
CVOE_B,2002,1,3,31,I 94,Letter,N,TRUE,CV,q,1124,shuf
CVOE_B,2002,1,3,32,A 82,Letter,N,TRUE,CV,p,778,shuf
CVOE_B,2002,1,3,33,H 79,Number,Y,TRUE,OE,q,844,shuf
CVOE_B,2002,1,3,34,J 60,Number,N,FALSE,OE,p,765,shuf
CVOE_B,2002,1,3,35,S 28,Letter,Y,FALSE,CV,p,770,shuf
CVOE_B,2002,1,3,36,P 11,Number,Y,TRUE,OE,q,1402,shuf
