"","ExperimentName","Subject","Group","Block","Trial","STIM","TASK","Switch","Congruent","CVOE","Response","RT","block_type","letter","number","key2","response2","match2","score2"
"1","CVOE updated",1001,1,1,11,"A 71","","",FALSE,"CV","p",4811,"cv","A","1","v","v",TRUE,1
"2","CVOE updated",1001,1,1,12,"I 66","","",TRUE,"CV","p",1960,"cv","I","6","v","v",TRUE,1
"3","CVOE updated",1001,1,1,13,"S 30","","",FALSE,"CV","q",918,"cv","S","0","c","c",TRUE,1
"4","CVOE updated",1001,1,1,14,"D 20","","",FALSE,"CV","q",790,"cv","D","0","c","c",TRUE,1
"5","CVOE updated",1001,1,1,15,"I 31","","",FALSE,"CV","p",874,"cv","I","1","v","v",TRUE,1
"6","CVOE updated",1001,1,1,16,"P 16","","",FALSE,"CV","q",700,"cv","P","6","c","c",TRUE,1
"7","CVOE updated",1001,1,1,17,"A 49","","",FALSE,"CV","p",1100,"cv","A","9","v","v",TRUE,1
"8","CVOE updated",1001,1,1,18,"O 64","","",TRUE,"CV","p",1100,"cv","O","4","v","v",TRUE,1
"9","CVOE updated",1001,1,1,19,"D 02","","",FALSE,"CV","q",892,"cv","D","2","c","c",TRUE,1
"10","CVOE updated",1001,1,1,20,"P 81","","",TRUE,"CV","q",1116,"cv","P","1","c","c",TRUE,1
"11","CVOE updated",1001,1,1,21,"J 58","","",FALSE,"CV","q",828,"cv","J","8","c","c",TRUE,1
"12","CVOE updated",1001,1,1,22,"A 22","","",TRUE,"CV","p",679,"cv","A","2","v","v",TRUE,1
"13","CVOE updated",1001,1,1,23,"J 72","","",FALSE,"CV","q",999,"cv","J","2","c","c",TRUE,1
"14","CVOE updated",1001,1,1,24,"P 91","","",TRUE,"CV","q",1027,"cv","P","1","c","c",TRUE,1
"15","CVOE updated",1001,1,1,25,"E 19","","",FALSE,"CV","p",622,"cv","E","9","v","v",TRUE,1
"16","CVOE updated",1001,1,1,26,"I 30","","",TRUE,"CV","p",618,"cv","I","0","v","v",TRUE,1
"17","CVOE updated",1001,1,1,27,"D 91","","",TRUE,"CV","q",717,"cv","D","1","c","c",TRUE,1
"18","CVOE updated",1001,1,1,28,"O 48","","",TRUE,"CV","p",636,"cv","O","8","v","v",TRUE,1
"19","CVOE updated",1001,1,1,29,"A 89","","",FALSE,"CV","p",1127,"cv","A","9","v","v",TRUE,1
"20","CVOE updated",1001,1,1,30,"U 11","","",FALSE,"CV","p",886,"cv","U","1","v","v",TRUE,1
"21","CVOE updated",1001,1,1,31,"I 76","","",TRUE,"CV","p",726,"cv","I","6","v","v",TRUE,1
"22","CVOE updated",1001,1,1,32,"U 89","","",FALSE,"CV","p",669,"cv","U","9","v","v",TRUE,1
"23","CVOE updated",1001,1,1,33,"D 63","","",TRUE,"CV","q",758,"cv","D","3","c","c",TRUE,1
"24","CVOE updated",1001,1,1,34,"H 70","","",FALSE,"CV","q",1052,"cv","H","0","c","c",TRUE,1
"25","CVOE updated",1001,1,1,35,"D 48","","",FALSE,"CV","q",591,"cv","D","8","c","c",TRUE,1
"26","CVOE updated",1001,1,1,36,"P 56","","",FALSE,"CV","q",635,"cv","P","6","c","c",TRUE,1
"27","CVOE updated",1001,1,1,37,"O 77","","",FALSE,"CV","p",645,"cv","O","7","v","v",TRUE,1
"28","CVOE updated",1001,1,1,38,"P 42","","",FALSE,"CV","q",776,"cv","P","2","c","c",TRUE,1
"29","CVOE updated",1001,1,1,39,"H 22","","",FALSE,"CV","q",668,"cv","H","2","c","c",TRUE,1
"30","CVOE updated",1001,1,1,40,"E 42","","",TRUE,"CV","p",574,"cv","E","2","v","v",TRUE,1
"31","CVOE updated",1001,1,1,41,"J 28","","",FALSE,"CV","q",690,"cv","J","8","c","c",TRUE,1
"32","CVOE updated",1001,1,1,42,"E 95","","",FALSE,"CV","p",787,"cv","E","5","v","v",TRUE,1
"33","CVOE updated",1001,1,1,43,"S 63","","",TRUE,"CV","q",1031,"cv","S","3","c","c",TRUE,1
"34","CVOE updated",1001,1,1,44,"H 50","","",FALSE,"CV","q",602,"cv","H","0","c","c",TRUE,1
"35","CVOE updated",1001,1,1,45,"S 33","","",TRUE,"CV","q",646,"cv","S","3","c","c",TRUE,1
"36","CVOE updated",1001,1,1,46,"P 57","","",TRUE,"CV","q",632,"cv","P","7","c","c",TRUE,1
"37","CVOE updated",1001,1,1,47,"E 23","","",FALSE,"CV","p",699,"cv","E","3","v","v",TRUE,1
"38","CVOE updated",1001,1,1,48,"S 61","","",TRUE,"CV","q",763,"cv","S","1","c","c",TRUE,1
"39","CVOE updated",1001,1,1,49,"U 67","","",FALSE,"CV","p",560,"cv","U","7","v","v",TRUE,1
"40","CVOE updated",1001,1,1,50,"H 32","","",FALSE,"CV","q",685,"cv","H","2","c","c",TRUE,1
"41","CVOE updated",1001,1,1,51,"U 50","","",TRUE,"CV","p",502,"cv","U","0","v","v",TRUE,1
"42","CVOE updated",1001,1,1,52,"O 49","","",FALSE,"CV","p",630,"cv","O","9","v","v",TRUE,1
"43","CVOE updated",1001,1,1,53,"U 32","","",TRUE,"CV","p",609,"cv","U","2","v","v",TRUE,1
"44","CVOE updated",1001,1,1,54,"J 78","","",FALSE,"CV","q",716,"cv","J","8","c","c",TRUE,1
"45","CVOE updated",1001,1,1,55,"S 54","","",FALSE,"CV","q",635,"cv","S","4","c","c",TRUE,1
"46","CVOE updated",1001,1,1,56,"J 27","","",TRUE,"CV","q",566,"cv","J","7","c","c",TRUE,1
"47","CVOE updated",1001,1,1,57,"S 06","","",FALSE,"CV","q",635,"cv","S","6","c","c",TRUE,1
"48","CVOE updated",1001,1,1,58,"D 67","","",TRUE,"CV","q",766,"cv","D","7","c","c",TRUE,1
"49","CVOE updated",1001,1,1,59,"A 79","","",FALSE,"CV","p",771,"cv","A","9","v","v",TRUE,1
"50","CVOE updated",1001,1,1,60,"S 52","","",FALSE,"CV","q",768,"cv","S","2","c","c",TRUE,1
"51","CVOE updated",1001,1,1,61,"U 16","","",TRUE,"CV","p",702,"cv","U","6","v","v",TRUE,1
"52","CVOE updated",1001,1,1,62,"O 82","","",TRUE,"CV","p",590,"cv","O","2","v","v",TRUE,1
"53","CVOE updated",1001,1,1,63,"H 87","","",TRUE,"CV","q",722,"cv","H","7","c","c",TRUE,1
"54","CVOE updated",1001,1,1,64,"I 32","","",TRUE,"CV","p",1330,"cv","I","2","v","v",TRUE,1
"55","CVOE updated",1001,1,1,65,"U 37","","",FALSE,"CV","p",833,"cv","U","7","v","v",TRUE,1
"56","CVOE updated",1001,1,1,66,"I 42","","",TRUE,"CV","p",620,"cv","I","2","v","v",TRUE,1
"57","CVOE updated",1001,1,1,67,"D 65","","",TRUE,"CV","q",679,"cv","D","5","c","c",TRUE,1
"58","CVOE updated",1001,1,1,68,"U 77","","",FALSE,"CV","p",743,"cv","U","7","v","v",TRUE,1
"59","CVOE updated",1001,1,1,69,"E 12","","",TRUE,"CV","p",1326,"cv","E","2","v","v",TRUE,1
"60","CVOE updated",1001,1,1,70,"I 60","","",TRUE,"CV","p",565,"cv","I","0","v","v",TRUE,1
"61","CVOE updated",1001,1,1,71,"J 36","","",FALSE,"CV","q",698,"cv","J","6","c","c",TRUE,1
"62","CVOE updated",1001,1,1,72,"H 75","","",TRUE,"CV","q",778,"cv","H","5","c","c",TRUE,1
"63","CVOE updated",1001,1,1,73,"I 50","","",TRUE,"CV","p",742,"cv","I","0","v","v",TRUE,1
"64","CVOE updated",1001,1,1,74,"E 99","","",FALSE,"CV","p",725,"cv","E","9","v","v",TRUE,1
"65","CVOE updated",1001,1,1,75,"A 86","","",TRUE,"CV","p",1019,"cv","A","6","v","v",TRUE,1
"66","CVOE updated",1001,1,1,76,"U 48","","",TRUE,"CV","p",631,"cv","U","8","v","v",TRUE,1
"67","CVOE updated",1001,1,1,77,"E 01","","",FALSE,"CV","p",649,"cv","E","1","v","v",TRUE,1
"68","CVOE updated",1001,1,1,78,"A 78","","",TRUE,"CV","p",699,"cv","A","8","v","v",TRUE,1
"69","CVOE updated",1001,1,1,79,"P 60","","",FALSE,"CV","q",803,"cv","P","0","c","c",TRUE,1
"70","CVOE updated",1001,1,1,80,"E 43","","",FALSE,"CV","p",975,"cv","E","3","v","v",TRUE,1
"71","CVOE updated",1001,1,1,81,"D 69","","",TRUE,"CV","q",924,"cv","D","9","c","c",TRUE,1
"72","CVOE updated",1001,1,1,82,"H 11","","",TRUE,"CV","q",612,"cv","H","1","c","c",TRUE,1
"73","CVOE updated",1001,1,1,83,"P 43","","",TRUE,"CV","q",543,"cv","P","3","c","c",TRUE,1
"74","CVOE updated",1001,1,1,84,"O 67","","",FALSE,"CV","p",613,"cv","O","7","v","v",TRUE,1
"75","CVOE updated",1001,1,1,85,"S 91","","",FALSE,"CV","q",728,"cv","S","1","c","c",TRUE,1
"76","CVOE updated",1001,1,1,86,"J 68","","",TRUE,"CV","q",671,"cv","J","8","c","c",TRUE,1
"77","CVOE updated",1001,1,1,87,"S 47","","",FALSE,"CV","q",624,"cv","S","7","c","c",TRUE,1
"78","CVOE updated",1001,1,1,88,"I 81","","",TRUE,"CV","p",659,"cv","I","1","v","v",TRUE,1
"79","CVOE updated",1001,1,1,89,"J 39","","",FALSE,"CV","q",805,"cv","J","9","c","c",TRUE,1
"80","CVOE updated",1001,1,1,90,"A 11","","",TRUE,"CV","p",793,"cv","A","1","v","v",TRUE,1
"81","CVOE updated",1001,1,1,91,"O 76","","",FALSE,"CV","p",541,"cv","O","6","v","v",TRUE,1
"82","CVOE updated",1001,1,1,92,"A 62","","",FALSE,"CV","p",547,"cv","A","2","v","v",TRUE,1
"83","CVOE updated",1001,1,1,93,"O 27","","",TRUE,"CV","p",545,"cv","O","7","v","v",TRUE,1
"84","CVOE updated",1001,1,1,94,"E 66","","",FALSE,"CV","p",607,"cv","E","6","v","v",TRUE,1
"85","CVOE updated",1001,1,1,95,"J 62","","",TRUE,"CV","q",531,"cv","J","2","c","c",TRUE,1
"86","CVOE updated",1001,1,1,96,"H 72","","",TRUE,"CV","q",546,"cv","H","2","c","c",TRUE,1
"87","CVOE updated",1001,1,1,97,"E 49","","",TRUE,"CV","p",680,"cv","E","9","v","v",TRUE,1
"88","CVOE updated",1001,1,1,98,"D 52","","",TRUE,"CV","q",800,"cv","D","2","c","c",TRUE,1
"89","CVOE updated",1001,1,1,99,"H 62","","",TRUE,"CV","q",516,"cv","H","2","c","c",TRUE,1
"90","CVOE updated",1001,1,1,100,"I 11","","",TRUE,"CV","p",660,"cv","I","1","v","v",TRUE,1
"91","CVOE updated",1001,1,1,101,"A 98","","",FALSE,"CV","p",1221,"cv","A","8","v","v",TRUE,1
"92","CVOE updated",1001,1,1,102,"H 29","","",FALSE,"CV","q",776,"cv","H","9","c","c",TRUE,1
"93","CVOE updated",1001,1,1,103,"E 83","","",TRUE,"CV","p",773,"cv","E","3","v","v",TRUE,1
"94","CVOE updated",1001,1,1,104,"D 43","","",FALSE,"CV","q",627,"cv","D","3","c","c",TRUE,1
"95","CVOE updated",1001,1,1,105,"P 45","","",TRUE,"CV","q",1253,"cv","P","5","c","c",TRUE,1
"96","CVOE updated",1001,1,1,106,"J 17","","",TRUE,"CV","q",1015,"cv","J","7","c","c",TRUE,1
"529","CVOE_C",2003,1,2,11,"A 71","","",FALSE,"CV","p",30570,"cv","A","1","v","v",TRUE,1
"530","CVOE_C",2003,1,2,12,"I 66","","",TRUE,"CV","p",13367,"cv","I","6","v","v",TRUE,1
"531","CVOE_C",2003,1,2,13,"S 30","","",FALSE,"CV","q",8787,"cv","S","0","c","c",TRUE,1
"532","CVOE_C",2003,1,2,14,"D 20","","",FALSE,"CV","q",6059,"cv","D","0","c","c",TRUE,1
"533","CVOE_C",2003,1,2,15,"I 31","","",FALSE,"CV","p",7456,"cv","I","1","v","v",TRUE,1
"534","CVOE_C",2003,1,2,16,"P 16","","",FALSE,"CV","q",3365,"cv","P","6","c","c",TRUE,1
"535","CVOE_C",2003,1,2,17,"A 49","","",FALSE,"CV","p",4379,"cv","A","9","v","v",TRUE,1
"536","CVOE_C",2003,1,2,18,"O 64","","",TRUE,"CV","p",17482,"cv","O","4","v","v",TRUE,1
"537","CVOE_C",2003,1,2,19,"D 02","","",FALSE,"CV","q",4660,"cv","D","2","c","c",TRUE,1
"538","CVOE_C",2003,1,2,20,"P 81","","",TRUE,"CV","q",7495,"cv","P","1","c","c",TRUE,1
"539","CVOE_C",2003,1,2,21,"J 58","","",FALSE,"CV","q",1930,"cv","J","8","c","c",TRUE,1
"540","CVOE_C",2003,1,2,22,"A 22","","",TRUE,"CV","p",1737,"cv","A","2","v","v",TRUE,1
"541","CVOE_C",2003,1,2,23,"J 72","","",FALSE,"CV","q",1793,"cv","J","2","c","c",TRUE,1
"542","CVOE_C",2003,1,2,24,"P 91","","",TRUE,"CV","q",1853,"cv","P","1","c","c",TRUE,1
"543","CVOE_C",2003,1,2,25,"E 19","","",FALSE,"CV","p",4512,"cv","E","9","v","v",TRUE,1
"544","CVOE_C",2003,1,2,26,"I 30","","",TRUE,"CV","p",9577,"cv","I","0","v","v",TRUE,1
"545","CVOE_C",2003,1,2,27,"D 91","","",TRUE,"CV","q",1259,"cv","D","1","c","c",TRUE,1
"546","CVOE_C",2003,1,2,28,"O 48","","",TRUE,"CV","p",3972,"cv","O","8","v","v",TRUE,1
"547","CVOE_C",2003,1,2,29,"A 89","","",FALSE,"CV","p",1315,"cv","A","9","v","v",TRUE,1
"548","CVOE_C",2003,1,2,30,"U 11","","",FALSE,"CV","p",2275,"cv","U","1","v","v",TRUE,1
"549","CVOE_C",2003,1,2,31,"I 76","","",TRUE,"CV","p",6389,"cv","I","6","v","v",TRUE,1
"550","CVOE_C",2003,1,2,32,"U 89","","",FALSE,"CV","q",2796,"cv","U","9","v","c",FALSE,0
"551","CVOE_C",2003,1,2,33,"D 63","","",TRUE,"CV","q",2449,"cv","D","3","c","c",TRUE,1
"552","CVOE_C",2003,1,2,34,"H 70","","",FALSE,"CV","q",1572,"cv","H","0","c","c",TRUE,1
"553","CVOE_C",2003,1,2,35,"D 48","","",FALSE,"CV","q",1426,"cv","D","8","c","c",TRUE,1
"554","CVOE_C",2003,1,2,36,"P 56","","",FALSE,"CV","q",2693,"cv","P","6","c","c",TRUE,1
"555","CVOE_C",2003,1,2,37,"O 77","","",FALSE,"CV","p",2982,"cv","O","7","v","v",TRUE,1
"556","CVOE_C",2003,1,2,38,"P 42","","",FALSE,"CV","q",1972,"cv","P","2","c","c",TRUE,1
"557","CVOE_C",2003,1,2,39,"H 22","","",FALSE,"CV","q",11442,"cv","H","2","c","c",TRUE,1
"558","CVOE_C",2003,1,2,40,"E 42","","",TRUE,"CV","p",2898,"cv","E","2","v","v",TRUE,1
"559","CVOE_C",2003,1,2,41,"J 28","","",FALSE,"CV","q",3203,"cv","J","8","c","c",TRUE,1
"560","CVOE_C",2003,1,2,42,"E 95","","",FALSE,"CV","p",4152,"cv","E","5","v","v",TRUE,1
"561","CVOE_C",2003,1,2,43,"S 63","","",TRUE,"CV","q",1904,"cv","S","3","c","c",TRUE,1
"562","CVOE_C",2003,1,2,44,"H 50","","",FALSE,"CV","q",1361,"cv","H","0","c","c",TRUE,1
"563","CVOE_C",2003,1,2,45,"S 33","","",TRUE,"CV","q",1086,"cv","S","3","c","c",TRUE,1
"564","CVOE_C",2003,1,2,46,"P 57","","",TRUE,"CV","q",1287,"cv","P","7","c","c",TRUE,1
"565","CVOE_C",2003,1,2,47,"E 23","","",FALSE,"CV","p",2384,"cv","E","3","v","v",TRUE,1
"566","CVOE_C",2003,1,2,48,"S 61","","",TRUE,"CV","q",2086,"cv","S","1","c","c",TRUE,1
"567","CVOE_C",2003,1,2,49,"U 67","","",FALSE,"CV","p",2423,"cv","U","7","v","v",TRUE,1
"568","CVOE_C",2003,1,2,50,"H 32","","",FALSE,"CV","q",2699,"cv","H","2","c","c",TRUE,1
"569","CVOE_C",2003,1,2,51,"U 50","","",TRUE,"CV","q",1813,"cv","U","0","v","c",FALSE,0
"570","CVOE_C",2003,1,2,52,"O 49","","",FALSE,"CV","p",5305,"cv","O","9","v","v",TRUE,1
"571","CVOE_C",2003,1,2,53,"U 32","","",TRUE,"CV","p",10707,"cv","U","2","v","v",TRUE,1
"572","CVOE_C",2003,1,2,54,"J 78","","",FALSE,"CV","q",1864,"cv","J","8","c","c",TRUE,1
"573","CVOE_C",2003,1,2,55,"S 54","","",FALSE,"CV","q",1978,"cv","S","4","c","c",TRUE,1
"574","CVOE_C",2003,1,2,56,"J 27","","",TRUE,"CV","q",1615,"cv","J","7","c","c",TRUE,1
"575","CVOE_C",2003,1,2,57,"S 06","","",FALSE,"CV","q",1483,"cv","S","6","c","c",TRUE,1
"576","CVOE_C",2003,1,2,58,"D 67","","",TRUE,"CV","q",1660,"cv","D","7","c","c",TRUE,1
"577","CVOE_C",2003,1,2,59,"A 79","","",FALSE,"CV","p",1798,"cv","A","9","v","v",TRUE,1
"578","CVOE_C",2003,1,2,60,"S 52","","",FALSE,"CV","q",1283,"cv","S","2","c","c",TRUE,1
"579","CVOE_C",2003,1,2,61,"U 16","","",TRUE,"CV","q",1883,"cv","U","6","v","c",FALSE,0
"580","CVOE_C",2003,1,2,62,"O 82","","",TRUE,"CV","p",2933,"cv","O","2","v","v",TRUE,1
"581","CVOE_C",2003,1,2,63,"H 87","","",TRUE,"CV","q",1741,"cv","H","7","c","c",TRUE,1
"582","CVOE_C",2003,1,2,64,"I 32","","",TRUE,"CV","p",7972,"cv","I","2","v","v",TRUE,1
"583","CVOE_C",2003,1,2,65,"U 37","","",FALSE,"CV","q",2141,"cv","U","7","v","c",FALSE,0
"584","CVOE_C",2003,1,2,66,"I 42","","",TRUE,"CV","p",2524,"cv","I","2","v","v",TRUE,1
"585","CVOE_C",2003,1,2,67,"D 65","","",TRUE,"CV","q",3244,"cv","D","5","c","c",TRUE,1
"586","CVOE_C",2003,1,2,68,"U 77","","",FALSE,"CV","p",2288,"cv","U","7","v","v",TRUE,1
"587","CVOE_C",2003,1,2,69,"E 12","","",TRUE,"CV","q",11065,"cv","E","2","v","c",FALSE,0
"588","CVOE_C",2003,1,2,70,"I 60","","",TRUE,"CV","p",7080,"cv","I","0","v","v",TRUE,1
"589","CVOE_C",2003,1,2,71,"J 36","","",FALSE,"CV","q",2132,"cv","J","6","c","c",TRUE,1
"590","CVOE_C",2003,1,2,72,"H 75","","",TRUE,"CV","q",1979,"cv","H","5","c","c",TRUE,1
"591","CVOE_C",2003,1,2,73,"I 50","","",TRUE,"CV","p",2232,"cv","I","0","v","v",TRUE,1
"592","CVOE_C",2003,1,2,74,"E 99","","",FALSE,"CV","p",6068,"cv","E","9","v","v",TRUE,1
"593","CVOE_C",2003,1,2,75,"A 86","","",TRUE,"CV","p",2272,"cv","A","6","v","v",TRUE,1
"594","CVOE_C",2003,1,2,76,"U 48","","",TRUE,"CV","p",3234,"cv","U","8","v","v",TRUE,1
"595","CVOE_C",2003,1,2,77,"E 01","","",FALSE,"CV","p",6230,"cv","E","1","v","v",TRUE,1
"596","CVOE_C",2003,1,2,78,"A 78","","",TRUE,"CV","p",2644,"cv","A","8","v","v",TRUE,1
"597","CVOE_C",2003,1,2,79,"P 60","","",FALSE,"CV","q",4191,"cv","P","0","c","c",TRUE,1
"598","CVOE_C",2003,1,2,80,"E 43","","",FALSE,"CV","p",4877,"cv","E","3","v","v",TRUE,1
"599","CVOE_C",2003,1,2,81,"D 69","","",TRUE,"CV","q",3680,"cv","D","9","c","c",TRUE,1
"600","CVOE_C",2003,1,2,82,"H 11","","",TRUE,"CV","q",1386,"cv","H","1","c","c",TRUE,1
"601","CVOE_C",2003,1,2,83,"P 43","","",TRUE,"CV","q",1351,"cv","P","3","c","c",TRUE,1
"602","CVOE_C",2003,1,2,84,"O 67","","",FALSE,"CV","p",3565,"cv","O","7","v","v",TRUE,1
"603","CVOE_C",2003,1,2,85,"S 91","","",FALSE,"CV","q",1756,"cv","S","1","c","c",TRUE,1
"604","CVOE_C",2003,1,2,86,"J 68","","",TRUE,"CV","q",1259,"cv","J","8","c","c",TRUE,1
"605","CVOE_C",2003,1,2,87,"S 47","","",FALSE,"CV","q",1452,"cv","S","7","c","c",TRUE,1
"606","CVOE_C",2003,1,2,88,"I 81","","",TRUE,"CV","p",2511,"cv","I","1","v","v",TRUE,1
"607","CVOE_C",2003,1,2,89,"J 39","","",FALSE,"CV","q",2263,"cv","J","9","c","c",TRUE,1
"608","CVOE_C",2003,1,2,90,"A 11","","",TRUE,"CV","p",3945,"cv","A","1","v","v",TRUE,1
"609","CVOE_C",2003,1,2,91,"O 76","","",FALSE,"CV","p",3041,"cv","O","6","v","v",TRUE,1
"610","CVOE_C",2003,1,2,92,"A 62","","",FALSE,"CV","p",4052,"cv","A","2","v","v",TRUE,1
"611","CVOE_C",2003,1,2,93,"O 27","","",TRUE,"CV","p",5488,"cv","O","7","v","v",TRUE,1
"612","CVOE_C",2003,1,2,94,"E 66","","",FALSE,"CV","p",4084,"cv","E","6","v","v",TRUE,1
"613","CVOE_C",2003,1,2,95,"J 62","","",TRUE,"CV","q",1814,"cv","J","2","c","c",TRUE,1
"614","CVOE_C",2003,1,2,96,"H 72","","",TRUE,"CV","q",1730,"cv","H","2","c","c",TRUE,1
"615","CVOE_C",2003,1,2,97,"E 49","","",TRUE,"CV","p",2281,"cv","E","9","v","v",TRUE,1
"616","CVOE_C",2003,1,2,98,"D 52","","",TRUE,"CV","q",1955,"cv","D","2","c","c",TRUE,1
"617","CVOE_C",2003,1,2,99,"H 62","","",TRUE,"CV","q",1697,"cv","H","2","c","c",TRUE,1
"618","CVOE_C",2003,1,2,100,"I 11","","",TRUE,"CV","p",2418,"cv","I","1","v","v",TRUE,1
"619","CVOE_C",2003,1,2,101,"A 98","","",FALSE,"CV","p",2798,"cv","A","8","v","v",TRUE,1
"620","CVOE_C",2003,1,2,102,"H 29","","",FALSE,"CV","q",4971,"cv","H","9","c","c",TRUE,1
"621","CVOE_C",2003,1,2,103,"E 83","","",TRUE,"CV","p",3643,"cv","E","3","v","v",TRUE,1
"622","CVOE_C",2003,1,2,104,"D 43","","",FALSE,"CV","q",2207,"cv","D","3","c","c",TRUE,1
"623","CVOE_C",2003,1,2,105,"P 45","","",TRUE,"CV","q",1323,"cv","P","5","c","c",TRUE,1
"624","CVOE_C",2003,1,2,106,"J 17","","",TRUE,"CV","q",1619,"cv","J","7","c","c",TRUE,1
"865","CVOE updated",2001,1,1,11,"A 71","","",FALSE,"CV","p",4796,"cv","A","1","v","v",TRUE,1
"866","CVOE updated",2001,1,1,12,"I 66","","",TRUE,"CV","p",1007,"cv","I","6","v","v",TRUE,1
"867","CVOE updated",2001,1,1,13,"S 30","","",FALSE,"CV","q",1346,"cv","S","0","c","c",TRUE,1
"868","CVOE updated",2001,1,1,14,"D 20","","",FALSE,"CV","q",1432,"cv","D","0","c","c",TRUE,1
"869","CVOE updated",2001,1,1,15,"I 31","","",FALSE,"CV","p",1395,"cv","I","1","v","v",TRUE,1
"870","CVOE updated",2001,1,1,16,"P 16","","",FALSE,"CV","q",1118,"cv","P","6","c","c",TRUE,1
"871","CVOE updated",2001,1,1,17,"A 49","","",FALSE,"CV","p",1321,"cv","A","9","v","v",TRUE,1
"872","CVOE updated",2001,1,1,18,"O 64","","",TRUE,"CV","p",1105,"cv","O","4","v","v",TRUE,1
"873","CVOE updated",2001,1,1,19,"D 02","","",FALSE,"CV","q",932,"cv","D","2","c","c",TRUE,1
"874","CVOE updated",2001,1,1,20,"P 81","","",TRUE,"CV","q",1202,"cv","P","1","c","c",TRUE,1
"875","CVOE updated",2001,1,1,21,"J 58","","",FALSE,"CV","q",1125,"cv","J","8","c","c",TRUE,1
"876","CVOE updated",2001,1,1,22,"A 22","","",TRUE,"CV","p",1484,"cv","A","2","v","v",TRUE,1
"877","CVOE updated",2001,1,1,23,"J 72","","",FALSE,"CV","q",2416,"cv","J","2","c","c",TRUE,1
"878","CVOE updated",2001,1,1,24,"P 91","","",TRUE,"CV","q",1316,"cv","P","1","c","c",TRUE,1
"879","CVOE updated",2001,1,1,25,"E 19","","",FALSE,"CV","p",1122,"cv","E","9","v","v",TRUE,1
"880","CVOE updated",2001,1,1,26,"I 30","","",TRUE,"CV","p",1207,"cv","I","0","v","v",TRUE,1
"881","CVOE updated",2001,1,1,27,"D 91","","",TRUE,"CV","q",974,"cv","D","1","c","c",TRUE,1
"882","CVOE updated",2001,1,1,28,"O 48","","",TRUE,"CV","p",1406,"cv","O","8","v","v",TRUE,1
"883","CVOE updated",2001,1,1,29,"A 89","","",FALSE,"CV","p",1363,"cv","A","9","v","v",TRUE,1
"884","CVOE updated",2001,1,1,30,"U 11","","",FALSE,"CV","p",1158,"cv","U","1","v","v",TRUE,1
"885","CVOE updated",2001,1,1,31,"I 76","","",TRUE,"CV","p",1014,"cv","I","6","v","v",TRUE,1
"886","CVOE updated",2001,1,1,32,"U 89","","",FALSE,"CV","p",768,"cv","U","9","v","v",TRUE,1
"887","CVOE updated",2001,1,1,33,"D 63","","",TRUE,"CV","q",948,"cv","D","3","c","c",TRUE,1
"888","CVOE updated",2001,1,1,34,"H 70","","",FALSE,"CV","q",967,"cv","H","0","c","c",TRUE,1
"889","CVOE updated",2001,1,1,35,"D 48","","",FALSE,"CV","q",1163,"cv","D","8","c","c",TRUE,1
"890","CVOE updated",2001,1,1,36,"P 56","","",FALSE,"CV","q",1590,"cv","P","6","c","c",TRUE,1
"891","CVOE updated",2001,1,1,37,"O 77","","",FALSE,"CV","p",972,"cv","O","7","v","v",TRUE,1
"892","CVOE updated",2001,1,1,38,"P 42","","",FALSE,"CV","q",1130,"cv","P","2","c","c",TRUE,1
"893","CVOE updated",2001,1,1,39,"H 22","","",FALSE,"CV","q",1120,"cv","H","2","c","c",TRUE,1
"894","CVOE updated",2001,1,1,40,"E 42","","",TRUE,"CV","p",1126,"cv","E","2","v","v",TRUE,1
"895","CVOE updated",2001,1,1,41,"J 28","","",FALSE,"CV","q",1312,"cv","J","8","c","c",TRUE,1
"896","CVOE updated",2001,1,1,42,"E 95","","",FALSE,"CV","p",1354,"cv","E","5","v","v",TRUE,1
"897","CVOE updated",2001,1,1,43,"S 63","","",TRUE,"CV","q",969,"cv","S","3","c","c",TRUE,1
"898","CVOE updated",2001,1,1,44,"H 50","","",FALSE,"CV","q",1009,"cv","H","0","c","c",TRUE,1
"899","CVOE updated",2001,1,1,45,"S 33","","",TRUE,"CV","q",1155,"cv","S","3","c","c",TRUE,1
"900","CVOE updated",2001,1,1,46,"P 57","","",TRUE,"CV","q",1247,"cv","P","7","c","c",TRUE,1
"901","CVOE updated",2001,1,1,47,"E 23","","",FALSE,"CV","p",1002,"cv","E","3","v","v",TRUE,1
"902","CVOE updated",2001,1,1,48,"S 61","","",TRUE,"CV","q",929,"cv","S","1","c","c",TRUE,1
"903","CVOE updated",2001,1,1,49,"U 67","","",FALSE,"CV","p",1199,"cv","U","7","v","v",TRUE,1
"904","CVOE updated",2001,1,1,50,"H 32","","",FALSE,"CV","q",848,"cv","H","2","c","c",TRUE,1
"905","CVOE updated",2001,1,1,51,"U 50","","",TRUE,"CV","p",1083,"cv","U","0","v","v",TRUE,1
"906","CVOE updated",2001,1,1,52,"O 49","","",FALSE,"CV","p",967,"cv","O","9","v","v",TRUE,1
"907","CVOE updated",2001,1,1,53,"U 32","","",TRUE,"CV","p",889,"cv","U","2","v","v",TRUE,1
"908","CVOE updated",2001,1,1,54,"J 78","","",FALSE,"CV","q",1639,"cv","J","8","c","c",TRUE,1
"909","CVOE updated",2001,1,1,55,"S 54","","",FALSE,"CV","p",1284,"cv","S","4","c","v",FALSE,0
"910","CVOE updated",2001,1,1,56,"J 27","","",TRUE,"CV","q",4611,"cv","J","7","c","c",TRUE,1
"911","CVOE updated",2001,1,1,57,"S 06","","",FALSE,"CV","q",1201,"cv","S","6","c","c",TRUE,1
"912","CVOE updated",2001,1,1,58,"D 67","","",TRUE,"CV","q",969,"cv","D","7","c","c",TRUE,1
"913","CVOE updated",2001,1,1,59,"A 79","","",FALSE,"CV","p",1087,"cv","A","9","v","v",TRUE,1
"914","CVOE updated",2001,1,1,60,"S 52","","",FALSE,"CV","q",853,"cv","S","2","c","c",TRUE,1
"915","CVOE updated",2001,1,1,61,"U 16","","",TRUE,"CV","p",1009,"cv","U","6","v","v",TRUE,1
"916","CVOE updated",2001,1,1,62,"O 82","","",TRUE,"CV","p",898,"cv","O","2","v","v",TRUE,1
"917","CVOE updated",2001,1,1,63,"H 87","","",TRUE,"CV","q",809,"cv","H","7","c","c",TRUE,1
"918","CVOE updated",2001,1,1,64,"I 32","","",TRUE,"CV","p",961,"cv","I","2","v","v",TRUE,1
"919","CVOE updated",2001,1,1,65,"U 37","","",FALSE,"CV","p",1157,"cv","U","7","v","v",TRUE,1
"920","CVOE updated",2001,1,1,66,"I 42","","",TRUE,"CV","p",895,"cv","I","2","v","v",TRUE,1
"921","CVOE updated",2001,1,1,67,"D 65","","",TRUE,"CV","p",1002,"cv","D","5","c","v",FALSE,0
"922","CVOE updated",2001,1,1,68,"U 77","","",FALSE,"CV","q",264,"cv","U","7","v","c",FALSE,0
"923","CVOE updated",2001,1,1,69,"E 12","","",TRUE,"CV","q",1358,"cv","E","2","v","c",FALSE,0
"924","CVOE updated",2001,1,1,70,"I 60","","",TRUE,"CV","p",1601,"cv","I","0","v","v",TRUE,1
"925","CVOE updated",2001,1,1,71,"J 36","","",FALSE,"CV","p",4726,"cv","J","6","c","v",FALSE,0
"926","CVOE updated",2001,1,1,72,"H 75","","",TRUE,"CV","q",1122,"cv","H","5","c","c",TRUE,1
"927","CVOE updated",2001,1,1,73,"I 50","","",TRUE,"CV","p",1051,"cv","I","0","v","v",TRUE,1
"928","CVOE updated",2001,1,1,74,"E 99","","",FALSE,"CV","p",1198,"cv","E","9","v","v",TRUE,1
"929","CVOE updated",2001,1,1,75,"A 86","","",TRUE,"CV","p",1160,"cv","A","6","v","v",TRUE,1
"930","CVOE updated",2001,1,1,76,"U 48","","",TRUE,"CV","p",921,"cv","U","8","v","v",TRUE,1
"931","CVOE updated",2001,1,1,77,"E 01","","",FALSE,"CV","p",1207,"cv","E","1","v","v",TRUE,1
"932","CVOE updated",2001,1,1,78,"A 78","","",TRUE,"CV","p",777,"cv","A","8","v","v",TRUE,1
"933","CVOE updated",2001,1,1,79,"P 60","","",FALSE,"CV","q",1041,"cv","P","0","c","c",TRUE,1
"934","CVOE updated",2001,1,1,80,"E 43","","",FALSE,"CV","p",974,"cv","E","3","v","v",TRUE,1
"935","CVOE updated",2001,1,1,81,"D 69","","",TRUE,"CV","q",1036,"cv","D","9","c","c",TRUE,1
"936","CVOE updated",2001,1,1,82,"H 11","","",TRUE,"CV","q",1010,"cv","H","1","c","c",TRUE,1
"937","CVOE updated",2001,1,1,83,"P 43","","",TRUE,"CV","q",960,"cv","P","3","c","c",TRUE,1
"938","CVOE updated",2001,1,1,84,"O 67","","",FALSE,"CV","p",843,"cv","O","7","v","v",TRUE,1
"939","CVOE updated",2001,1,1,85,"S 91","","",FALSE,"CV","q",806,"cv","S","1","c","c",TRUE,1
"940","CVOE updated",2001,1,1,86,"J 68","","",TRUE,"CV","q",1520,"cv","J","8","c","c",TRUE,1
"941","CVOE updated",2001,1,1,87,"S 47","","",FALSE,"CV","q",1008,"cv","S","7","c","c",TRUE,1
"942","CVOE updated",2001,1,1,88,"I 81","","",TRUE,"CV","p",998,"cv","I","1","v","v",TRUE,1
"943","CVOE updated",2001,1,1,89,"J 39","","",FALSE,"CV","q",1553,"cv","J","9","c","c",TRUE,1
"944","CVOE updated",2001,1,1,90,"A 11","","",TRUE,"CV","p",1142,"cv","A","1","v","v",TRUE,1
"945","CVOE updated",2001,1,1,91,"O 76","","",FALSE,"CV","p",1076,"cv","O","6","v","v",TRUE,1
"946","CVOE updated",2001,1,1,92,"A 62","","",FALSE,"CV","p",999,"cv","A","2","v","v",TRUE,1
"947","CVOE updated",2001,1,1,93,"O 27","","",TRUE,"CV","p",809,"cv","O","7","v","v",TRUE,1
"948","CVOE updated",2001,1,1,94,"E 66","","",FALSE,"CV","p",1196,"cv","E","6","v","v",TRUE,1
"949","CVOE updated",2001,1,1,95,"J 62","","",TRUE,"CV","q",1197,"cv","J","2","c","c",TRUE,1
"950","CVOE updated",2001,1,1,96,"H 72","","",TRUE,"CV","q",1238,"cv","H","2","c","c",TRUE,1
"951","CVOE updated",2001,1,1,97,"E 49","","",TRUE,"CV","p",932,"cv","E","9","v","v",TRUE,1
"952","CVOE updated",2001,1,1,98,"D 52","","",TRUE,"CV","q",887,"cv","D","2","c","c",TRUE,1
"953","CVOE updated",2001,1,1,99,"H 62","","",TRUE,"CV","q",1050,"cv","H","2","c","c",TRUE,1
"954","CVOE updated",2001,1,1,100,"I 11","","",TRUE,"CV","p",928,"cv","I","1","v","v",TRUE,1
"955","CVOE updated",2001,1,1,101,"A 98","","",FALSE,"CV","p",1079,"cv","A","8","v","v",TRUE,1
"956","CVOE updated",2001,1,1,102,"H 29","","",FALSE,"CV","q",1119,"cv","H","9","c","c",TRUE,1
"957","CVOE updated",2001,1,1,103,"E 83","","",TRUE,"CV","p",1244,"cv","E","3","v","v",TRUE,1
"958","CVOE updated",2001,1,1,104,"D 43","","",FALSE,"CV","q",843,"cv","D","3","c","c",TRUE,1
"959","CVOE updated",2001,1,1,105,"P 45","","",TRUE,"CV","p",1039,"cv","P","5","c","v",FALSE,0
"960","CVOE updated",2001,1,1,106,"J 17","","",TRUE,"CV","q",2383,"cv","J","7","c","c",TRUE,1
"1393","CVOE_B",1002,1,2,11,"A 71","","",FALSE,"CV","p",4490,"cv","A","1","v","v",TRUE,1
"1394","CVOE_B",1002,1,2,12,"I 66","","",TRUE,"CV","p",1197,"cv","I","6","v","v",TRUE,1
"1395","CVOE_B",1002,1,2,13,"S 30","","",FALSE,"CV","q",1276,"cv","S","0","c","c",TRUE,1
"1396","CVOE_B",1002,1,2,14,"D 20","","",FALSE,"CV","q",1076,"cv","D","0","c","c",TRUE,1
"1397","CVOE_B",1002,1,2,15,"I 31","","",FALSE,"CV","p",921,"cv","I","1","v","v",TRUE,1
"1398","CVOE_B",1002,1,2,16,"P 16","","",FALSE,"CV","q",931,"cv","P","6","c","c",TRUE,1
"1399","CVOE_B",1002,1,2,17,"A 49","","",FALSE,"CV","p",886,"cv","A","9","v","v",TRUE,1
"1400","CVOE_B",1002,1,2,18,"O 64","","",TRUE,"CV","p",734,"cv","O","4","v","v",TRUE,1
"1401","CVOE_B",1002,1,2,19,"D 02","","",FALSE,"CV","q",812,"cv","D","2","c","c",TRUE,1
"1402","CVOE_B",1002,1,2,20,"P 81","","",TRUE,"CV","q",1079,"cv","P","1","c","c",TRUE,1
"1403","CVOE_B",1002,1,2,21,"J 58","","",FALSE,"CV","q",1119,"cv","J","8","c","c",TRUE,1
"1404","CVOE_B",1002,1,2,22,"A 22","","",TRUE,"CV","p",928,"cv","A","2","v","v",TRUE,1
"1405","CVOE_B",1002,1,2,23,"J 72","","",FALSE,"CV","q",883,"cv","J","2","c","c",TRUE,1
"1406","CVOE_B",1002,1,2,24,"P 91","","",TRUE,"CV","q",966,"cv","P","1","c","c",TRUE,1
"1407","CVOE_B",1002,1,2,25,"E 19","","",FALSE,"CV","p",811,"cv","E","9","v","v",TRUE,1
"1408","CVOE_B",1002,1,2,26,"I 30","","",TRUE,"CV","p",883,"cv","I","0","v","v",TRUE,1
"1409","CVOE_B",1002,1,2,27,"D 91","","",TRUE,"CV","q",927,"cv","D","1","c","c",TRUE,1
"1410","CVOE_B",1002,1,2,28,"O 48","","",TRUE,"CV","p",726,"cv","O","8","v","v",TRUE,1
"1411","CVOE_B",1002,1,2,29,"A 89","","",FALSE,"CV","p",802,"cv","A","9","v","v",TRUE,1
"1412","CVOE_B",1002,1,2,30,"U 11","","",FALSE,"CV","q",773,"cv","U","1","v","c",FALSE,0
"1413","CVOE_B",1002,1,2,31,"I 76","","",TRUE,"CV","p",1857,"cv","I","6","v","v",TRUE,1
"1414","CVOE_B",1002,1,2,32,"U 89","","",FALSE,"CV","p",1167,"cv","U","9","v","v",TRUE,1
"1415","CVOE_B",1002,1,2,33,"D 63","","",TRUE,"CV","q",965,"cv","D","3","c","c",TRUE,1
"1416","CVOE_B",1002,1,2,34,"H 70","","",FALSE,"CV","q",1982,"cv","H","0","c","c",TRUE,1
"1417","CVOE_B",1002,1,2,35,"D 48","","",FALSE,"CV","q",1354,"cv","D","8","c","c",TRUE,1
"1418","CVOE_B",1002,1,2,36,"P 56","","",FALSE,"CV","q",891,"cv","P","6","c","c",TRUE,1
"1419","CVOE_B",1002,1,2,37,"O 77","","",FALSE,"CV","p",723,"cv","O","7","v","v",TRUE,1
"1420","CVOE_B",1002,1,2,38,"P 42","","",FALSE,"CV","q",660,"cv","P","2","c","c",TRUE,1
"1421","CVOE_B",1002,1,2,39,"H 22","","",FALSE,"CV","q",843,"cv","H","2","c","c",TRUE,1
"1422","CVOE_B",1002,1,2,40,"E 42","","",TRUE,"CV","p",725,"cv","E","2","v","v",TRUE,1
"1423","CVOE_B",1002,1,2,41,"J 28","","",FALSE,"CV","q",997,"cv","J","8","c","c",TRUE,1
"1424","CVOE_B",1002,1,2,42,"E 95","","",FALSE,"CV","p",690,"cv","E","5","v","v",TRUE,1
"1425","CVOE_B",1002,1,2,43,"S 63","","",TRUE,"CV","q",817,"cv","S","3","c","c",TRUE,1
"1426","CVOE_B",1002,1,2,44,"H 50","","",FALSE,"CV","q",889,"cv","H","0","c","c",TRUE,1
"1427","CVOE_B",1002,1,2,45,"S 33","","",TRUE,"CV","q",1285,"cv","S","3","c","c",TRUE,1
"1428","CVOE_B",1002,1,2,46,"P 57","","",TRUE,"CV","q",1632,"cv","P","7","c","c",TRUE,1
"1429","CVOE_B",1002,1,2,47,"E 23","","",FALSE,"CV","p",728,"cv","E","3","v","v",TRUE,1
"1430","CVOE_B",1002,1,2,48,"S 61","","",TRUE,"CV","q",649,"cv","S","1","c","c",TRUE,1
"1431","CVOE_B",1002,1,2,49,"U 67","","",FALSE,"CV","p",614,"cv","U","7","v","v",TRUE,1
"1432","CVOE_B",1002,1,2,50,"H 32","","",FALSE,"CV","q",690,"cv","H","2","c","c",TRUE,1
"1433","CVOE_B",1002,1,2,51,"U 50","","",TRUE,"CV","p",645,"cv","U","0","v","v",TRUE,1
"1434","CVOE_B",1002,1,2,52,"O 49","","",FALSE,"CV","p",766,"cv","O","9","v","v",TRUE,1
"1435","CVOE_B",1002,1,2,53,"U 32","","",TRUE,"CV","p",631,"cv","U","2","v","v",TRUE,1
"1436","CVOE_B",1002,1,2,54,"J 78","","",FALSE,"CV","q",848,"cv","J","8","c","c",TRUE,1
"1437","CVOE_B",1002,1,2,55,"S 54","","",FALSE,"CV","q",886,"cv","S","4","c","c",TRUE,1
"1438","CVOE_B",1002,1,2,56,"J 27","","",TRUE,"CV","q",1400,"cv","J","7","c","c",TRUE,1
"1439","CVOE_B",1002,1,2,57,"S 06","","",FALSE,"CV","q",651,"cv","S","6","c","c",TRUE,1
"1440","CVOE_B",1002,1,2,58,"D 67","","",TRUE,"CV","q",736,"cv","D","7","c","c",TRUE,1
"1441","CVOE_B",1002,1,2,59,"A 79","","",FALSE,"CV","p",735,"cv","A","9","v","v",TRUE,1
"1442","CVOE_B",1002,1,2,60,"S 52","","",FALSE,"CV","q",812,"cv","S","2","c","c",TRUE,1
"1443","CVOE_B",1002,1,2,61,"U 16","","",TRUE,"CV","p",649,"cv","U","6","v","v",TRUE,1
"1444","CVOE_B",1002,1,2,62,"O 82","","",TRUE,"CV","p",614,"cv","O","2","v","v",TRUE,1
"1445","CVOE_B",1002,1,2,63,"H 87","","",TRUE,"CV","q",730,"cv","H","7","c","c",TRUE,1
"1446","CVOE_B",1002,1,2,64,"I 32","","",TRUE,"CV","p",807,"cv","I","2","v","v",TRUE,1
"1447","CVOE_B",1002,1,2,65,"U 37","","",FALSE,"CV","p",762,"cv","U","7","v","v",TRUE,1
"1448","CVOE_B",1002,1,2,66,"I 42","","",TRUE,"CV","p",766,"cv","I","2","v","v",TRUE,1
"1449","CVOE_B",1002,1,2,67,"D 65","","",TRUE,"CV","q",693,"cv","D","5","c","c",TRUE,1
"1450","CVOE_B",1002,1,2,68,"U 77","","",FALSE,"CV","p",646,"cv","U","7","v","v",TRUE,1
"1451","CVOE_B",1002,1,2,69,"E 12","","",TRUE,"CV","p",611,"cv","E","2","v","v",TRUE,1
"1452","CVOE_B",1002,1,2,70,"I 60","","",TRUE,"CV","p",727,"cv","I","0","v","v",TRUE,1
"1453","CVOE_B",1002,1,2,71,"J 36","","",FALSE,"CV","q",687,"cv","J","6","c","c",TRUE,1
"1454","CVOE_B",1002,1,2,72,"H 75","","",TRUE,"CV","q",814,"cv","H","5","c","c",TRUE,1
"1455","CVOE_B",1002,1,2,73,"I 50","","",TRUE,"CV","p",769,"cv","I","0","v","v",TRUE,1
"1456","CVOE_B",1002,1,2,74,"E 99","","",FALSE,"CV","p",734,"cv","E","9","v","v",TRUE,1
"1457","CVOE_B",1002,1,2,75,"A 86","","",TRUE,"CV","p",772,"cv","A","6","v","v",TRUE,1
"1458","CVOE_B",1002,1,2,76,"U 48","","",TRUE,"CV","p",737,"cv","U","8","v","v",TRUE,1
"1459","CVOE_B",1002,1,2,77,"E 01","","",FALSE,"CV","p",737,"cv","E","1","v","v",TRUE,1
"1460","CVOE_B",1002,1,2,78,"A 78","","",TRUE,"CV","p",870,"cv","A","8","v","v",TRUE,1
"1461","CVOE_B",1002,1,2,79,"P 60","","",FALSE,"CV","q",1243,"cv","P","0","c","c",TRUE,1
"1462","CVOE_B",1002,1,2,80,"E 43","","",FALSE,"CV","p",763,"cv","E","3","v","v",TRUE,1
"1463","CVOE_B",1002,1,2,81,"D 69","","",TRUE,"CV","q",1003,"cv","D","9","c","c",TRUE,1
"1464","CVOE_B",1002,1,2,82,"H 11","","",TRUE,"CV","q",1126,"cv","H","1","c","c",TRUE,1
"1465","CVOE_B",1002,1,2,83,"P 43","","",TRUE,"CV","q",1075,"cv","P","3","c","c",TRUE,1
"1466","CVOE_B",1002,1,2,84,"O 67","","",FALSE,"CV","p",645,"cv","O","7","v","v",TRUE,1
"1467","CVOE_B",1002,1,2,85,"S 91","","",FALSE,"CV","q",649,"cv","S","1","c","c",TRUE,1
"1468","CVOE_B",1002,1,2,86,"J 68","","",TRUE,"CV","q",693,"cv","J","8","c","c",TRUE,1
"1469","CVOE_B",1002,1,2,87,"S 47","","",FALSE,"CV","q",724,"cv","S","7","c","c",TRUE,1
"1470","CVOE_B",1002,1,2,88,"I 81","","",TRUE,"CV","p",762,"cv","I","1","v","v",TRUE,1
"1471","CVOE_B",1002,1,2,89,"J 39","","",FALSE,"CV","q",649,"cv","J","9","c","c",TRUE,1
"1472","CVOE_B",1002,1,2,90,"A 11","","",TRUE,"CV","p",656,"cv","A","1","v","v",TRUE,1
"1473","CVOE_B",1002,1,2,91,"O 76","","",FALSE,"CV","p",560,"cv","O","6","v","v",TRUE,1
"1474","CVOE_B",1002,1,2,92,"A 62","","",FALSE,"CV","p",608,"cv","A","2","v","v",TRUE,1
"1475","CVOE_B",1002,1,2,93,"O 27","","",TRUE,"CV","p",920,"cv","O","7","v","v",TRUE,1
"1476","CVOE_B",1002,1,2,94,"E 66","","",FALSE,"CV","p",657,"cv","E","6","v","v",TRUE,1
"1477","CVOE_B",1002,1,2,95,"J 62","","",TRUE,"CV","q",762,"cv","J","2","c","c",TRUE,1
"1478","CVOE_B",1002,1,2,96,"H 72","","",TRUE,"CV","q",610,"cv","H","2","c","c",TRUE,1
"1479","CVOE_B",1002,1,2,97,"E 49","","",TRUE,"CV","p",726,"cv","E","9","v","v",TRUE,1
"1480","CVOE_B",1002,1,2,98,"D 52","","",TRUE,"CV","q",607,"cv","D","2","c","c",TRUE,1
"1481","CVOE_B",1002,1,2,99,"H 62","","",TRUE,"CV","q",722,"cv","H","2","c","c",TRUE,1
"1482","CVOE_B",1002,1,2,100,"I 11","","",TRUE,"CV","p",738,"cv","I","1","v","v",TRUE,1
"1483","CVOE_B",1002,1,2,101,"A 98","","",FALSE,"CV","p",620,"cv","A","8","v","v",TRUE,1
"1484","CVOE_B",1002,1,2,102,"H 29","","",FALSE,"CV","q",697,"cv","H","9","c","c",TRUE,1
"1485","CVOE_B",1002,1,2,103,"E 83","","",TRUE,"CV","p",689,"cv","E","3","v","v",TRUE,1
"1486","CVOE_B",1002,1,2,104,"D 43","","",FALSE,"CV","q",817,"cv","D","3","c","c",TRUE,1
"1487","CVOE_B",1002,1,2,105,"P 45","","",TRUE,"CV","q",654,"cv","P","5","c","c",TRUE,1
"1488","CVOE_B",1002,1,2,106,"J 17","","",TRUE,"CV","q",699,"cv","J","7","c","c",TRUE,1
"1825","CVOE_B",2002,1,2,11,"A 71","","",FALSE,"CV","p",5270,"cv","A","1","v","v",TRUE,1
"1826","CVOE_B",2002,1,2,12,"I 66","","",TRUE,"CV","p",1304,"cv","I","6","v","v",TRUE,1
"1827","CVOE_B",2002,1,2,13,"S 30","","",FALSE,"CV","q",891,"cv","S","0","c","c",TRUE,1
"1828","CVOE_B",2002,1,2,14,"D 20","","",FALSE,"CV","q",1271,"cv","D","0","c","c",TRUE,1
"1829","CVOE_B",2002,1,2,15,"I 31","","",FALSE,"CV","p",618,"cv","I","1","v","v",TRUE,1
"1830","CVOE_B",2002,1,2,16,"P 16","","",FALSE,"CV","q",655,"cv","P","6","c","c",TRUE,1
"1831","CVOE_B",2002,1,2,17,"A 49","","",FALSE,"CV","p",738,"cv","A","9","v","v",TRUE,1
"1832","CVOE_B",2002,1,2,18,"O 64","","",TRUE,"CV","p",698,"cv","O","4","v","v",TRUE,1
"1833","CVOE_B",2002,1,2,19,"D 02","","",FALSE,"CV","q",809,"cv","D","2","c","c",TRUE,1
"1834","CVOE_B",2002,1,2,20,"P 81","","",TRUE,"CV","p",608,"cv","P","1","c","v",FALSE,0
"1835","CVOE_B",2002,1,2,21,"J 58","","",FALSE,"CV","p",489,"cv","J","8","c","v",FALSE,0
"1836","CVOE_B",2002,1,2,22,"A 22","","",TRUE,"CV","q",543,"cv","A","2","v","c",FALSE,0
"1837","CVOE_B",2002,1,2,23,"J 72","","",FALSE,"CV","q",2409,"cv","J","2","c","c",TRUE,1
"1838","CVOE_B",2002,1,2,24,"P 91","","",TRUE,"CV","q",1519,"cv","P","1","c","c",TRUE,1
"1839","CVOE_B",2002,1,2,25,"E 19","","",FALSE,"CV","p",615,"cv","E","9","v","v",TRUE,1
"1840","CVOE_B",2002,1,2,26,"I 30","","",TRUE,"CV","p",1827,"cv","I","0","v","v",TRUE,1
"1841","CVOE_B",2002,1,2,27,"D 91","","",TRUE,"CV","q",801,"cv","D","1","c","c",TRUE,1
"1842","CVOE_B",2002,1,2,28,"O 48","","",TRUE,"CV","p",655,"cv","O","8","v","v",TRUE,1
"1843","CVOE_B",2002,1,2,29,"A 89","","",FALSE,"CV","p",816,"cv","A","9","v","v",TRUE,1
"1844","CVOE_B",2002,1,2,30,"U 11","","",FALSE,"CV","p",653,"cv","U","1","v","v",TRUE,1
"1845","CVOE_B",2002,1,2,31,"I 76","","",TRUE,"CV","p",597,"cv","I","6","v","v",TRUE,1
"1846","CVOE_B",2002,1,2,32,"U 89","","",FALSE,"CV","p",573,"cv","U","9","v","v",TRUE,1
"1847","CVOE_B",2002,1,2,33,"D 63","","",TRUE,"CV","q",974,"cv","D","3","c","c",TRUE,1
"1848","CVOE_B",2002,1,2,34,"H 70","","",FALSE,"CV","q",896,"cv","H","0","c","c",TRUE,1
"1849","CVOE_B",2002,1,2,35,"D 48","","",FALSE,"CV","q",571,"cv","D","8","c","c",TRUE,1
"1850","CVOE_B",2002,1,2,36,"P 56","","",FALSE,"CV","q",659,"cv","P","6","c","c",TRUE,1
"1851","CVOE_B",2002,1,2,37,"O 77","","",FALSE,"CV","p",610,"cv","O","7","v","v",TRUE,1
"1852","CVOE_B",2002,1,2,38,"P 42","","",FALSE,"CV","q",648,"cv","P","2","c","c",TRUE,1
"1853","CVOE_B",2002,1,2,39,"H 22","","",FALSE,"CV","q",535,"cv","H","2","c","c",TRUE,1
"1854","CVOE_B",2002,1,2,40,"E 42","","",TRUE,"CV","p",617,"cv","E","2","v","v",TRUE,1
"1855","CVOE_B",2002,1,2,41,"J 28","","",FALSE,"CV","q",537,"cv","J","8","c","c",TRUE,1
"1856","CVOE_B",2002,1,2,42,"E 95","","",FALSE,"CV","p",542,"cv","E","5","v","v",TRUE,1
"1857","CVOE_B",2002,1,2,43,"S 63","","",TRUE,"CV","q",820,"cv","S","3","c","c",TRUE,1
"1858","CVOE_B",2002,1,2,44,"H 50","","",FALSE,"CV","q",539,"cv","H","0","c","c",TRUE,1
"1859","CVOE_B",2002,1,2,45,"S 33","","",TRUE,"CV","q",487,"cv","S","3","c","c",TRUE,1
"1860","CVOE_B",2002,1,2,46,"P 57","","",TRUE,"CV","q",502,"cv","P","7","c","c",TRUE,1
"1861","CVOE_B",2002,1,2,47,"E 23","","",FALSE,"CV","p",540,"cv","E","3","v","v",TRUE,1
"1862","CVOE_B",2002,1,2,48,"S 61","","",TRUE,"CV","q",528,"cv","S","1","c","c",TRUE,1
"1863","CVOE_B",2002,1,2,49,"U 67","","",FALSE,"CV","p",649,"cv","U","7","v","v",TRUE,1
"1864","CVOE_B",2002,1,2,50,"H 32","","",FALSE,"CV","q",1045,"cv","H","2","c","c",TRUE,1
"1865","CVOE_B",2002,1,2,51,"U 50","","",TRUE,"CV","p",570,"cv","U","0","v","v",TRUE,1
"1866","CVOE_B",2002,1,2,52,"O 49","","",FALSE,"CV","p",596,"cv","O","9","v","v",TRUE,1
"1867","CVOE_B",2002,1,2,53,"U 32","","",TRUE,"CV","p",573,"cv","U","2","v","v",TRUE,1
"1868","CVOE_B",2002,1,2,54,"J 78","","",FALSE,"CV","q",700,"cv","J","8","c","c",TRUE,1
"1869","CVOE_B",2002,1,2,55,"S 54","","",FALSE,"CV","q",615,"cv","S","4","c","c",TRUE,1
"1870","CVOE_B",2002,1,2,56,"J 27","","",TRUE,"CV","q",614,"cv","J","7","c","c",TRUE,1
"1871","CVOE_B",2002,1,2,57,"S 06","","",FALSE,"CV","q",769,"cv","S","6","c","c",TRUE,1
"1872","CVOE_B",2002,1,2,58,"D 67","","",TRUE,"CV","q",1792,"cv","D","7","c","c",TRUE,1
"1873","CVOE_B",2002,1,2,59,"A 79","","",FALSE,"CV","p",464,"cv","A","9","v","v",TRUE,1
"1874","CVOE_B",2002,1,2,60,"S 52","","",FALSE,"CV","q",847,"cv","S","2","c","c",TRUE,1
"1875","CVOE_B",2002,1,2,61,"U 16","","",TRUE,"CV","p",456,"cv","U","6","v","v",TRUE,1
"1876","CVOE_B",2002,1,2,62,"O 82","","",TRUE,"CV","p",661,"cv","O","2","v","v",TRUE,1
"1877","CVOE_B",2002,1,2,63,"H 87","","",TRUE,"CV","q",1041,"cv","H","7","c","c",TRUE,1
"1878","CVOE_B",2002,1,2,64,"I 32","","",TRUE,"CV","p",584,"cv","I","2","v","v",TRUE,1
"1879","CVOE_B",2002,1,2,65,"U 37","","",FALSE,"CV","p",499,"cv","U","7","v","v",TRUE,1
"1880","CVOE_B",2002,1,2,66,"I 42","","",TRUE,"CV","p",458,"cv","I","2","v","v",TRUE,1
"1881","CVOE_B",2002,1,2,67,"D 65","","",TRUE,"CV","q",685,"cv","D","5","c","c",TRUE,1
"1882","CVOE_B",2002,1,2,68,"U 77","","",FALSE,"CV","p",422,"cv","U","7","v","v",TRUE,1
"1883","CVOE_B",2002,1,2,69,"E 12","","",TRUE,"CV","p",621,"cv","E","2","v","v",TRUE,1
"1884","CVOE_B",2002,1,2,70,"I 60","","",TRUE,"CV","p",502,"cv","I","0","v","v",TRUE,1
"1885","CVOE_B",2002,1,2,71,"J 36","","",FALSE,"CV","q",618,"cv","J","6","c","c",TRUE,1
"1886","CVOE_B",2002,1,2,72,"H 75","","",TRUE,"CV","p",460,"cv","H","5","c","v",FALSE,0
"1887","CVOE_B",2002,1,2,73,"I 50","","",TRUE,"CV","q",1235,"cv","I","0","v","c",FALSE,0
"1888","CVOE_B",2002,1,2,74,"E 99","","",FALSE,"CV","p",733,"cv","E","9","v","v",TRUE,1
"1889","CVOE_B",2002,1,2,75,"A 86","","",TRUE,"CV","p",967,"cv","A","6","v","v",TRUE,1
"1890","CVOE_B",2002,1,2,76,"U 48","","",TRUE,"CV","p",615,"cv","U","8","v","v",TRUE,1
"1891","CVOE_B",2002,1,2,77,"E 01","","",FALSE,"CV","p",748,"cv","E","1","v","v",TRUE,1
"1892","CVOE_B",2002,1,2,78,"A 78","","",TRUE,"CV","p",1200,"cv","A","8","v","v",TRUE,1
"1893","CVOE_B",2002,1,2,79,"P 60","","",FALSE,"CV","q",731,"cv","P","0","c","c",TRUE,1
"1894","CVOE_B",2002,1,2,80,"E 43","","",FALSE,"CV","p",574,"cv","E","3","v","v",TRUE,1
"1895","CVOE_B",2002,1,2,81,"D 69","","",TRUE,"CV","q",645,"cv","D","9","c","c",TRUE,1
"1896","CVOE_B",2002,1,2,82,"H 11","","",TRUE,"CV","q",571,"cv","H","1","c","c",TRUE,1
"1897","CVOE_B",2002,1,2,83,"P 43","","",TRUE,"CV","q",581,"cv","P","3","c","c",TRUE,1
"1898","CVOE_B",2002,1,2,84,"O 67","","",FALSE,"CV","p",652,"cv","O","7","v","v",TRUE,1
"1899","CVOE_B",2002,1,2,85,"S 91","","",FALSE,"CV","q",735,"cv","S","1","c","c",TRUE,1
"1900","CVOE_B",2002,1,2,86,"J 68","","",TRUE,"CV","q",852,"cv","J","8","c","c",TRUE,1
"1901","CVOE_B",2002,1,2,87,"S 47","","",FALSE,"CV","q",538,"cv","S","7","c","c",TRUE,1
"1902","CVOE_B",2002,1,2,88,"I 81","","",TRUE,"CV","p",581,"cv","I","1","v","v",TRUE,1
"1903","CVOE_B",2002,1,2,89,"J 39","","",FALSE,"CV","q",614,"cv","J","9","c","c",TRUE,1
"1904","CVOE_B",2002,1,2,90,"A 11","","",TRUE,"CV","p",612,"cv","A","1","v","v",TRUE,1
"1905","CVOE_B",2002,1,2,91,"O 76","","",FALSE,"CV","p",1276,"cv","O","6","v","v",TRUE,1
"1906","CVOE_B",2002,1,2,92,"A 62","","",FALSE,"CV","p",841,"cv","A","2","v","v",TRUE,1
"1907","CVOE_B",2002,1,2,93,"O 27","","",TRUE,"CV","p",527,"cv","O","7","v","v",TRUE,1
"1908","CVOE_B",2002,1,2,94,"E 66","","",FALSE,"CV","p",573,"cv","E","6","v","v",TRUE,1
"1909","CVOE_B",2002,1,2,95,"J 62","","",TRUE,"CV","q",854,"cv","J","2","c","c",TRUE,1
"1910","CVOE_B",2002,1,2,96,"H 72","","",TRUE,"CV","q",1206,"cv","H","2","c","c",TRUE,1
"1911","CVOE_B",2002,1,2,97,"E 49","","",TRUE,"CV","p",1324,"cv","E","9","v","v",TRUE,1
"1912","CVOE_B",2002,1,2,98,"D 52","","",TRUE,"CV","q",895,"cv","D","2","c","c",TRUE,1
"1913","CVOE_B",2002,1,2,99,"H 62","","",TRUE,"CV","q",805,"cv","H","2","c","c",TRUE,1
"1914","CVOE_B",2002,1,2,100,"I 11","","",TRUE,"CV","p",620,"cv","I","1","v","v",TRUE,1
"1915","CVOE_B",2002,1,2,101,"A 98","","",FALSE,"CV","p",736,"cv","A","8","v","v",TRUE,1
"1916","CVOE_B",2002,1,2,102,"H 29","","",FALSE,"CV","q",735,"cv","H","9","c","c",TRUE,1
"1917","CVOE_B",2002,1,2,103,"E 83","","",TRUE,"CV","q",1009,"cv","E","3","v","c",FALSE,0
"1918","CVOE_B",2002,1,2,104,"D 43","","",FALSE,"CV","p",998,"cv","D","3","c","v",FALSE,0
"1919","CVOE_B",2002,1,2,105,"P 45","","",TRUE,"CV","q",2646,"cv","P","5","c","c",TRUE,1
"1920","CVOE_B",2002,1,2,106,"J 17","","",TRUE,"CV","q",1315,"cv","J","7","c","c",TRUE,1
"2257","CVOE_C",1003,1,2,11,"A 71","","",FALSE,"CV","q",7567,"cv","A","1","v","c",FALSE,0
"2258","CVOE_C",1003,1,2,12,"I 66","","",TRUE,"CV","p",3313,"cv","I","6","v","v",TRUE,1
"2259","CVOE_C",1003,1,2,13,"S 30","","",FALSE,"CV","q",1991,"cv","S","0","c","c",TRUE,1
"2260","CVOE_C",1003,1,2,14,"D 20","","",FALSE,"CV","q",3828,"cv","D","0","c","c",TRUE,1
"2261","CVOE_C",1003,1,2,15,"I 31","","",FALSE,"CV","p",1479,"cv","I","1","v","v",TRUE,1
"2262","CVOE_C",1003,1,2,16,"P 16","","",FALSE,"CV","q",1039,"cv","P","6","c","c",TRUE,1
"2263","CVOE_C",1003,1,2,17,"A 49","","",FALSE,"CV","p",1795,"cv","A","9","v","v",TRUE,1
"2264","CVOE_C",1003,1,2,18,"O 64","","",TRUE,"CV","p",724,"cv","O","4","v","v",TRUE,1
"2265","CVOE_C",1003,1,2,19,"D 02","","",FALSE,"CV","q",801,"cv","D","2","c","c",TRUE,1
"2266","CVOE_C",1003,1,2,20,"P 81","","",TRUE,"CV","q",1086,"cv","P","1","c","c",TRUE,1
"2267","CVOE_C",1003,1,2,21,"J 58","","",FALSE,"CV","q",813,"cv","J","8","c","c",TRUE,1
"2268","CVOE_C",1003,1,2,22,"A 22","","",TRUE,"CV","p",650,"cv","A","2","v","v",TRUE,1
"2269","CVOE_C",1003,1,2,23,"J 72","","",FALSE,"CV","q",1320,"cv","J","2","c","c",TRUE,1
"2270","CVOE_C",1003,1,2,24,"P 91","","",TRUE,"CV","q",1087,"cv","P","1","c","c",TRUE,1
"2271","CVOE_C",1003,1,2,25,"E 19","","",FALSE,"CV","p",657,"cv","E","9","v","v",TRUE,1
"2272","CVOE_C",1003,1,2,26,"I 30","","",TRUE,"CV","p",857,"cv","I","0","v","v",TRUE,1
"2273","CVOE_C",1003,1,2,27,"D 91","","",TRUE,"CV","q",857,"cv","D","1","c","c",TRUE,1
"2274","CVOE_C",1003,1,2,28,"O 48","","",TRUE,"CV","p",856,"cv","O","8","v","v",TRUE,1
"2275","CVOE_C",1003,1,2,29,"A 89","","",FALSE,"CV","p",2774,"cv","A","9","v","v",TRUE,1
"2276","CVOE_C",1003,1,2,30,"U 11","","",FALSE,"CV","p",969,"cv","U","1","v","v",TRUE,1
"2277","CVOE_C",1003,1,2,31,"I 76","","",TRUE,"CV","p",1243,"cv","I","6","v","v",TRUE,1
"2278","CVOE_C",1003,1,2,32,"U 89","","",FALSE,"CV","p",1076,"cv","U","9","v","v",TRUE,1
"2279","CVOE_C",1003,1,2,33,"D 63","","",TRUE,"CV","q",959,"cv","D","3","c","c",TRUE,1
"2280","CVOE_C",1003,1,2,34,"H 70","","",FALSE,"CV","q",685,"cv","H","0","c","c",TRUE,1
"2281","CVOE_C",1003,1,2,35,"D 48","","",FALSE,"CV","q",618,"cv","D","8","c","c",TRUE,1
"2282","CVOE_C",1003,1,2,36,"P 56","","",FALSE,"CV","q",930,"cv","P","6","c","c",TRUE,1
"2283","CVOE_C",1003,1,2,37,"O 77","","",FALSE,"CV","p",1003,"cv","O","7","v","v",TRUE,1
"2284","CVOE_C",1003,1,2,38,"P 42","","",FALSE,"CV","q",1634,"cv","P","2","c","c",TRUE,1
"2285","CVOE_C",1003,1,2,39,"H 22","","",FALSE,"CV","q",813,"cv","H","2","c","c",TRUE,1
"2286","CVOE_C",1003,1,2,40,"E 42","","",TRUE,"CV","p",766,"cv","E","2","v","v",TRUE,1
"2287","CVOE_C",1003,1,2,41,"J 28","","",FALSE,"CV","q",849,"cv","J","8","c","c",TRUE,1
"2288","CVOE_C",1003,1,2,42,"E 95","","",FALSE,"CV","p",653,"cv","E","5","v","v",TRUE,1
"2289","CVOE_C",1003,1,2,43,"S 63","","",TRUE,"CV","q",932,"cv","S","3","c","c",TRUE,1
"2290","CVOE_C",1003,1,2,44,"H 50","","",FALSE,"CV","q",653,"cv","H","0","c","c",TRUE,1
"2291","CVOE_C",1003,1,2,45,"S 33","","",TRUE,"CV","q",501,"cv","S","3","c","c",TRUE,1
"2292","CVOE_C",1003,1,2,46,"P 57","","",TRUE,"CV","q",577,"cv","P","7","c","c",TRUE,1
"2293","CVOE_C",1003,1,2,47,"E 23","","",FALSE,"CV","p",688,"cv","E","3","v","v",TRUE,1
"2294","CVOE_C",1003,1,2,48,"S 61","","",TRUE,"CV","q",581,"cv","S","1","c","c",TRUE,1
"2295","CVOE_C",1003,1,2,49,"U 67","","",FALSE,"CV","p",848,"cv","U","7","v","v",TRUE,1
"2296","CVOE_C",1003,1,2,50,"H 32","","",FALSE,"CV","q",772,"cv","H","2","c","c",TRUE,1
"2297","CVOE_C",1003,1,2,51,"U 50","","",TRUE,"CV","p",699,"cv","U","0","v","v",TRUE,1
"2298","CVOE_C",1003,1,2,52,"O 49","","",FALSE,"CV","p",770,"cv","O","9","v","v",TRUE,1
"2299","CVOE_C",1003,1,2,53,"U 32","","",TRUE,"CV","p",853,"cv","U","2","v","v",TRUE,1
"2300","CVOE_C",1003,1,2,54,"J 78","","",FALSE,"CV","q",735,"cv","J","8","c","c",TRUE,1
"2301","CVOE_C",1003,1,2,55,"S 54","","",FALSE,"CV","q",1949,"cv","S","4","c","c",TRUE,1
"2302","CVOE_C",1003,1,2,56,"J 27","","",TRUE,"CV","q",688,"cv","J","7","c","c",TRUE,1
"2303","CVOE_C",1003,1,2,57,"S 06","","",FALSE,"CV","q",662,"cv","S","6","c","c",TRUE,1
"2304","CVOE_C",1003,1,2,58,"D 67","","",TRUE,"CV","q",963,"cv","D","7","c","c",TRUE,1
"2305","CVOE_C",1003,1,2,59,"A 79","","",FALSE,"CV","p",610,"cv","A","9","v","v",TRUE,1
"2306","CVOE_C",1003,1,2,60,"S 52","","",FALSE,"CV","q",648,"cv","S","2","c","c",TRUE,1
"2307","CVOE_C",1003,1,2,61,"U 16","","",TRUE,"CV","p",731,"cv","U","6","v","v",TRUE,1
"2308","CVOE_C",1003,1,2,62,"O 82","","",TRUE,"CV","p",730,"cv","O","2","v","v",TRUE,1
"2309","CVOE_C",1003,1,2,63,"H 87","","",TRUE,"CV","q",809,"cv","H","7","c","c",TRUE,1
"2310","CVOE_C",1003,1,2,64,"I 32","","",TRUE,"CV","q",1193,"cv","I","2","v","c",FALSE,0
"2311","CVOE_C",1003,1,2,65,"U 37","","",FALSE,"CV","p",920,"cv","U","7","v","v",TRUE,1
"2312","CVOE_C",1003,1,2,66,"I 42","","",TRUE,"CV","p",736,"cv","I","2","v","v",TRUE,1
"2313","CVOE_C",1003,1,2,67,"D 65","","",TRUE,"CV","q",1323,"cv","D","5","c","c",TRUE,1
"2314","CVOE_C",1003,1,2,68,"U 77","","",FALSE,"CV","p",1167,"cv","U","7","v","v",TRUE,1
"2315","CVOE_C",1003,1,2,69,"E 12","","",TRUE,"CV","p",811,"cv","E","2","v","v",TRUE,1
"2316","CVOE_C",1003,1,2,70,"I 60","","",TRUE,"CV","p",687,"cv","I","0","v","v",TRUE,1
"2317","CVOE_C",1003,1,2,71,"J 36","","",FALSE,"CV","q",698,"cv","J","6","c","c",TRUE,1
"2318","CVOE_C",1003,1,2,72,"H 75","","",TRUE,"CV","q",1121,"cv","H","5","c","c",TRUE,1
"2319","CVOE_C",1003,1,2,73,"I 50","","",TRUE,"CV","p",619,"cv","I","0","v","v",TRUE,1
"2320","CVOE_C",1003,1,2,74,"E 99","","",FALSE,"CV","p",635,"cv","E","9","v","v",TRUE,1
"2321","CVOE_C",1003,1,2,75,"A 86","","",TRUE,"CV","q",1205,"cv","A","6","v","c",FALSE,0
"2322","CVOE_C",1003,1,2,76,"U 48","","",TRUE,"CV","p",1832,"cv","U","8","v","v",TRUE,1
"2323","CVOE_C",1003,1,2,77,"E 01","","",FALSE,"CV","p",902,"cv","E","1","v","v",TRUE,1
"2324","CVOE_C",1003,1,2,78,"A 78","","",TRUE,"CV","p",2026,"cv","A","8","v","v",TRUE,1
"2325","CVOE_C",1003,1,2,79,"P 60","","",FALSE,"CV","q",1247,"cv","P","0","c","c",TRUE,1
"2326","CVOE_C",1003,1,2,80,"E 43","","",FALSE,"CV","p",1511,"cv","E","3","v","v",TRUE,1
"2327","CVOE_C",1003,1,2,81,"D 69","","",TRUE,"CV","q",959,"cv","D","9","c","c",TRUE,1
"2328","CVOE_C",1003,1,2,82,"H 11","","",TRUE,"CV","q",686,"cv","H","1","c","c",TRUE,1
"2329","CVOE_C",1003,1,2,83,"P 43","","",TRUE,"CV","q",1126,"cv","P","3","c","c",TRUE,1
"2330","CVOE_C",1003,1,2,84,"O 67","","",FALSE,"CV","p",646,"cv","O","7","v","v",TRUE,1
"2331","CVOE_C",1003,1,2,85,"S 91","","",FALSE,"CV","q",729,"cv","S","1","c","c",TRUE,1
"2332","CVOE_C",1003,1,2,86,"J 68","","",TRUE,"CV","q",1394,"cv","J","8","c","c",TRUE,1
"2333","CVOE_C",1003,1,2,87,"S 47","","",FALSE,"CV","q",646,"cv","S","7","c","c",TRUE,1
"2334","CVOE_C",1003,1,2,88,"I 81","","",TRUE,"CV","q",533,"cv","I","1","v","c",FALSE,0
"2335","CVOE_C",1003,1,2,89,"J 39","","",FALSE,"CV","q",970,"cv","J","9","c","c",TRUE,1
"2336","CVOE_C",1003,1,2,90,"A 11","","",TRUE,"CV","p",891,"cv","A","1","v","v",TRUE,1
"2337","CVOE_C",1003,1,2,91,"O 76","","",FALSE,"CV","p",584,"cv","O","6","v","v",TRUE,1
"2338","CVOE_C",1003,1,2,92,"A 62","","",FALSE,"CV","p",1439,"cv","A","2","v","v",TRUE,1
"2339","CVOE_C",1003,1,2,93,"O 27","","",TRUE,"CV","p",579,"cv","O","7","v","v",TRUE,1
"2340","CVOE_C",1003,1,2,94,"E 66","","",FALSE,"CV","p",612,"cv","E","6","v","v",TRUE,1
"2341","CVOE_C",1003,1,2,95,"J 62","","",TRUE,"CV","q",611,"cv","J","2","c","c",TRUE,1
"2342","CVOE_C",1003,1,2,96,"H 72","","",TRUE,"CV","q",844,"cv","H","2","c","c",TRUE,1
"2343","CVOE_C",1003,1,2,97,"E 49","","",TRUE,"CV","p",649,"cv","E","9","v","v",TRUE,1
"2344","CVOE_C",1003,1,2,98,"D 52","","",TRUE,"CV","q",731,"cv","D","2","c","c",TRUE,1
"2345","CVOE_C",1003,1,2,99,"H 62","","",TRUE,"CV","q",1712,"cv","H","2","c","c",TRUE,1
"2346","CVOE_C",1003,1,2,100,"I 11","","",TRUE,"CV","p",568,"cv","I","1","v","v",TRUE,1
"2347","CVOE_C",1003,1,2,101,"A 98","","",FALSE,"CV","q",617,"cv","A","8","v","c",FALSE,0
"2348","CVOE_C",1003,1,2,102,"H 29","","",FALSE,"CV","q",1986,"cv","H","9","c","c",TRUE,1
"2349","CVOE_C",1003,1,2,103,"E 83","","",TRUE,"CV","p",1006,"cv","E","3","v","v",TRUE,1
"2350","CVOE_C",1003,1,2,104,"D 43","","",FALSE,"CV","q",620,"cv","D","3","c","c",TRUE,1
"2351","CVOE_C",1003,1,2,105,"P 45","","",TRUE,"CV","q",1207,"cv","P","5","c","c",TRUE,1
"2352","CVOE_C",1003,1,2,106,"J 17","","",TRUE,"CV","q",816,"cv","J","7","c","c",TRUE,1
"2593","CVOE updated",1009,1,1,11,"A 71","","",FALSE,"CV","p",5184,"cv","A","1","v","v",TRUE,1
"2594","CVOE updated",1009,1,1,12,"I 66","","",TRUE,"CV","p",1673,"cv","I","6","v","v",TRUE,1
"2595","CVOE updated",1009,1,1,13,"S 30","","",FALSE,"CV","q",1752,"cv","S","0","c","c",TRUE,1
"2596","CVOE updated",1009,1,1,14,"D 20","","",FALSE,"CV","q",3618,"cv","D","0","c","c",TRUE,1
"2597","CVOE updated",1009,1,1,15,"I 31","","",FALSE,"CV","p",2675,"cv","I","1","v","v",TRUE,1
"2598","CVOE updated",1009,1,1,16,"P 16","","",FALSE,"CV","q",1694,"cv","P","6","c","c",TRUE,1
"2599","CVOE updated",1009,1,1,17,"A 49","","",FALSE,"CV","p",2006,"cv","A","9","v","v",TRUE,1
"2600","CVOE updated",1009,1,1,18,"O 64","","",TRUE,"CV","p",1859,"cv","O","4","v","v",TRUE,1
"2601","CVOE updated",1009,1,1,19,"D 02","","",FALSE,"CV","q",2697,"cv","D","2","c","c",TRUE,1
"2602","CVOE updated",1009,1,1,20,"P 81","","",TRUE,"CV","q",2068,"cv","P","1","c","c",TRUE,1
"2603","CVOE updated",1009,1,1,21,"J 58","","",FALSE,"CV","q",2107,"cv","J","8","c","c",TRUE,1
"2604","CVOE updated",1009,1,1,22,"A 22","","",TRUE,"CV","p",2681,"cv","A","2","v","v",TRUE,1
"2605","CVOE updated",1009,1,1,23,"J 72","","",FALSE,"CV","q",1745,"cv","J","2","c","c",TRUE,1
"2606","CVOE updated",1009,1,1,24,"P 91","","",TRUE,"CV","q",1807,"cv","P","1","c","c",TRUE,1
"2607","CVOE updated",1009,1,1,25,"E 19","","",FALSE,"CV","p",2815,"cv","E","9","v","v",TRUE,1
"2608","CVOE updated",1009,1,1,26,"I 30","","",TRUE,"CV","p",1552,"cv","I","0","v","v",TRUE,1
"2609","CVOE updated",1009,1,1,27,"D 91","","",TRUE,"CV","q",1721,"cv","D","1","c","c",TRUE,1
"2610","CVOE updated",1009,1,1,28,"O 48","","",TRUE,"CV","p",3037,"cv","O","8","v","v",TRUE,1
"2611","CVOE updated",1009,1,1,29,"A 89","","",FALSE,"CV","p",1471,"cv","A","9","v","v",TRUE,1
"2612","CVOE updated",1009,1,1,30,"U 11","","",FALSE,"CV","p",1771,"cv","U","1","v","v",TRUE,1
"2613","CVOE updated",1009,1,1,31,"I 76","","",TRUE,"CV","p",1617,"cv","I","6","v","v",TRUE,1
"2614","CVOE updated",1009,1,1,32,"U 89","","",FALSE,"CV","p",1681,"cv","U","9","v","v",TRUE,1
"2615","CVOE updated",1009,1,1,33,"D 63","","",TRUE,"CV","q",1772,"cv","D","3","c","c",TRUE,1
"2616","CVOE updated",1009,1,1,34,"H 70","","",FALSE,"CV","q",1838,"cv","H","0","c","c",TRUE,1
"2617","CVOE updated",1009,1,1,35,"D 48","","",FALSE,"CV","q",1785,"cv","D","8","c","c",TRUE,1
"2618","CVOE updated",1009,1,1,36,"P 56","","",FALSE,"CV","q",1748,"cv","P","6","c","c",TRUE,1
"2619","CVOE updated",1009,1,1,37,"O 77","","",FALSE,"CV","p",1928,"cv","O","7","v","v",TRUE,1
"2620","CVOE updated",1009,1,1,38,"P 42","","",FALSE,"CV","q",1691,"cv","P","2","c","c",TRUE,1
"2621","CVOE updated",1009,1,1,39,"H 22","","",FALSE,"CV","q",1403,"cv","H","2","c","c",TRUE,1
"2622","CVOE updated",1009,1,1,40,"E 42","","",TRUE,"CV","p",1928,"cv","E","2","v","v",TRUE,1
"2623","CVOE updated",1009,1,1,41,"J 28","","",FALSE,"CV","q",1553,"cv","J","8","c","c",TRUE,1
"2624","CVOE updated",1009,1,1,42,"E 95","","",FALSE,"CV","p",1905,"cv","E","5","v","v",TRUE,1
"2625","CVOE updated",1009,1,1,43,"S 63","","",TRUE,"CV","q",2372,"cv","S","3","c","c",TRUE,1
"2626","CVOE updated",1009,1,1,44,"H 50","","",FALSE,"CV","q",1785,"cv","H","0","c","c",TRUE,1
"2627","CVOE updated",1009,1,1,45,"S 33","","",TRUE,"CV","q",1769,"cv","S","3","c","c",TRUE,1
"2628","CVOE updated",1009,1,1,46,"P 57","","",TRUE,"CV","q",1669,"cv","P","7","c","c",TRUE,1
"2629","CVOE updated",1009,1,1,47,"E 23","","",FALSE,"CV","p",2986,"cv","E","3","v","v",TRUE,1
"2630","CVOE updated",1009,1,1,48,"S 61","","",TRUE,"CV","q",1508,"cv","S","1","c","c",TRUE,1
"2631","CVOE updated",1009,1,1,49,"U 67","","",FALSE,"CV","p",2028,"cv","U","7","v","v",TRUE,1
"2632","CVOE updated",1009,1,1,50,"H 32","","",FALSE,"CV","q",1544,"cv","H","2","c","c",TRUE,1
"2633","CVOE updated",1009,1,1,51,"U 50","","",TRUE,"CV","p",2143,"cv","U","0","v","v",TRUE,1
"2634","CVOE updated",1009,1,1,52,"O 49","","",FALSE,"CV","p",1643,"cv","O","9","v","v",TRUE,1
"2635","CVOE updated",1009,1,1,53,"U 32","","",TRUE,"CV","p",1303,"cv","U","2","v","v",TRUE,1
"2636","CVOE updated",1009,1,1,54,"J 78","","",FALSE,"CV","q",1521,"cv","J","8","c","c",TRUE,1
"2637","CVOE updated",1009,1,1,55,"S 54","","",FALSE,"CV","q",1678,"cv","S","4","c","c",TRUE,1
"2638","CVOE updated",1009,1,1,56,"J 27","","",TRUE,"CV","q",1401,"cv","J","7","c","c",TRUE,1
"2639","CVOE updated",1009,1,1,57,"S 06","","",FALSE,"CV","q",1630,"cv","S","6","c","c",TRUE,1
"2640","CVOE updated",1009,1,1,58,"D 67","","",TRUE,"CV","q",1794,"cv","D","7","c","c",TRUE,1
"2641","CVOE updated",1009,1,1,59,"A 79","","",FALSE,"CV","p",2322,"cv","A","9","v","v",TRUE,1
"2642","CVOE updated",1009,1,1,60,"S 52","","",FALSE,"CV","q",3120,"cv","S","2","c","c",TRUE,1
"2643","CVOE updated",1009,1,1,61,"U 16","","",TRUE,"CV","p",2412,"cv","U","6","v","v",TRUE,1
"2644","CVOE updated",1009,1,1,62,"O 82","","",TRUE,"CV","p",1818,"cv","O","2","v","v",TRUE,1
"2645","CVOE updated",1009,1,1,63,"H 87","","",TRUE,"CV","q",1485,"cv","H","7","c","c",TRUE,1
"2646","CVOE updated",1009,1,1,64,"I 32","","",TRUE,"CV","p",1682,"cv","I","2","v","v",TRUE,1
"2647","CVOE updated",1009,1,1,65,"U 37","","",FALSE,"CV","p",1235,"cv","U","7","v","v",TRUE,1
"2648","CVOE updated",1009,1,1,66,"I 42","","",TRUE,"CV","p",1245,"cv","I","2","v","v",TRUE,1
"2649","CVOE updated",1009,1,1,67,"D 65","","",TRUE,"CV","q",1536,"cv","D","5","c","c",TRUE,1
"2650","CVOE updated",1009,1,1,68,"U 77","","",FALSE,"CV","p",1839,"cv","U","7","v","v",TRUE,1
"2651","CVOE updated",1009,1,1,69,"E 12","","",TRUE,"CV","p",981,"cv","E","2","v","v",TRUE,1
"2652","CVOE updated",1009,1,1,70,"I 60","","",TRUE,"CV","p",1152,"cv","I","0","v","v",TRUE,1
"2653","CVOE updated",1009,1,1,71,"J 36","","",FALSE,"CV","q",1496,"cv","J","6","c","c",TRUE,1
"2654","CVOE updated",1009,1,1,72,"H 75","","",TRUE,"CV","q",1657,"cv","H","5","c","c",TRUE,1
"2655","CVOE updated",1009,1,1,73,"I 50","","",TRUE,"CV","p",1517,"cv","I","0","v","v",TRUE,1
"2656","CVOE updated",1009,1,1,74,"E 99","","",FALSE,"CV","p",1154,"cv","E","9","v","v",TRUE,1
"2657","CVOE updated",1009,1,1,75,"A 86","","",TRUE,"CV","p",1045,"cv","A","6","v","v",TRUE,1
"2658","CVOE updated",1009,1,1,76,"U 48","","",TRUE,"CV","p",1069,"cv","U","8","v","v",TRUE,1
"2659","CVOE updated",1009,1,1,77,"E 01","","",FALSE,"CV","p",1204,"cv","E","1","v","v",TRUE,1
"2660","CVOE updated",1009,1,1,78,"A 78","","",TRUE,"CV","p",1239,"cv","A","8","v","v",TRUE,1
"2661","CVOE updated",1009,1,1,79,"P 60","","",FALSE,"CV","q",1616,"cv","P","0","c","c",TRUE,1
"2662","CVOE updated",1009,1,1,80,"E 43","","",FALSE,"CV","p",2533,"cv","E","3","v","v",TRUE,1
"2663","CVOE updated",1009,1,1,81,"D 69","","",TRUE,"CV","q",1498,"cv","D","9","c","c",TRUE,1
"2664","CVOE updated",1009,1,1,82,"H 11","","",TRUE,"CV","q",1287,"cv","H","1","c","c",TRUE,1
"2665","CVOE updated",1009,1,1,83,"P 43","","",TRUE,"CV","q",1154,"cv","P","3","c","c",TRUE,1
"2666","CVOE updated",1009,1,1,84,"O 67","","",FALSE,"CV","p",1994,"cv","O","7","v","v",TRUE,1
"2667","CVOE updated",1009,1,1,85,"S 91","","",FALSE,"CV","q",1569,"cv","S","1","c","c",TRUE,1
"2668","CVOE updated",1009,1,1,86,"J 68","","",TRUE,"CV","q",1500,"cv","J","8","c","c",TRUE,1
"2669","CVOE updated",1009,1,1,87,"S 47","","",FALSE,"CV","q",1616,"cv","S","7","c","c",TRUE,1
"2670","CVOE updated",1009,1,1,88,"I 81","","",TRUE,"CV","p",1863,"cv","I","1","v","v",TRUE,1
"2671","CVOE updated",1009,1,1,89,"J 39","","",FALSE,"CV","q",1793,"cv","J","9","c","c",TRUE,1
"2672","CVOE updated",1009,1,1,90,"A 11","","",TRUE,"CV","p",1906,"cv","A","1","v","v",TRUE,1
"2673","CVOE updated",1009,1,1,91,"O 76","","",FALSE,"CV","p",1399,"cv","O","6","v","v",TRUE,1
"2674","CVOE updated",1009,1,1,92,"A 62","","",FALSE,"CV","p",1398,"cv","A","2","v","v",TRUE,1
"2675","CVOE updated",1009,1,1,93,"O 27","","",TRUE,"CV","p",1319,"cv","O","7","v","v",TRUE,1
"2676","CVOE updated",1009,1,1,94,"E 66","","",FALSE,"CV","p",1192,"cv","E","6","v","v",TRUE,1
"2677","CVOE updated",1009,1,1,95,"J 62","","",TRUE,"CV","q",1511,"cv","J","2","c","c",TRUE,1
"2678","CVOE updated",1009,1,1,96,"H 72","","",TRUE,"CV","q",1245,"cv","H","2","c","c",TRUE,1
"2679","CVOE updated",1009,1,1,97,"E 49","","",TRUE,"CV","p",1944,"cv","E","9","v","v",TRUE,1
"2680","CVOE updated",1009,1,1,98,"D 52","","",TRUE,"CV","q",1773,"cv","D","2","c","c",TRUE,1
"2681","CVOE updated",1009,1,1,99,"H 62","","",TRUE,"CV","q",1286,"cv","H","2","c","c",TRUE,1
"2682","CVOE updated",1009,1,1,100,"I 11","","",TRUE,"CV","p",1689,"cv","I","1","v","v",TRUE,1
"2683","CVOE updated",1009,1,1,101,"A 98","","",FALSE,"CV","p",1092,"cv","A","8","v","v",TRUE,1
"2684","CVOE updated",1009,1,1,102,"H 29","","",FALSE,"CV","q",1536,"cv","H","9","c","c",TRUE,1
"2685","CVOE updated",1009,1,1,103,"E 83","","",TRUE,"CV","p",1475,"cv","E","3","v","v",TRUE,1
"2686","CVOE updated",1009,1,1,104,"D 43","","",FALSE,"CV","q",1447,"cv","D","3","c","c",TRUE,1
"2687","CVOE updated",1009,1,1,105,"P 45","","",TRUE,"CV","q",1377,"cv","P","5","c","c",TRUE,1
"2688","CVOE updated",1009,1,1,106,"J 17","","",TRUE,"CV","q",1174,"cv","J","7","c","c",TRUE,1
"3025","CVOE updated",1013,1,1,11,"A 71","","",FALSE,"CV","q",1358,"cv","A","1","v","c",FALSE,0
"3026","CVOE updated",1013,1,1,12,"I 66","","",TRUE,"CV","q",1056,"cv","I","6","v","c",FALSE,0
"3027","CVOE updated",1013,1,1,13,"S 30","","",FALSE,"CV","p",1960,"cv","S","0","c","v",FALSE,0
"3028","CVOE updated",1013,1,1,14,"D 20","","",FALSE,"CV","p",1382,"cv","D","0","c","v",FALSE,0
"3029","CVOE updated",1013,1,1,15,"I 31","","",FALSE,"CV","q",1088,"cv","I","1","v","c",FALSE,0
"3030","CVOE updated",1013,1,1,16,"P 16","","",FALSE,"CV","p",777,"cv","P","6","c","v",FALSE,0
"3031","CVOE updated",1013,1,1,17,"A 49","","",FALSE,"CV","q",573,"cv","A","9","v","c",FALSE,0
"3032","CVOE updated",1013,1,1,18,"O 64","","",TRUE,"CV","q",1114,"cv","O","4","v","c",FALSE,0
"3033","CVOE updated",1013,1,1,19,"D 02","","",FALSE,"CV","p",785,"cv","D","2","c","v",FALSE,0
"3034","CVOE updated",1013,1,1,20,"P 81","","",TRUE,"CV","p",1114,"cv","P","1","c","v",FALSE,0
"3035","CVOE updated",1013,1,1,21,"J 58","","",FALSE,"CV","p",629,"cv","J","8","c","v",FALSE,0
"3036","CVOE updated",1013,1,1,22,"A 22","","",TRUE,"CV","q",493,"cv","A","2","v","c",FALSE,0
"3037","CVOE updated",1013,1,1,23,"J 72","","",FALSE,"CV","p",733,"cv","J","2","c","v",FALSE,0
"3038","CVOE updated",1013,1,1,24,"P 91","","",TRUE,"CV","p",789,"cv","P","1","c","v",FALSE,0
"3039","CVOE updated",1013,1,1,25,"E 19","","",FALSE,"CV","q",735,"cv","E","9","v","c",FALSE,0
"3040","CVOE updated",1013,1,1,26,"I 30","","",TRUE,"CV","q",783,"cv","I","0","v","c",FALSE,0
"3041","CVOE updated",1013,1,1,27,"D 91","","",TRUE,"CV","p",732,"cv","D","1","c","v",FALSE,0
"3042","CVOE updated",1013,1,1,28,"O 48","","",TRUE,"CV","q",882,"cv","O","8","v","c",FALSE,0
"3043","CVOE updated",1013,1,1,29,"A 89","","",FALSE,"CV","q",672,"cv","A","9","v","c",FALSE,0
"3044","CVOE updated",1013,1,1,30,"U 11","","",FALSE,"CV","q",1017,"cv","U","1","v","c",FALSE,0
"3045","CVOE updated",1013,1,1,31,"I 76","","",TRUE,"CV","q",1934,"cv","I","6","v","c",FALSE,0
"3046","CVOE updated",1013,1,1,32,"U 89","","",FALSE,"CV","p",778,"cv","U","9","v","v",TRUE,1
"3047","CVOE updated",1013,1,1,33,"D 63","","",TRUE,"CV","p",2430,"cv","D","3","c","v",FALSE,0
"3048","CVOE updated",1013,1,1,34,"H 70","","",FALSE,"CV","p",2537,"cv","H","0","c","v",FALSE,0
"3049","CVOE updated",1013,1,1,35,"D 48","","",FALSE,"CV","p",739,"cv","D","8","c","v",FALSE,0
"3050","CVOE updated",1013,1,1,36,"P 56","","",FALSE,"CV","p",977,"cv","P","6","c","v",FALSE,0
"3051","CVOE updated",1013,1,1,37,"O 77","","",FALSE,"CV","q",729,"cv","O","7","v","c",FALSE,0
"3052","CVOE updated",1013,1,1,38,"P 42","","",FALSE,"CV","p",877,"cv","P","2","c","v",FALSE,0
"3053","CVOE updated",1013,1,1,39,"H 22","","",FALSE,"CV","p",736,"cv","H","2","c","v",FALSE,0
"3054","CVOE updated",1013,1,1,40,"E 42","","",TRUE,"CV","q",2277,"cv","E","2","v","c",FALSE,0
"3055","CVOE updated",1013,1,1,41,"J 28","","",FALSE,"CV","p",836,"cv","J","8","c","v",FALSE,0
"3056","CVOE updated",1013,1,1,42,"E 95","","",FALSE,"CV","q",683,"cv","E","5","v","c",FALSE,0
"3057","CVOE updated",1013,1,1,43,"S 63","","",TRUE,"CV","p",728,"cv","S","3","c","v",FALSE,0
"3058","CVOE updated",1013,1,1,44,"H 50","","",FALSE,"CV","p",1008,"cv","H","0","c","v",FALSE,0
"3059","CVOE updated",1013,1,1,45,"S 33","","",TRUE,"CV","p",690,"cv","S","3","c","v",FALSE,0
"3060","CVOE updated",1013,1,1,46,"P 57","","",TRUE,"CV","p",1003,"cv","P","7","c","v",FALSE,0
"3061","CVOE updated",1013,1,1,47,"E 23","","",FALSE,"CV","q",708,"cv","E","3","v","c",FALSE,0
"3062","CVOE updated",1013,1,1,48,"S 61","","",TRUE,"CV","p",889,"cv","S","1","c","v",FALSE,0
"3063","CVOE updated",1013,1,1,49,"U 67","","",FALSE,"CV","q",2346,"cv","U","7","v","c",FALSE,0
"3064","CVOE updated",1013,1,1,50,"H 32","","",FALSE,"CV","p",650,"cv","H","2","c","v",FALSE,0
"3065","CVOE updated",1013,1,1,51,"U 50","","",TRUE,"CV","q",919,"cv","U","0","v","c",FALSE,0
"3066","CVOE updated",1013,1,1,52,"O 49","","",FALSE,"CV","q",1195,"cv","O","9","v","c",FALSE,0
"3067","CVOE updated",1013,1,1,53,"U 32","","",TRUE,"CV","q",1870,"cv","U","2","v","c",FALSE,0
"3068","CVOE updated",1013,1,1,54,"J 78","","",FALSE,"CV","p",659,"cv","J","8","c","v",FALSE,0
"3069","CVOE updated",1013,1,1,55,"S 54","","",FALSE,"CV","p",770,"cv","S","4","c","v",FALSE,0
"3070","CVOE updated",1013,1,1,56,"J 27","","",TRUE,"CV","p",641,"cv","J","7","c","v",FALSE,0
"3071","CVOE updated",1013,1,1,57,"S 06","","",FALSE,"CV","p",945,"cv","S","6","c","v",FALSE,0
"3072","CVOE updated",1013,1,1,58,"D 67","","",TRUE,"CV","p",919,"cv","D","7","c","v",FALSE,0
"3073","CVOE updated",1013,1,1,59,"A 79","","",FALSE,"CV","q",584,"cv","A","9","v","c",FALSE,0
"3074","CVOE updated",1013,1,1,60,"S 52","","",FALSE,"CV","p",858,"cv","S","2","c","v",FALSE,0
"3075","CVOE updated",1013,1,1,61,"U 16","","",TRUE,"CV","q",838,"cv","U","6","v","c",FALSE,0
"3076","CVOE updated",1013,1,1,62,"O 82","","",TRUE,"CV","q",684,"cv","O","2","v","c",FALSE,0
"3077","CVOE updated",1013,1,1,63,"H 87","","",TRUE,"CV","p",631,"cv","H","7","c","v",FALSE,0
"3078","CVOE updated",1013,1,1,64,"I 32","","",TRUE,"CV","q",596,"cv","I","2","v","c",FALSE,0
"3079","CVOE updated",1013,1,1,65,"U 37","","",FALSE,"CV","q",1340,"cv","U","7","v","c",FALSE,0
"3080","CVOE updated",1013,1,1,66,"I 42","","",TRUE,"CV","q",623,"cv","I","2","v","c",FALSE,0
"3081","CVOE updated",1013,1,1,67,"D 65","","",TRUE,"CV","p",640,"cv","D","5","c","v",FALSE,0
"3082","CVOE updated",1013,1,1,68,"U 77","","",FALSE,"CV","q",711,"cv","U","7","v","c",FALSE,0
"3083","CVOE updated",1013,1,1,69,"E 12","","",TRUE,"CV","q",1073,"cv","E","2","v","c",FALSE,0
"3084","CVOE updated",1013,1,1,70,"I 60","","",TRUE,"CV","q",1909,"cv","I","0","v","c",FALSE,0
"3085","CVOE updated",1013,1,1,71,"J 36","","",FALSE,"CV","p",847,"cv","J","6","c","v",FALSE,0
"3086","CVOE updated",1013,1,1,72,"H 75","","",TRUE,"CV","p",771,"cv","H","5","c","v",FALSE,0
"3087","CVOE updated",1013,1,1,73,"I 50","","",TRUE,"CV","q",658,"cv","I","0","v","c",FALSE,0
"3088","CVOE updated",1013,1,1,74,"E 99","","",FALSE,"CV","q",724,"cv","E","9","v","c",FALSE,0
"3089","CVOE updated",1013,1,1,75,"A 86","","",TRUE,"CV","q",645,"cv","A","6","v","c",FALSE,0
"3090","CVOE updated",1013,1,1,76,"U 48","","",TRUE,"CV","q",844,"cv","U","8","v","c",FALSE,0
"3091","CVOE updated",1013,1,1,77,"E 01","","",FALSE,"CV","q",527,"cv","E","1","v","c",FALSE,0
"3092","CVOE updated",1013,1,1,78,"A 78","","",TRUE,"CV","q",573,"cv","A","8","v","c",FALSE,0
"3093","CVOE updated",1013,1,1,79,"P 60","","",FALSE,"CV","p",576,"cv","P","0","c","v",FALSE,0
"3094","CVOE updated",1013,1,1,80,"E 43","","",FALSE,"CV","q",681,"cv","E","3","v","c",FALSE,0
"3095","CVOE updated",1013,1,1,81,"D 69","","",TRUE,"CV","p",682,"cv","D","9","c","v",FALSE,0
"3096","CVOE updated",1013,1,1,82,"H 11","","",TRUE,"CV","p",666,"cv","H","1","c","v",FALSE,0
"3097","CVOE updated",1013,1,1,83,"P 43","","",TRUE,"CV","p",696,"cv","P","3","c","v",FALSE,0
"3098","CVOE updated",1013,1,1,84,"O 67","","",FALSE,"CV","p",556,"cv","O","7","v","v",TRUE,1
"3099","CVOE updated",1013,1,1,85,"S 91","","",FALSE,"CV","p",3263,"cv","S","1","c","v",FALSE,0
"3100","CVOE updated",1013,1,1,86,"J 68","","",TRUE,"CV","p",739,"cv","J","8","c","v",FALSE,0
"3101","CVOE updated",1013,1,1,87,"S 47","","",FALSE,"CV","p",762,"cv","S","7","c","v",FALSE,0
"3102","CVOE updated",1013,1,1,88,"I 81","","",TRUE,"CV","q",651,"cv","I","1","v","c",FALSE,0
"3103","CVOE updated",1013,1,1,89,"J 39","","",FALSE,"CV","p",590,"cv","J","9","c","v",FALSE,0
"3104","CVOE updated",1013,1,1,90,"A 11","","",TRUE,"CV","q",505,"cv","A","1","v","c",FALSE,0
"3105","CVOE updated",1013,1,1,91,"O 76","","",FALSE,"CV","q",630,"cv","O","6","v","c",FALSE,0
"3106","CVOE updated",1013,1,1,92,"A 62","","",FALSE,"CV","q",654,"cv","A","2","v","c",FALSE,0
"3107","CVOE updated",1013,1,1,93,"O 27","","",TRUE,"CV","q",1091,"cv","O","7","v","c",FALSE,0
"3108","CVOE updated",1013,1,1,94,"E 66","","",FALSE,"CV","q",796,"cv","E","6","v","c",FALSE,0
"3109","CVOE updated",1013,1,1,95,"J 62","","",TRUE,"CV","p",657,"cv","J","2","c","v",FALSE,0
"3110","CVOE updated",1013,1,1,96,"H 72","","",TRUE,"CV","p",1154,"cv","H","2","c","v",FALSE,0
"3111","CVOE updated",1013,1,1,97,"E 49","","",TRUE,"CV","q",803,"cv","E","9","v","c",FALSE,0
"3112","CVOE updated",1013,1,1,98,"D 52","","",TRUE,"CV","p",1189,"cv","D","2","c","v",FALSE,0
"3113","CVOE updated",1013,1,1,99,"H 62","","",TRUE,"CV","p",1600,"cv","H","2","c","v",FALSE,0
"3114","CVOE updated",1013,1,1,100,"I 11","","",TRUE,"CV","q",674,"cv","I","1","v","c",FALSE,0
"3115","CVOE updated",1013,1,1,101,"A 98","","",FALSE,"CV","q",562,"cv","A","8","v","c",FALSE,0
"3116","CVOE updated",1013,1,1,102,"H 29","","",FALSE,"CV","p",642,"cv","H","9","c","v",FALSE,0
"3117","CVOE updated",1013,1,1,103,"E 83","","",TRUE,"CV","q",660,"cv","E","3","v","c",FALSE,0
"3118","CVOE updated",1013,1,1,104,"D 43","","",FALSE,"CV","p",681,"cv","D","3","c","v",FALSE,0
"3119","CVOE updated",1013,1,1,105,"P 45","","",TRUE,"CV","p",722,"cv","P","5","c","v",FALSE,0
"3120","CVOE updated",1013,1,1,106,"J 17","","",TRUE,"CV","p",671,"cv","J","7","c","v",FALSE,0
"3457","CVOE updated",2005,1,1,11,"A 71","","",FALSE,"CV","q",1858,"cv","A","1","v","c",FALSE,0
"3458","CVOE updated",2005,1,1,12,"I 66","","",TRUE,"CV","q",1208,"cv","I","6","v","c",FALSE,0
"3459","CVOE updated",2005,1,1,13,"S 30","","",FALSE,"CV","p",738,"cv","S","0","c","v",FALSE,0
"3460","CVOE updated",2005,1,1,14,"D 20","","",FALSE,"CV","p",1089,"cv","D","0","c","v",FALSE,0
"3461","CVOE updated",2005,1,1,15,"I 31","","",FALSE,"CV","q",1049,"cv","I","1","v","c",FALSE,0
"3462","CVOE updated",2005,1,1,16,"P 16","","",FALSE,"CV","p",848,"cv","P","6","c","v",FALSE,0
"3463","CVOE updated",2005,1,1,17,"A 49","","",FALSE,"CV","q",690,"cv","A","9","v","c",FALSE,0
"3464","CVOE updated",2005,1,1,18,"O 64","","",TRUE,"CV","q",957,"cv","O","4","v","c",FALSE,0
"3465","CVOE updated",2005,1,1,19,"D 02","","",FALSE,"CV","p",895,"cv","D","2","c","v",FALSE,0
"3466","CVOE updated",2005,1,1,20,"P 81","","",TRUE,"CV","p",1314,"cv","P","1","c","v",FALSE,0
"3467","CVOE updated",2005,1,1,21,"J 58","","",FALSE,"CV","p",727,"cv","J","8","c","v",FALSE,0
"3468","CVOE updated",2005,1,1,22,"A 22","","",TRUE,"CV","q",647,"cv","A","2","v","c",FALSE,0
"3469","CVOE updated",2005,1,1,23,"J 72","","",FALSE,"CV","p",769,"cv","J","2","c","v",FALSE,0
"3470","CVOE updated",2005,1,1,24,"P 91","","",TRUE,"CV","p",930,"cv","P","1","c","v",FALSE,0
"3471","CVOE updated",2005,1,1,25,"E 19","","",FALSE,"CV","q",2136,"cv","E","9","v","c",FALSE,0
"3472","CVOE updated",2005,1,1,26,"I 30","","",TRUE,"CV","q",1161,"cv","I","0","v","c",FALSE,0
"3473","CVOE updated",2005,1,1,27,"D 91","","",TRUE,"CV","p",843,"cv","D","1","c","v",FALSE,0
"3474","CVOE updated",2005,1,1,28,"O 48","","",TRUE,"CV","q",920,"cv","O","8","v","c",FALSE,0
"3475","CVOE updated",2005,1,1,29,"A 89","","",FALSE,"CV","q",892,"cv","A","9","v","c",FALSE,0
"3476","CVOE updated",2005,1,1,30,"U 11","","",FALSE,"CV","q",2837,"cv","U","1","v","c",FALSE,0
"3477","CVOE updated",2005,1,1,31,"I 76","","",TRUE,"CV","q",1276,"cv","I","6","v","c",FALSE,0
"3478","CVOE updated",2005,1,1,32,"U 89","","",FALSE,"CV","q",1467,"cv","U","9","v","c",FALSE,0
"3479","CVOE updated",2005,1,1,33,"D 63","","",TRUE,"CV","p",692,"cv","D","3","c","v",FALSE,0
"3480","CVOE updated",2005,1,1,34,"H 70","","",FALSE,"CV","p",1036,"cv","H","0","c","v",FALSE,0
"3481","CVOE updated",2005,1,1,35,"D 48","","",FALSE,"CV","p",1087,"cv","D","8","c","v",FALSE,0
"3482","CVOE updated",2005,1,1,36,"P 56","","",FALSE,"CV","p",773,"cv","P","6","c","v",FALSE,0
"3483","CVOE updated",2005,1,1,37,"O 77","","",FALSE,"CV","q",874,"cv","O","7","v","c",FALSE,0
"3484","CVOE updated",2005,1,1,38,"P 42","","",FALSE,"CV","p",1247,"cv","P","2","c","v",FALSE,0
"3485","CVOE updated",2005,1,1,39,"H 22","","",FALSE,"CV","p",806,"cv","H","2","c","v",FALSE,0
"3486","CVOE updated",2005,1,1,40,"E 42","","",TRUE,"CV","q",1089,"cv","E","2","v","c",FALSE,0
"3487","CVOE updated",2005,1,1,41,"J 28","","",FALSE,"CV","p",934,"cv","J","8","c","v",FALSE,0
"3488","CVOE updated",2005,1,1,42,"E 95","","",FALSE,"CV","q",848,"cv","E","5","v","c",FALSE,0
"3489","CVOE updated",2005,1,1,43,"S 63","","",TRUE,"CV","p",769,"cv","S","3","c","v",FALSE,0
"3490","CVOE updated",2005,1,1,44,"H 50","","",FALSE,"CV","p",948,"cv","H","0","c","v",FALSE,0
"3491","CVOE updated",2005,1,1,45,"S 33","","",TRUE,"CV","p",807,"cv","S","3","c","v",FALSE,0
"3492","CVOE updated",2005,1,1,46,"P 57","","",TRUE,"CV","p",840,"cv","P","7","c","v",FALSE,0
"3493","CVOE updated",2005,1,1,47,"E 23","","",FALSE,"CV","q",722,"cv","E","3","v","c",FALSE,0
"3494","CVOE updated",2005,1,1,48,"S 61","","",TRUE,"CV","p",894,"cv","S","1","c","v",FALSE,0
"3495","CVOE updated",2005,1,1,49,"U 67","","",FALSE,"CV","q",999,"cv","U","7","v","c",FALSE,0
"3496","CVOE updated",2005,1,1,50,"H 32","","",FALSE,"CV","p",1475,"cv","H","2","c","v",FALSE,0
"3497","CVOE updated",2005,1,1,51,"U 50","","",TRUE,"CV","q",1011,"cv","U","0","v","c",FALSE,0
"3498","CVOE updated",2005,1,1,52,"O 49","","",FALSE,"CV","p",1430,"cv","O","9","v","v",TRUE,1
"3499","CVOE updated",2005,1,1,53,"U 32","","",TRUE,"CV","q",1863,"cv","U","2","v","c",FALSE,0
"3500","CVOE updated",2005,1,1,54,"J 78","","",FALSE,"CV","p",1781,"cv","J","8","c","v",FALSE,0
"3501","CVOE updated",2005,1,1,55,"S 54","","",FALSE,"CV","p",1157,"cv","S","4","c","v",FALSE,0
"3502","CVOE updated",2005,1,1,56,"J 27","","",TRUE,"CV","p",1364,"cv","J","7","c","v",FALSE,0
"3503","CVOE updated",2005,1,1,57,"S 06","","",FALSE,"CV","p",727,"cv","S","6","c","v",FALSE,0
"3504","CVOE updated",2005,1,1,58,"D 67","","",TRUE,"CV","p",843,"cv","D","7","c","v",FALSE,0
"3505","CVOE updated",2005,1,1,59,"A 79","","",FALSE,"CV","q",961,"cv","A","9","v","c",FALSE,0
"3506","CVOE updated",2005,1,1,60,"S 52","","",FALSE,"CV","p",843,"cv","S","2","c","v",FALSE,0
"3507","CVOE updated",2005,1,1,61,"U 16","","",TRUE,"CV","q",920,"cv","U","6","v","c",FALSE,0
"3508","CVOE updated",2005,1,1,62,"O 82","","",TRUE,"CV","q",891,"cv","O","2","v","c",FALSE,0
"3509","CVOE updated",2005,1,1,63,"H 87","","",TRUE,"CV","p",684,"cv","H","7","c","v",FALSE,0
"3510","CVOE updated",2005,1,1,64,"I 32","","",TRUE,"CV","q",851,"cv","I","2","v","c",FALSE,0
"3511","CVOE updated",2005,1,1,65,"U 37","","",FALSE,"CV","q",1437,"cv","U","7","v","c",FALSE,0
"3512","CVOE updated",2005,1,1,66,"I 42","","",TRUE,"CV","q",1284,"cv","I","2","v","c",FALSE,0
"3513","CVOE updated",2005,1,1,67,"D 65","","",TRUE,"CV","p",653,"cv","D","5","c","v",FALSE,0
"3514","CVOE updated",2005,1,1,68,"U 77","","",FALSE,"CV","q",853,"cv","U","7","v","c",FALSE,0
"3515","CVOE updated",2005,1,1,69,"E 12","","",TRUE,"CV","q",852,"cv","E","2","v","c",FALSE,0
"3516","CVOE updated",2005,1,1,70,"I 60","","",TRUE,"CV","q",812,"cv","I","0","v","c",FALSE,0
"3517","CVOE updated",2005,1,1,71,"J 36","","",FALSE,"CV","p",1276,"cv","J","6","c","v",FALSE,0
"3518","CVOE updated",2005,1,1,72,"H 75","","",TRUE,"CV","p",1583,"cv","H","5","c","v",FALSE,0
"3519","CVOE updated",2005,1,1,73,"I 50","","",TRUE,"CV","q",1630,"cv","I","0","v","c",FALSE,0
"3520","CVOE updated",2005,1,1,74,"E 99","","",FALSE,"CV","q",765,"cv","E","9","v","c",FALSE,0
"3521","CVOE updated",2005,1,1,75,"A 86","","",TRUE,"CV","q",809,"cv","A","6","v","c",FALSE,0
"3522","CVOE updated",2005,1,1,76,"U 48","","",TRUE,"CV","q",1077,"cv","U","8","v","c",FALSE,0
"3523","CVOE updated",2005,1,1,77,"E 01","","",FALSE,"CV","q",842,"cv","E","1","v","c",FALSE,0
"3524","CVOE updated",2005,1,1,78,"A 78","","",TRUE,"CV","q",841,"cv","A","8","v","c",FALSE,0
"3525","CVOE updated",2005,1,1,79,"P 60","","",FALSE,"CV","p",644,"cv","P","0","c","v",FALSE,0
"3526","CVOE updated",2005,1,1,80,"E 43","","",FALSE,"CV","q",1040,"cv","E","3","v","c",FALSE,0
"3527","CVOE updated",2005,1,1,81,"D 69","","",TRUE,"CV","p",1286,"cv","D","9","c","v",FALSE,0
"3528","CVOE updated",2005,1,1,82,"H 11","","",TRUE,"CV","p",672,"cv","H","1","c","v",FALSE,0
"3529","CVOE updated",2005,1,1,83,"P 43","","",TRUE,"CV","p",660,"cv","P","3","c","v",FALSE,0
"3530","CVOE updated",2005,1,1,84,"O 67","","",FALSE,"CV","q",921,"cv","O","7","v","c",FALSE,0
"3531","CVOE updated",2005,1,1,85,"S 91","","",FALSE,"CV","p",814,"cv","S","1","c","v",FALSE,0
"3532","CVOE updated",2005,1,1,86,"J 68","","",TRUE,"CV","p",1434,"cv","J","8","c","v",FALSE,0
"3533","CVOE updated",2005,1,1,87,"S 47","","",FALSE,"CV","p",1827,"cv","S","7","c","v",FALSE,0
"3534","CVOE updated",2005,1,1,88,"I 81","","",TRUE,"CV","q",997,"cv","I","1","v","c",FALSE,0
"3535","CVOE updated",2005,1,1,89,"J 39","","",FALSE,"CV","p",650,"cv","J","9","c","v",FALSE,0
"3536","CVOE updated",2005,1,1,90,"A 11","","",TRUE,"CV","q",654,"cv","A","1","v","c",FALSE,0
"3537","CVOE updated",2005,1,1,91,"O 76","","",FALSE,"CV","q",815,"cv","O","6","v","c",FALSE,0
"3538","CVOE updated",2005,1,1,92,"A 62","","",FALSE,"CV","q",730,"cv","A","2","v","c",FALSE,0
"3539","CVOE updated",2005,1,1,93,"O 27","","",TRUE,"CV","q",1003,"cv","O","7","v","c",FALSE,0
"3540","CVOE updated",2005,1,1,94,"E 66","","",FALSE,"CV","q",1009,"cv","E","6","v","c",FALSE,0
"3541","CVOE updated",2005,1,1,95,"J 62","","",TRUE,"CV","p",880,"cv","J","2","c","v",FALSE,0
"3542","CVOE updated",2005,1,1,96,"H 72","","",TRUE,"CV","p",1394,"cv","H","2","c","v",FALSE,0
"3543","CVOE updated",2005,1,1,97,"E 49","","",TRUE,"CV","q",841,"cv","E","9","v","c",FALSE,0
"3544","CVOE updated",2005,1,1,98,"D 52","","",TRUE,"CV","p",802,"cv","D","2","c","v",FALSE,0
"3545","CVOE updated",2005,1,1,99,"H 62","","",TRUE,"CV","p",1477,"cv","H","2","c","v",FALSE,0
"3546","CVOE updated",2005,1,1,100,"I 11","","",TRUE,"CV","q",842,"cv","I","1","v","c",FALSE,0
"3547","CVOE updated",2005,1,1,101,"A 98","","",FALSE,"CV","q",763,"cv","A","8","v","c",FALSE,0
"3548","CVOE updated",2005,1,1,102,"H 29","","",FALSE,"CV","p",728,"cv","H","9","c","v",FALSE,0
"3549","CVOE updated",2005,1,1,103,"E 83","","",TRUE,"CV","q",884,"cv","E","3","v","c",FALSE,0
"3550","CVOE updated",2005,1,1,104,"D 43","","",FALSE,"CV","p",732,"cv","D","3","c","v",FALSE,0
"3551","CVOE updated",2005,1,1,105,"P 45","","",TRUE,"CV","p",1318,"cv","P","5","c","v",FALSE,0
"3552","CVOE updated",2005,1,1,106,"J 17","","",TRUE,"CV","p",967,"cv","J","7","c","v",FALSE,0
"3889","CVOE updated",2009,1,1,11,"A 71","","",FALSE,"CV","p",7907,"cv","A","1","v","v",TRUE,1
"3890","CVOE updated",2009,1,1,12,"I 66","","",TRUE,"CV","p",2383,"cv","I","6","v","v",TRUE,1
"3891","CVOE updated",2009,1,1,13,"S 30","","",FALSE,"CV","q",1711,"cv","S","0","c","c",TRUE,1
"3892","CVOE updated",2009,1,1,14,"D 20","","",FALSE,"CV","q",1867,"cv","D","0","c","c",TRUE,1
"3893","CVOE updated",2009,1,1,15,"I 31","","",FALSE,"CV","p",1086,"cv","I","1","v","v",TRUE,1
"3894","CVOE updated",2009,1,1,16,"P 16","","",FALSE,"CV","q",1951,"cv","P","6","c","c",TRUE,1
"3895","CVOE updated",2009,1,1,17,"A 49","","",FALSE,"CV","p",1206,"cv","A","9","v","v",TRUE,1
"3896","CVOE updated",2009,1,1,18,"O 64","","",TRUE,"CV","p",2015,"cv","O","4","v","v",TRUE,1
"3897","CVOE updated",2009,1,1,19,"D 02","","",FALSE,"CV","q",1610,"cv","D","2","c","c",TRUE,1
"3898","CVOE updated",2009,1,1,20,"P 81","","",TRUE,"CV","q",1724,"cv","P","1","c","c",TRUE,1
"3899","CVOE updated",2009,1,1,21,"J 58","","",FALSE,"CV","q",1314,"cv","J","8","c","c",TRUE,1
"3900","CVOE updated",2009,1,1,22,"A 22","","",TRUE,"CV","p",1016,"cv","A","2","v","v",TRUE,1
"3901","CVOE updated",2009,1,1,23,"J 72","","",FALSE,"CV","q",1259,"cv","J","2","c","c",TRUE,1
"3902","CVOE updated",2009,1,1,24,"P 91","","",TRUE,"CV","p",1121,"cv","P","1","c","v",FALSE,0
"3903","CVOE updated",2009,1,1,25,"E 19","","",FALSE,"CV","p",1676,"cv","E","9","v","v",TRUE,1
"3904","CVOE updated",2009,1,1,26,"I 30","","",TRUE,"CV","p",3608,"cv","I","0","v","v",TRUE,1
"3905","CVOE updated",2009,1,1,27,"D 91","","",TRUE,"CV","q",1157,"cv","D","1","c","c",TRUE,1
"3906","CVOE updated",2009,1,1,28,"O 48","","",TRUE,"CV","p",1850,"cv","O","8","v","v",TRUE,1
"3907","CVOE updated",2009,1,1,29,"A 89","","",FALSE,"CV","p",1347,"cv","A","9","v","v",TRUE,1
"3908","CVOE updated",2009,1,1,30,"U 11","","",FALSE,"CV","p",1107,"cv","U","1","v","v",TRUE,1
"3909","CVOE updated",2009,1,1,31,"I 76","","",TRUE,"CV","p",1305,"cv","I","6","v","v",TRUE,1
"3910","CVOE updated",2009,1,1,32,"U 89","","",FALSE,"CV","p",1382,"cv","U","9","v","v",TRUE,1
"3911","CVOE updated",2009,1,1,33,"D 63","","",TRUE,"CV","q",1079,"cv","D","3","c","c",TRUE,1
"3912","CVOE updated",2009,1,1,34,"H 70","","",FALSE,"CV","p",1071,"cv","H","0","c","v",FALSE,0
"3913","CVOE updated",2009,1,1,35,"D 48","","",FALSE,"CV","p",877,"cv","D","8","c","v",FALSE,0
"3914","CVOE updated",2009,1,1,36,"P 56","","",FALSE,"CV","p",1122,"cv","P","6","c","v",FALSE,0
"3915","CVOE updated",2009,1,1,37,"O 77","","",FALSE,"CV","p",9040,"cv","O","7","v","v",TRUE,1
"3916","CVOE updated",2009,1,1,38,"P 42","","",FALSE,"CV","q",1956,"cv","P","2","c","c",TRUE,1
"3917","CVOE updated",2009,1,1,39,"H 22","","",FALSE,"CV","q",1916,"cv","H","2","c","c",TRUE,1
"3918","CVOE updated",2009,1,1,40,"E 42","","",TRUE,"CV","p",950,"cv","E","2","v","v",TRUE,1
"3919","CVOE updated",2009,1,1,41,"J 28","","",FALSE,"CV","q",1536,"cv","J","8","c","c",TRUE,1
"3920","CVOE updated",2009,1,1,42,"E 95","","",FALSE,"CV","p",858,"cv","E","5","v","v",TRUE,1
"3921","CVOE updated",2009,1,1,43,"S 63","","",TRUE,"CV","q",1189,"cv","S","3","c","c",TRUE,1
"3922","CVOE updated",2009,1,1,44,"H 50","","",FALSE,"CV","q",2180,"cv","H","0","c","c",TRUE,1
"3923","CVOE updated",2009,1,1,45,"S 33","","",TRUE,"CV","q",1356,"cv","S","3","c","c",TRUE,1
"3924","CVOE updated",2009,1,1,46,"P 57","","",TRUE,"CV","q",3644,"cv","P","7","c","c",TRUE,1
"3925","CVOE updated",2009,1,1,47,"E 23","","",FALSE,"CV","p",1902,"cv","E","3","v","v",TRUE,1
"3926","CVOE updated",2009,1,1,48,"S 61","","",TRUE,"CV","q",3401,"cv","S","1","c","c",TRUE,1
"3927","CVOE updated",2009,1,1,49,"U 67","","",FALSE,"CV","p",2026,"cv","U","7","v","v",TRUE,1
"3928","CVOE updated",2009,1,1,50,"H 32","","",FALSE,"CV","q",1099,"cv","H","2","c","c",TRUE,1
"3929","CVOE updated",2009,1,1,51,"U 50","","",TRUE,"CV","p",1135,"cv","U","0","v","v",TRUE,1
"3930","CVOE updated",2009,1,1,52,"O 49","","",FALSE,"CV","p",1655,"cv","O","9","v","v",TRUE,1
"3931","CVOE updated",2009,1,1,53,"U 32","","",TRUE,"CV","p",1725,"cv","U","2","v","v",TRUE,1
"3932","CVOE updated",2009,1,1,54,"J 78","","",FALSE,"CV","q",994,"cv","J","8","c","c",TRUE,1
"3933","CVOE updated",2009,1,1,55,"S 54","","",FALSE,"CV","q",1545,"cv","S","4","c","c",TRUE,1
"3934","CVOE updated",2009,1,1,56,"J 27","","",TRUE,"CV","q",1733,"cv","J","7","c","c",TRUE,1
"3935","CVOE updated",2009,1,1,57,"S 06","","",FALSE,"CV","q",1800,"cv","S","6","c","c",TRUE,1
"3936","CVOE updated",2009,1,1,58,"D 67","","",TRUE,"CV","q",1327,"cv","D","7","c","c",TRUE,1
"3937","CVOE updated",2009,1,1,59,"A 79","","",FALSE,"CV","p",886,"cv","A","9","v","v",TRUE,1
"3938","CVOE updated",2009,1,1,60,"S 52","","",FALSE,"CV","q",1979,"cv","S","2","c","c",TRUE,1
"3939","CVOE updated",2009,1,1,61,"U 16","","",TRUE,"CV","p",1199,"cv","U","6","v","v",TRUE,1
"3940","CVOE updated",2009,1,1,62,"O 82","","",TRUE,"CV","p",1391,"cv","O","2","v","v",TRUE,1
"3941","CVOE updated",2009,1,1,63,"H 87","","",TRUE,"CV","q",1116,"cv","H","7","c","c",TRUE,1
"3942","CVOE updated",2009,1,1,64,"I 32","","",TRUE,"CV","p",1239,"cv","I","2","v","v",TRUE,1
"3943","CVOE updated",2009,1,1,65,"U 37","","",FALSE,"CV","p",1311,"cv","U","7","v","v",TRUE,1
"3944","CVOE updated",2009,1,1,66,"I 42","","",TRUE,"CV","p",1369,"cv","I","2","v","v",TRUE,1
"3945","CVOE updated",2009,1,1,67,"D 65","","",TRUE,"CV","q",1020,"cv","D","5","c","c",TRUE,1
"3946","CVOE updated",2009,1,1,68,"U 77","","",FALSE,"CV","p",1122,"cv","U","7","v","v",TRUE,1
"3947","CVOE updated",2009,1,1,69,"E 12","","",TRUE,"CV","p",1271,"cv","E","2","v","v",TRUE,1
"3948","CVOE updated",2009,1,1,70,"I 60","","",TRUE,"CV","p",959,"cv","I","0","v","v",TRUE,1
"3949","CVOE updated",2009,1,1,71,"J 36","","",FALSE,"CV","q",908,"cv","J","6","c","c",TRUE,1
"3950","CVOE updated",2009,1,1,72,"H 75","","",TRUE,"CV","p",1199,"cv","H","5","c","v",FALSE,0
"3951","CVOE updated",2009,1,1,73,"I 50","","",TRUE,"CV","p",1844,"cv","I","0","v","v",TRUE,1
"3952","CVOE updated",2009,1,1,74,"E 99","","",FALSE,"CV","p",4705,"cv","E","9","v","v",TRUE,1
"3953","CVOE updated",2009,1,1,75,"A 86","","",TRUE,"CV","p",1130,"cv","A","6","v","v",TRUE,1
"3954","CVOE updated",2009,1,1,76,"U 48","","",TRUE,"CV","p",1251,"cv","U","8","v","v",TRUE,1
"3955","CVOE updated",2009,1,1,77,"E 01","","",FALSE,"CV","p",1079,"cv","E","1","v","v",TRUE,1
"3956","CVOE updated",2009,1,1,78,"A 78","","",TRUE,"CV","p",1146,"cv","A","8","v","v",TRUE,1
"3957","CVOE updated",2009,1,1,79,"P 60","","",FALSE,"CV","q",1904,"cv","P","0","c","c",TRUE,1
"3958","CVOE updated",2009,1,1,80,"E 43","","",FALSE,"CV","p",1279,"cv","E","3","v","v",TRUE,1
"3959","CVOE updated",2009,1,1,81,"D 69","","",TRUE,"CV","q",2209,"cv","D","9","c","c",TRUE,1
"3960","CVOE updated",2009,1,1,82,"H 11","","",TRUE,"CV","q",2559,"cv","H","1","c","c",TRUE,1
"3961","CVOE updated",2009,1,1,83,"P 43","","",TRUE,"CV","q",1231,"cv","P","3","c","c",TRUE,1
"3962","CVOE updated",2009,1,1,84,"O 67","","",FALSE,"CV","p",1379,"cv","O","7","v","v",TRUE,1
"3963","CVOE updated",2009,1,1,85,"S 91","","",FALSE,"CV","q",1360,"cv","S","1","c","c",TRUE,1
"3964","CVOE updated",2009,1,1,86,"J 68","","",TRUE,"CV","q",1170,"cv","J","8","c","c",TRUE,1
"3965","CVOE updated",2009,1,1,87,"S 47","","",FALSE,"CV","q",559,"cv","S","7","c","c",TRUE,1
"3966","CVOE updated",2009,1,1,88,"I 81","","",TRUE,"CV","p",828,"cv","I","1","v","v",TRUE,1
"3967","CVOE updated",2009,1,1,89,"J 39","","",FALSE,"CV","q",1027,"cv","J","9","c","c",TRUE,1
"3968","CVOE updated",2009,1,1,90,"A 11","","",TRUE,"CV","p",962,"cv","A","1","v","v",TRUE,1
"3969","CVOE updated",2009,1,1,91,"O 76","","",FALSE,"CV","p",946,"cv","O","6","v","v",TRUE,1
"3970","CVOE updated",2009,1,1,92,"A 62","","",FALSE,"CV","p",705,"cv","A","2","v","v",TRUE,1
"3971","CVOE updated",2009,1,1,93,"O 27","","",TRUE,"CV","p",877,"cv","O","7","v","v",TRUE,1
"3972","CVOE updated",2009,1,1,94,"E 66","","",FALSE,"CV","p",1030,"cv","E","6","v","v",TRUE,1
"3973","CVOE updated",2009,1,1,95,"J 62","","",TRUE,"CV","q",1111,"cv","J","2","c","c",TRUE,1
"3974","CVOE updated",2009,1,1,96,"H 72","","",TRUE,"CV","q",1183,"cv","H","2","c","c",TRUE,1
"3975","CVOE updated",2009,1,1,97,"E 49","","",TRUE,"CV","p",985,"cv","E","9","v","v",TRUE,1
"3976","CVOE updated",2009,1,1,98,"D 52","","",TRUE,"CV","q",1248,"cv","D","2","c","c",TRUE,1
"3977","CVOE updated",2009,1,1,99,"H 62","","",TRUE,"CV","q",1315,"cv","H","2","c","c",TRUE,1
"3978","CVOE updated",2009,1,1,100,"I 11","","",TRUE,"CV","p",831,"cv","I","1","v","v",TRUE,1
"3979","CVOE updated",2009,1,1,101,"A 98","","",FALSE,"CV","p",954,"cv","A","8","v","v",TRUE,1
"3980","CVOE updated",2009,1,1,102,"H 29","","",FALSE,"CV","q",1081,"cv","H","9","c","c",TRUE,1
"3981","CVOE updated",2009,1,1,103,"E 83","","",TRUE,"CV","p",888,"cv","E","3","v","v",TRUE,1
"3982","CVOE updated",2009,1,1,104,"D 43","","",FALSE,"CV","q",848,"cv","D","3","c","c",TRUE,1
"3983","CVOE updated",2009,1,1,105,"P 45","","",TRUE,"CV","q",764,"cv","P","5","c","c",TRUE,1
"3984","CVOE updated",2009,1,1,106,"J 17","","",TRUE,"CV","q",789,"cv","J","7","c","c",TRUE,1
"4417","CVOE_B",1006,1,2,11,"A 71","","",FALSE,"CV","p",2229,"cv","A","1","v","v",TRUE,1
"4418","CVOE_B",1006,1,2,12,"I 66","","",TRUE,"CV","p",710,"cv","I","6","v","v",TRUE,1
"4419","CVOE_B",1006,1,2,13,"S 30","","",FALSE,"CV","q",682,"cv","S","0","c","c",TRUE,1
"4420","CVOE_B",1006,1,2,14,"D 20","","",FALSE,"CV","q",1436,"cv","D","0","c","c",TRUE,1
"4421","CVOE_B",1006,1,2,15,"I 31","","",FALSE,"CV","p",672,"cv","I","1","v","v",TRUE,1
"4422","CVOE_B",1006,1,2,16,"P 16","","",FALSE,"CV","q",745,"cv","P","6","c","c",TRUE,1
"4423","CVOE_B",1006,1,2,17,"A 49","","",FALSE,"CV","p",1061,"cv","A","9","v","v",TRUE,1
"4424","CVOE_B",1006,1,2,18,"O 64","","",TRUE,"CV","p",693,"cv","O","4","v","v",TRUE,1
"4425","CVOE_B",1006,1,2,19,"D 02","","",FALSE,"CV","q",761,"cv","D","2","c","c",TRUE,1
"4426","CVOE_B",1006,1,2,20,"P 81","","",TRUE,"CV","q",2443,"cv","P","1","c","c",TRUE,1
"4427","CVOE_B",1006,1,2,21,"J 58","","",FALSE,"CV","q",1440,"cv","J","8","c","c",TRUE,1
"4428","CVOE_B",1006,1,2,22,"A 22","","",TRUE,"CV","p",666,"cv","A","2","v","v",TRUE,1
"4429","CVOE_B",1006,1,2,23,"J 72","","",FALSE,"CV","q",606,"cv","J","2","c","c",TRUE,1
"4430","CVOE_B",1006,1,2,24,"P 91","","",TRUE,"CV","q",563,"cv","P","1","c","c",TRUE,1
"4431","CVOE_B",1006,1,2,25,"E 19","","",FALSE,"CV","p",605,"cv","E","9","v","v",TRUE,1
"4432","CVOE_B",1006,1,2,26,"I 30","","",TRUE,"CV","p",1724,"cv","I","0","v","v",TRUE,1
"4433","CVOE_B",1006,1,2,27,"D 91","","",TRUE,"CV","q",536,"cv","D","1","c","c",TRUE,1
"4434","CVOE_B",1006,1,2,28,"O 48","","",TRUE,"CV","p",619,"cv","O","8","v","v",TRUE,1
"4435","CVOE_B",1006,1,2,29,"A 89","","",FALSE,"CV","p",887,"cv","A","9","v","v",TRUE,1
"4436","CVOE_B",1006,1,2,30,"U 11","","",FALSE,"CV","p",800,"cv","U","1","v","v",TRUE,1
"4437","CVOE_B",1006,1,2,31,"I 76","","",TRUE,"CV","p",1328,"cv","I","6","v","v",TRUE,1
"4438","CVOE_B",1006,1,2,32,"U 89","","",FALSE,"CV","p",897,"cv","U","9","v","v",TRUE,1
"4439","CVOE_B",1006,1,2,33,"D 63","","",TRUE,"CV","q",542,"cv","D","3","c","c",TRUE,1
"4440","CVOE_B",1006,1,2,34,"H 70","","",FALSE,"CV","q",566,"cv","H","0","c","c",TRUE,1
"4441","CVOE_B",1006,1,2,35,"D 48","","",FALSE,"CV","q",634,"cv","D","8","c","c",TRUE,1
"4442","CVOE_B",1006,1,2,36,"P 56","","",FALSE,"CV","q",740,"cv","P","6","c","c",TRUE,1
"4443","CVOE_B",1006,1,2,37,"O 77","","",FALSE,"CV","p",604,"cv","O","7","v","v",TRUE,1
"4444","CVOE_B",1006,1,2,38,"P 42","","",FALSE,"CV","q",646,"cv","P","2","c","c",TRUE,1
"4445","CVOE_B",1006,1,2,39,"H 22","","",FALSE,"CV","q",625,"cv","H","2","c","c",TRUE,1
"4446","CVOE_B",1006,1,2,40,"E 42","","",TRUE,"CV","p",623,"cv","E","2","v","v",TRUE,1
"4447","CVOE_B",1006,1,2,41,"J 28","","",FALSE,"CV","q",571,"cv","J","8","c","c",TRUE,1
"4448","CVOE_B",1006,1,2,42,"E 95","","",FALSE,"CV","p",557,"cv","E","5","v","v",TRUE,1
"4449","CVOE_B",1006,1,2,43,"S 63","","",TRUE,"CV","q",683,"cv","S","3","c","c",TRUE,1
"4450","CVOE_B",1006,1,2,44,"H 50","","",FALSE,"CV","q",641,"cv","H","0","c","c",TRUE,1
"4451","CVOE_B",1006,1,2,45,"S 33","","",TRUE,"CV","q",719,"cv","S","3","c","c",TRUE,1
"4452","CVOE_B",1006,1,2,46,"P 57","","",TRUE,"CV","q",581,"cv","P","7","c","c",TRUE,1
"4453","CVOE_B",1006,1,2,47,"E 23","","",FALSE,"CV","p",638,"cv","E","3","v","v",TRUE,1
"4454","CVOE_B",1006,1,2,48,"S 61","","",TRUE,"CV","q",1662,"cv","S","1","c","c",TRUE,1
"4455","CVOE_B",1006,1,2,49,"U 67","","",FALSE,"CV","p",689,"cv","U","7","v","v",TRUE,1
"4456","CVOE_B",1006,1,2,50,"H 32","","",FALSE,"CV","q",1637,"cv","H","2","c","c",TRUE,1
"4457","CVOE_B",1006,1,2,51,"U 50","","",TRUE,"CV","p",616,"cv","U","0","v","v",TRUE,1
"4458","CVOE_B",1006,1,2,52,"O 49","","",FALSE,"CV","p",623,"cv","O","9","v","v",TRUE,1
"4459","CVOE_B",1006,1,2,53,"U 32","","",TRUE,"CV","p",608,"cv","U","2","v","v",TRUE,1
"4460","CVOE_B",1006,1,2,54,"J 78","","",FALSE,"CV","q",605,"cv","J","8","c","c",TRUE,1
"4461","CVOE_B",1006,1,2,55,"S 54","","",FALSE,"CV","q",1530,"cv","S","4","c","c",TRUE,1
"4462","CVOE_B",1006,1,2,56,"J 27","","",TRUE,"CV","q",653,"cv","J","7","c","c",TRUE,1
"4463","CVOE_B",1006,1,2,57,"S 06","","",FALSE,"CV","q",557,"cv","S","6","c","c",TRUE,1
"4464","CVOE_B",1006,1,2,58,"D 67","","",TRUE,"CV","q",592,"cv","D","7","c","c",TRUE,1
"4465","CVOE_B",1006,1,2,59,"A 79","","",FALSE,"CV","p",428,"cv","A","9","v","v",TRUE,1
"4466","CVOE_B",1006,1,2,60,"S 52","","",FALSE,"CV","q",555,"cv","S","2","c","c",TRUE,1
"4467","CVOE_B",1006,1,2,61,"U 16","","",TRUE,"CV","p",594,"cv","U","6","v","v",TRUE,1
"4468","CVOE_B",1006,1,2,62,"O 82","","",TRUE,"CV","p",789,"cv","O","2","v","v",TRUE,1
"4469","CVOE_B",1006,1,2,63,"H 87","","",TRUE,"CV","q",504,"cv","H","7","c","c",TRUE,1
"4470","CVOE_B",1006,1,2,64,"I 32","","",TRUE,"CV","p",562,"cv","I","2","v","v",TRUE,1
"4471","CVOE_B",1006,1,2,65,"U 37","","",FALSE,"CV","p",1075,"cv","U","7","v","v",TRUE,1
"4472","CVOE_B",1006,1,2,66,"I 42","","",TRUE,"CV","p",614,"cv","I","2","v","v",TRUE,1
"4473","CVOE_B",1006,1,2,67,"D 65","","",TRUE,"CV","q",626,"cv","D","5","c","c",TRUE,1
"4474","CVOE_B",1006,1,2,68,"U 77","","",FALSE,"CV","p",702,"cv","U","7","v","v",TRUE,1
"4475","CVOE_B",1006,1,2,69,"E 12","","",TRUE,"CV","p",624,"cv","E","2","v","v",TRUE,1
"4476","CVOE_B",1006,1,2,70,"I 60","","",TRUE,"CV","p",552,"cv","I","0","v","v",TRUE,1
"4477","CVOE_B",1006,1,2,71,"J 36","","",FALSE,"CV","q",643,"cv","J","6","c","c",TRUE,1
"4478","CVOE_B",1006,1,2,72,"H 75","","",TRUE,"CV","q",864,"cv","H","5","c","c",TRUE,1
"4479","CVOE_B",1006,1,2,73,"I 50","","",TRUE,"CV","p",555,"cv","I","0","v","v",TRUE,1
"4480","CVOE_B",1006,1,2,74,"E 99","","",FALSE,"CV","p",707,"cv","E","9","v","v",TRUE,1
"4481","CVOE_B",1006,1,2,75,"A 86","","",TRUE,"CV","p",460,"cv","A","6","v","v",TRUE,1
"4482","CVOE_B",1006,1,2,76,"U 48","","",TRUE,"CV","p",541,"cv","U","8","v","v",TRUE,1
"4483","CVOE_B",1006,1,2,77,"E 01","","",FALSE,"CV","p",573,"cv","E","1","v","v",TRUE,1
"4484","CVOE_B",1006,1,2,78,"A 78","","",TRUE,"CV","p",546,"cv","A","8","v","v",TRUE,1
"4485","CVOE_B",1006,1,2,79,"P 60","","",FALSE,"CV","q",582,"cv","P","0","c","c",TRUE,1
"4486","CVOE_B",1006,1,2,80,"E 43","","",FALSE,"CV","p",916,"cv","E","3","v","v",TRUE,1
"4487","CVOE_B",1006,1,2,81,"D 69","","",TRUE,"CV","q",557,"cv","D","9","c","c",TRUE,1
"4488","CVOE_B",1006,1,2,82,"H 11","","",TRUE,"CV","q",877,"cv","H","1","c","c",TRUE,1
"4489","CVOE_B",1006,1,2,83,"P 43","","",TRUE,"CV","q",547,"cv","P","3","c","c",TRUE,1
"4490","CVOE_B",1006,1,2,84,"O 67","","",FALSE,"CV","p",545,"cv","O","7","v","v",TRUE,1
"4491","CVOE_B",1006,1,2,85,"S 91","","",FALSE,"CV","q",875,"cv","S","1","c","c",TRUE,1
"4492","CVOE_B",1006,1,2,86,"J 68","","",TRUE,"CV","q",737,"cv","J","8","c","c",TRUE,1
"4493","CVOE_B",1006,1,2,87,"S 47","","",FALSE,"CV","q",491,"cv","S","7","c","c",TRUE,1
"4494","CVOE_B",1006,1,2,88,"I 81","","",TRUE,"CV","p",528,"cv","I","1","v","v",TRUE,1
"4495","CVOE_B",1006,1,2,89,"J 39","","",FALSE,"CV","q",1999,"cv","J","9","c","c",TRUE,1
"4496","CVOE_B",1006,1,2,90,"A 11","","",TRUE,"CV","p",670,"cv","A","1","v","v",TRUE,1
"4497","CVOE_B",1006,1,2,91,"O 76","","",FALSE,"CV","p",449,"cv","O","6","v","v",TRUE,1
"4498","CVOE_B",1006,1,2,92,"A 62","","",FALSE,"CV","p",529,"cv","A","2","v","v",TRUE,1
"4499","CVOE_B",1006,1,2,93,"O 27","","",TRUE,"CV","p",473,"cv","O","7","v","v",TRUE,1
"4500","CVOE_B",1006,1,2,94,"E 66","","",FALSE,"CV","p",526,"cv","E","6","v","v",TRUE,1
"4501","CVOE_B",1006,1,2,95,"J 62","","",TRUE,"CV","q",532,"cv","J","2","c","c",TRUE,1
"4502","CVOE_B",1006,1,2,96,"H 72","","",TRUE,"CV","q",521,"cv","H","2","c","c",TRUE,1
"4503","CVOE_B",1006,1,2,97,"E 49","","",TRUE,"CV","p",560,"cv","E","9","v","v",TRUE,1
"4504","CVOE_B",1006,1,2,98,"D 52","","",TRUE,"CV","q",841,"cv","D","2","c","c",TRUE,1
"4505","CVOE_B",1006,1,2,99,"H 62","","",TRUE,"CV","q",572,"cv","H","2","c","c",TRUE,1
"4506","CVOE_B",1006,1,2,100,"I 11","","",TRUE,"CV","p",592,"cv","I","1","v","v",TRUE,1
"4507","CVOE_B",1006,1,2,101,"A 98","","",FALSE,"CV","p",477,"cv","A","8","v","v",TRUE,1
"4508","CVOE_B",1006,1,2,102,"H 29","","",FALSE,"CV","q",1082,"cv","H","9","c","c",TRUE,1
"4509","CVOE_B",1006,1,2,103,"E 83","","",TRUE,"CV","p",672,"cv","E","3","v","v",TRUE,1
"4510","CVOE_B",1006,1,2,104,"D 43","","",FALSE,"CV","q",904,"cv","D","3","c","c",TRUE,1
"4511","CVOE_B",1006,1,2,105,"P 45","","",TRUE,"CV","q",640,"cv","P","5","c","c",TRUE,1
"4512","CVOE_B",1006,1,2,106,"J 17","","",TRUE,"CV","q",567,"cv","J","7","c","c",TRUE,1
"4849","CVOE_B",1010,1,2,11,"A 71","","",FALSE,"CV","p",13441,"cv","A","1","v","v",TRUE,1
"4850","CVOE_B",1010,1,2,12,"I 66","","",TRUE,"CV","p",2345,"cv","I","6","v","v",TRUE,1
"4851","CVOE_B",1010,1,2,13,"S 30","","",FALSE,"CV","q",1734,"cv","S","0","c","c",TRUE,1
"4852","CVOE_B",1010,1,2,14,"D 20","","",FALSE,"CV","q",2100,"cv","D","0","c","c",TRUE,1
"4853","CVOE_B",1010,1,2,15,"I 31","","",FALSE,"CV","q",1525,"cv","I","1","v","c",FALSE,0
"4854","CVOE_B",1010,1,2,16,"P 16","","",FALSE,"CV","q",2655,"cv","P","6","c","c",TRUE,1
"4855","CVOE_B",1010,1,2,17,"A 49","","",FALSE,"CV","p",1261,"cv","A","9","v","v",TRUE,1
"4856","CVOE_B",1010,1,2,18,"O 64","","",TRUE,"CV","p",3823,"cv","O","4","v","v",TRUE,1
"4857","CVOE_B",1010,1,2,19,"D 02","","",FALSE,"CV","q",2386,"cv","D","2","c","c",TRUE,1
"4858","CVOE_B",1010,1,2,20,"P 81","","",TRUE,"CV","q",2728,"cv","P","1","c","c",TRUE,1
"4859","CVOE_B",1010,1,2,21,"J 58","","",FALSE,"CV","q",2067,"cv","J","8","c","c",TRUE,1
"4860","CVOE_B",1010,1,2,22,"A 22","","",TRUE,"CV","p",2113,"cv","A","2","v","v",TRUE,1
"4861","CVOE_B",1010,1,2,23,"J 72","","",FALSE,"CV","q",4983,"cv","J","2","c","c",TRUE,1
"4862","CVOE_B",1010,1,2,24,"P 91","","",TRUE,"CV","q",4028,"cv","P","1","c","c",TRUE,1
"4863","CVOE_B",1010,1,2,25,"E 19","","",FALSE,"CV","p",1636,"cv","E","9","v","v",TRUE,1
"4864","CVOE_B",1010,1,2,26,"I 30","","",TRUE,"CV","p",1653,"cv","I","0","v","v",TRUE,1
"4865","CVOE_B",1010,1,2,27,"D 91","","",TRUE,"CV","q",1532,"cv","D","1","c","c",TRUE,1
"4866","CVOE_B",1010,1,2,28,"O 48","","",TRUE,"CV","p",1424,"cv","O","8","v","v",TRUE,1
"4867","CVOE_B",1010,1,2,29,"A 89","","",FALSE,"CV","p",962,"cv","A","9","v","v",TRUE,1
"4868","CVOE_B",1010,1,2,30,"U 11","","",FALSE,"CV","p",978,"cv","U","1","v","v",TRUE,1
"4869","CVOE_B",1010,1,2,31,"I 76","","",TRUE,"CV","p",2328,"cv","I","6","v","v",TRUE,1
"4870","CVOE_B",1010,1,2,32,"U 89","","",FALSE,"CV","p",1311,"cv","U","9","v","v",TRUE,1
"4871","CVOE_B",1010,1,2,33,"D 63","","",TRUE,"CV","q",5272,"cv","D","3","c","c",TRUE,1
"4872","CVOE_B",1010,1,2,34,"H 70","","",FALSE,"CV","q",1872,"cv","H","0","c","c",TRUE,1
"4873","CVOE_B",1010,1,2,35,"D 48","","",FALSE,"CV","q",1847,"cv","D","8","c","c",TRUE,1
"4874","CVOE_B",1010,1,2,36,"P 56","","",FALSE,"CV","q",1442,"cv","P","6","c","c",TRUE,1
"4875","CVOE_B",1010,1,2,37,"O 77","","",FALSE,"CV","p",1866,"cv","O","7","v","v",TRUE,1
"4876","CVOE_B",1010,1,2,38,"P 42","","",FALSE,"CV","q",1646,"cv","P","2","c","c",TRUE,1
"4877","CVOE_B",1010,1,2,39,"H 22","","",FALSE,"CV","q",1233,"cv","H","2","c","c",TRUE,1
"4878","CVOE_B",1010,1,2,40,"E 42","","",TRUE,"CV","p",1279,"cv","E","2","v","v",TRUE,1
"4879","CVOE_B",1010,1,2,41,"J 28","","",FALSE,"CV","q",1484,"cv","J","8","c","c",TRUE,1
"4880","CVOE_B",1010,1,2,42,"E 95","","",FALSE,"CV","p",1762,"cv","E","5","v","v",TRUE,1
"4881","CVOE_B",1010,1,2,43,"S 63","","",TRUE,"CV","q",2427,"cv","S","3","c","c",TRUE,1
"4882","CVOE_B",1010,1,2,44,"H 50","","",FALSE,"CV","q",2038,"cv","H","0","c","c",TRUE,1
"4883","CVOE_B",1010,1,2,45,"S 33","","",TRUE,"CV","q",1591,"cv","S","3","c","c",TRUE,1
"4884","CVOE_B",1010,1,2,46,"P 57","","",TRUE,"CV","q",1450,"cv","P","7","c","c",TRUE,1
"4885","CVOE_B",1010,1,2,47,"E 23","","",FALSE,"CV","p",742,"cv","E","3","v","v",TRUE,1
"4886","CVOE_B",1010,1,2,48,"S 61","","",TRUE,"CV","q",1034,"cv","S","1","c","c",TRUE,1
"4887","CVOE_B",1010,1,2,49,"U 67","","",FALSE,"CV","p",1006,"cv","U","7","v","v",TRUE,1
"4888","CVOE_B",1010,1,2,50,"H 32","","",FALSE,"CV","q",1312,"cv","H","2","c","c",TRUE,1
