"ExperimentName","Subject","Group","Block","Trial","STIM","TASK","Switch","Congruent","CVOE","Response","RT","block_type","letter","number","key2","response2","match2","score2"
"CVOE updated",1001,1,1,11,"A 71","","",FALSE,"CV","p",4811,"cv","A","1","v","v",TRUE,1
"CVOE updated",1001,1,1,12,"I 66","","",TRUE,"CV","p",1960,"cv","I","6","v","v",TRUE,1
"CVOE updated",1001,1,1,13,"S 30","","",FALSE,"CV","q",918,"cv","S","0","c","c",TRUE,1
"CVOE updated",1001,1,1,14,"D 20","","",FALSE,"CV","q",790,"cv","D","0","c","c",TRUE,1
"CVOE updated",1001,1,1,15,"I 31","","",FALSE,"CV","p",874,"cv","I","1","v","v",TRUE,1
"CVOE updated",1001,1,1,16,"P 16","","",FALSE,"CV","q",700,"cv","P","6","c","c",TRUE,1
"CVOE updated",1001,1,1,17,"A 49","","",FALSE,"CV","p",1100,"cv","A","9","v","v",TRUE,1
"CVOE updated",1001,1,1,18,"O 64","","",TRUE,"CV","p",1100,"cv","O","4","v","v",TRUE,1
"CVOE updated",1001,1,1,19,"D 02","","",FALSE,"CV","q",892,"cv","D","2","c","c",TRUE,1
"CVOE updated",1001,1,1,20,"P 81","","",TRUE,"CV","q",1116,"cv","P","1","c","c",TRUE,1
"CVOE updated",1001,1,1,21,"J 58","","",FALSE,"CV","q",828,"cv","J","8","c","c",TRUE,1
"CVOE updated",1001,1,1,22,"A 22","","",TRUE,"CV","p",679,"cv","A","2","v","v",TRUE,1
"CVOE updated",1001,1,1,23,"J 72","","",FALSE,"CV","q",999,"cv","J","2","c","c",TRUE,1
"CVOE updated",1001,1,1,24,"P 91","","",TRUE,"CV","q",1027,"cv","P","1","c","c",TRUE,1
"CVOE updated",1001,1,1,25,"E 19","","",FALSE,"CV","p",622,"cv","E","9","v","v",TRUE,1
"CVOE updated",1001,1,1,26,"I 30","","",TRUE,"CV","p",618,"cv","I","0","v","v",TRUE,1
"CVOE updated",1001,1,1,27,"D 91","","",TRUE,"CV","q",717,"cv","D","1","c","c",TRUE,1
"CVOE updated",1001,1,1,28,"O 48","","",TRUE,"CV","p",636,"cv","O","8","v","v",TRUE,1
"CVOE updated",1001,1,1,29,"A 89","","",FALSE,"CV","p",1127,"cv","A","9","v","v",TRUE,1
"CVOE updated",1001,1,1,30,"U 11","","",FALSE,"CV","p",886,"cv","U","1","v","v",TRUE,1
"CVOE updated",1001,1,1,31,"I 76","","",TRUE,"CV","p",726,"cv","I","6","v","v",TRUE,1
"CVOE updated",1001,1,1,32,"U 89","","",FALSE,"CV","p",669,"cv","U","9","v","v",TRUE,1
"CVOE updated",1001,1,1,33,"D 63","","",TRUE,"CV","q",758,"cv","D","3","c","c",TRUE,1
"CVOE updated",1001,1,1,34,"H 70","","",FALSE,"CV","q",1052,"cv","H","0","c","c",TRUE,1
"CVOE updated",1001,1,1,35,"D 48","","",FALSE,"CV","q",591,"cv","D","8","c","c",TRUE,1
"CVOE updated",1001,1,1,36,"P 56","","",FALSE,"CV","q",635,"cv","P","6","c","c",TRUE,1
"CVOE updated",1001,1,1,37,"O 77","","",FALSE,"CV","p",645,"cv","O","7","v","v",TRUE,1
"CVOE updated",1001,1,1,38,"P 42","","",FALSE,"CV","q",776,"cv","P","2","c","c",TRUE,1
"CVOE updated",1001,1,1,39,"H 22","","",FALSE,"CV","q",668,"cv","H","2","c","c",TRUE,1
"CVOE updated",1001,1,1,40,"E 42","","",TRUE,"CV","p",574,"cv","E","2","v","v",TRUE,1
"CVOE updated",1001,1,1,41,"J 28","","",FALSE,"CV","q",690,"cv","J","8","c","c",TRUE,1
"CVOE updated",1001,1,1,42,"E 95","","",FALSE,"CV","p",787,"cv","E","5","v","v",TRUE,1
"CVOE updated",1001,1,1,43,"S 63","","",TRUE,"CV","q",1031,"cv","S","3","c","c",TRUE,1
"CVOE updated",1001,1,1,44,"H 50","","",FALSE,"CV","q",602,"cv","H","0","c","c",TRUE,1
"CVOE updated",1001,1,1,45,"S 33","","",TRUE,"CV","q",646,"cv","S","3","c","c",TRUE,1
"CVOE updated",1001,1,1,46,"P 57","","",TRUE,"CV","q",632,"cv","P","7","c","c",TRUE,1
"CVOE updated",1001,1,1,47,"E 23","","",FALSE,"CV","p",699,"cv","E","3","v","v",TRUE,1
"CVOE updated",1001,1,1,48,"S 61","","",TRUE,"CV","q",763,"cv","S","1","c","c",TRUE,1
"CVOE updated",1001,1,1,49,"U 67","","",FALSE,"CV","p",560,"cv","U","7","v","v",TRUE,1
"CVOE updated",1001,1,1,50,"H 32","","",FALSE,"CV","q",685,"cv","H","2","c","c",TRUE,1
"CVOE updated",1001,1,1,51,"U 50","","",TRUE,"CV","p",502,"cv","U","0","v","v",TRUE,1
"CVOE updated",1001,1,1,52,"O 49","","",FALSE,"CV","p",630,"cv","O","9","v","v",TRUE,1
"CVOE updated",1001,1,1,53,"U 32","","",TRUE,"CV","p",609,"cv","U","2","v","v",TRUE,1
"CVOE updated",1001,1,1,54,"J 78","","",FALSE,"CV","q",716,"cv","J","8","c","c",TRUE,1
"CVOE updated",1001,1,1,55,"S 54","","",FALSE,"CV","q",635,"cv","S","4","c","c",TRUE,1
"CVOE updated",1001,1,1,56,"J 27","","",TRUE,"CV","q",566,"cv","J","7","c","c",TRUE,1
"CVOE updated",1001,1,1,57,"S 06","","",FALSE,"CV","q",635,"cv","S","6","c","c",TRUE,1
"CVOE updated",1001,1,1,58,"D 67","","",TRUE,"CV","q",766,"cv","D","7","c","c",TRUE,1
"CVOE updated",1001,1,1,59,"A 79","","",FALSE,"CV","p",771,"cv","A","9","v","v",TRUE,1
"CVOE updated",1001,1,1,60,"S 52","","",FALSE,"CV","q",768,"cv","S","2","c","c",TRUE,1
"CVOE updated",1001,1,1,61,"U 16","","",TRUE,"CV","p",702,"cv","U","6","v","v",TRUE,1
"CVOE updated",1001,1,1,62,"O 82","","",TRUE,"CV","p",590,"cv","O","2","v","v",TRUE,1
"CVOE updated",1001,1,1,63,"H 87","","",TRUE,"CV","q",722,"cv","H","7","c","c",TRUE,1
"CVOE updated",1001,1,1,64,"I 32","","",TRUE,"CV","p",1330,"cv","I","2","v","v",TRUE,1
"CVOE updated",1001,1,1,65,"U 37","","",FALSE,"CV","p",833,"cv","U","7","v","v",TRUE,1
"CVOE updated",1001,1,1,66,"I 42","","",TRUE,"CV","p",620,"cv","I","2","v","v",TRUE,1
"CVOE updated",1001,1,1,67,"D 65","","",TRUE,"CV","q",679,"cv","D","5","c","c",TRUE,1
"CVOE updated",1001,1,1,68,"U 77","","",FALSE,"CV","p",743,"cv","U","7","v","v",TRUE,1
"CVOE updated",1001,1,1,69,"E 12","","",TRUE,"CV","p",1326,"cv","E","2","v","v",TRUE,1
"CVOE updated",1001,1,1,70,"I 60","","",TRUE,"CV","p",565,"cv","I","0","v","v",TRUE,1
"CVOE updated",1001,1,1,71,"J 36","","",FALSE,"CV","q",698,"cv","J","6","c","c",TRUE,1
"CVOE updated",1001,1,1,72,"H 75","","",TRUE,"CV","q",778,"cv","H","5","c","c",TRUE,1
"CVOE updated",1001,1,1,73,"I 50","","",TRUE,"CV","p",742,"cv","I","0","v","v",TRUE,1
"CVOE updated",1001,1,1,74,"E 99","","",FALSE,"CV","p",725,"cv","E","9","v","v",TRUE,1
"CVOE updated",1001,1,1,75,"A 86","","",TRUE,"CV","p",1019,"cv","A","6","v","v",TRUE,1
"CVOE updated",1001,1,1,76,"U 48","","",TRUE,"CV","p",631,"cv","U","8","v","v",TRUE,1
"CVOE updated",1001,1,1,77,"E 01","","",FALSE,"CV","p",649,"cv","E","1","v","v",TRUE,1
"CVOE updated",1001,1,1,78,"A 78","","",TRUE,"CV","p",699,"cv","A","8","v","v",TRUE,1
"CVOE updated",1001,1,1,79,"P 60","","",FALSE,"CV","q",803,"cv","P","0","c","c",TRUE,1
"CVOE updated",1001,1,1,80,"E 43","","",FALSE,"CV","p",975,"cv","E","3","v","v",TRUE,1
"CVOE updated",1001,1,1,81,"D 69","","",TRUE,"CV","q",924,"cv","D","9","c","c",TRUE,1
"CVOE updated",1001,1,1,82,"H 11","","",TRUE,"CV","q",612,"cv","H","1","c","c",TRUE,1
"CVOE updated",1001,1,1,83,"P 43","","",TRUE,"CV","q",543,"cv","P","3","c","c",TRUE,1
"CVOE updated",1001,1,1,84,"O 67","","",FALSE,"CV","p",613,"cv","O","7","v","v",TRUE,1
"CVOE updated",1001,1,1,85,"S 91","","",FALSE,"CV","q",728,"cv","S","1","c","c",TRUE,1
"CVOE updated",1001,1,1,86,"J 68","","",TRUE,"CV","q",671,"cv","J","8","c","c",TRUE,1
"CVOE updated",1001,1,1,87,"S 47","","",FALSE,"CV","q",624,"cv","S","7","c","c",TRUE,1
"CVOE updated",1001,1,1,88,"I 81","","",TRUE,"CV","p",659,"cv","I","1","v","v",TRUE,1
"CVOE updated",1001,1,1,89,"J 39","","",FALSE,"CV","q",805,"cv","J","9","c","c",TRUE,1
"CVOE updated",1001,1,1,90,"A 11","","",TRUE,"CV","p",793,"cv","A","1","v","v",TRUE,1
"CVOE updated",1001,1,1,91,"O 76","","",FALSE,"CV","p",541,"cv","O","6","v","v",TRUE,1
"CVOE updated",1001,1,1,92,"A 62","","",FALSE,"CV","p",547,"cv","A","2","v","v",TRUE,1
"CVOE updated",1001,1,1,93,"O 27","","",TRUE,"CV","p",545,"cv","O","7","v","v",TRUE,1
"CVOE updated",1001,1,1,94,"E 66","","",FALSE,"CV","p",607,"cv","E","6","v","v",TRUE,1
"CVOE updated",1001,1,1,95,"J 62","","",TRUE,"CV","q",531,"cv","J","2","c","c",TRUE,1
"CVOE updated",1001,1,1,96,"H 72","","",TRUE,"CV","q",546,"cv","H","2","c","c",TRUE,1
"CVOE updated",1001,1,1,97,"E 49","","",TRUE,"CV","p",680,"cv","E","9","v","v",TRUE,1
"CVOE updated",1001,1,1,98,"D 52","","",TRUE,"CV","q",800,"cv","D","2","c","c",TRUE,1
"CVOE updated",1001,1,1,99,"H 62","","",TRUE,"CV","q",516,"cv","H","2","c","c",TRUE,1
"CVOE updated",1001,1,1,100,"I 11","","",TRUE,"CV","p",660,"cv","I","1","v","v",TRUE,1
"CVOE updated",1001,1,1,101,"A 98","","",FALSE,"CV","p",1221,"cv","A","8","v","v",TRUE,1
"CVOE updated",1001,1,1,102,"H 29","","",FALSE,"CV","q",776,"cv","H","9","c","c",TRUE,1
"CVOE updated",1001,1,1,103,"E 83","","",TRUE,"CV","p",773,"cv","E","3","v","v",TRUE,1
"CVOE updated",1001,1,1,104,"D 43","","",FALSE,"CV","q",627,"cv","D","3","c","c",TRUE,1
"CVOE updated",1001,1,1,105,"P 45","","",TRUE,"CV","q",1253,"cv","P","5","c","c",TRUE,1
"CVOE updated",1001,1,1,106,"J 17","","",TRUE,"CV","q",1015,"cv","J","7","c","c",TRUE,1
"CVOE_C",2003,1,2,11,"A 71","","",FALSE,"CV","p",30570,"cv","A","1","v","v",TRUE,1
"CVOE_C",2003,1,2,12,"I 66","","",TRUE,"CV","p",13367,"cv","I","6","v","v",TRUE,1
"CVOE_C",2003,1,2,13,"S 30","","",FALSE,"CV","q",8787,"cv","S","0","c","c",TRUE,1
"CVOE_C",2003,1,2,14,"D 20","","",FALSE,"CV","q",6059,"cv","D","0","c","c",TRUE,1
"CVOE_C",2003,1,2,15,"I 31","","",FALSE,"CV","p",7456,"cv","I","1","v","v",TRUE,1
"CVOE_C",2003,1,2,16,"P 16","","",FALSE,"CV","q",3365,"cv","P","6","c","c",TRUE,1
"CVOE_C",2003,1,2,17,"A 49","","",FALSE,"CV","p",4379,"cv","A","9","v","v",TRUE,1
"CVOE_C",2003,1,2,18,"O 64","","",TRUE,"CV","p",17482,"cv","O","4","v","v",TRUE,1
"CVOE_C",2003,1,2,19,"D 02","","",FALSE,"CV","q",4660,"cv","D","2","c","c",TRUE,1
"CVOE_C",2003,1,2,20,"P 81","","",TRUE,"CV","q",7495,"cv","P","1","c","c",TRUE,1
"CVOE_C",2003,1,2,21,"J 58","","",FALSE,"CV","q",1930,"cv","J","8","c","c",TRUE,1
"CVOE_C",2003,1,2,22,"A 22","","",TRUE,"CV","p",1737,"cv","A","2","v","v",TRUE,1
"CVOE_C",2003,1,2,23,"J 72","","",FALSE,"CV","q",1793,"cv","J","2","c","c",TRUE,1
"CVOE_C",2003,1,2,24,"P 91","","",TRUE,"CV","q",1853,"cv","P","1","c","c",TRUE,1
"CVOE_C",2003,1,2,25,"E 19","","",FALSE,"CV","p",4512,"cv","E","9","v","v",TRUE,1
"CVOE_C",2003,1,2,26,"I 30","","",TRUE,"CV","p",9577,"cv","I","0","v","v",TRUE,1
"CVOE_C",2003,1,2,27,"D 91","","",TRUE,"CV","q",1259,"cv","D","1","c","c",TRUE,1
"CVOE_C",2003,1,2,28,"O 48","","",TRUE,"CV","p",3972,"cv","O","8","v","v",TRUE,1
"CVOE_C",2003,1,2,29,"A 89","","",FALSE,"CV","p",1315,"cv","A","9","v","v",TRUE,1
"CVOE_C",2003,1,2,30,"U 11","","",FALSE,"CV","p",2275,"cv","U","1","v","v",TRUE,1
"CVOE_C",2003,1,2,31,"I 76","","",TRUE,"CV","p",6389,"cv","I","6","v","v",TRUE,1
"CVOE_C",2003,1,2,32,"U 89","","",FALSE,"CV","q",2796,"cv","U","9","v","c",FALSE,0
"CVOE_C",2003,1,2,33,"D 63","","",TRUE,"CV","q",2449,"cv","D","3","c","c",TRUE,1
"CVOE_C",2003,1,2,34,"H 70","","",FALSE,"CV","q",1572,"cv","H","0","c","c",TRUE,1
"CVOE_C",2003,1,2,35,"D 48","","",FALSE,"CV","q",1426,"cv","D","8","c","c",TRUE,1
"CVOE_C",2003,1,2,36,"P 56","","",FALSE,"CV","q",2693,"cv","P","6","c","c",TRUE,1
"CVOE_C",2003,1,2,37,"O 77","","",FALSE,"CV","p",2982,"cv","O","7","v","v",TRUE,1
"CVOE_C",2003,1,2,38,"P 42","","",FALSE,"CV","q",1972,"cv","P","2","c","c",TRUE,1
"CVOE_C",2003,1,2,39,"H 22","","",FALSE,"CV","q",11442,"cv","H","2","c","c",TRUE,1
"CVOE_C",2003,1,2,40,"E 42","","",TRUE,"CV","p",2898,"cv","E","2","v","v",TRUE,1
"CVOE_C",2003,1,2,41,"J 28","","",FALSE,"CV","q",3203,"cv","J","8","c","c",TRUE,1
"CVOE_C",2003,1,2,42,"E 95","","",FALSE,"CV","p",4152,"cv","E","5","v","v",TRUE,1
"CVOE_C",2003,1,2,43,"S 63","","",TRUE,"CV","q",1904,"cv","S","3","c","c",TRUE,1
"CVOE_C",2003,1,2,44,"H 50","","",FALSE,"CV","q",1361,"cv","H","0","c","c",TRUE,1
"CVOE_C",2003,1,2,45,"S 33","","",TRUE,"CV","q",1086,"cv","S","3","c","c",TRUE,1
"CVOE_C",2003,1,2,46,"P 57","","",TRUE,"CV","q",1287,"cv","P","7","c","c",TRUE,1
"CVOE_C",2003,1,2,47,"E 23","","",FALSE,"CV","p",2384,"cv","E","3","v","v",TRUE,1
"CVOE_C",2003,1,2,48,"S 61","","",TRUE,"CV","q",2086,"cv","S","1","c","c",TRUE,1
"CVOE_C",2003,1,2,49,"U 67","","",FALSE,"CV","p",2423,"cv","U","7","v","v",TRUE,1
"CVOE_C",2003,1,2,50,"H 32","","",FALSE,"CV","q",2699,"cv","H","2","c","c",TRUE,1
"CVOE_C",2003,1,2,51,"U 50","","",TRUE,"CV","q",1813,"cv","U","0","v","c",FALSE,0
"CVOE_C",2003,1,2,52,"O 49","","",FALSE,"CV","p",5305,"cv","O","9","v","v",TRUE,1
"CVOE_C",2003,1,2,53,"U 32","","",TRUE,"CV","p",10707,"cv","U","2","v","v",TRUE,1
"CVOE_C",2003,1,2,54,"J 78","","",FALSE,"CV","q",1864,"cv","J","8","c","c",TRUE,1
"CVOE_C",2003,1,2,55,"S 54","","",FALSE,"CV","q",1978,"cv","S","4","c","c",TRUE,1
"CVOE_C",2003,1,2,56,"J 27","","",TRUE,"CV","q",1615,"cv","J","7","c","c",TRUE,1
"CVOE_C",2003,1,2,57,"S 06","","",FALSE,"CV","q",1483,"cv","S","6","c","c",TRUE,1
"CVOE_C",2003,1,2,58,"D 67","","",TRUE,"CV","q",1660,"cv","D","7","c","c",TRUE,1
"CVOE_C",2003,1,2,59,"A 79","","",FALSE,"CV","p",1798,"cv","A","9","v","v",TRUE,1
"CVOE_C",2003,1,2,60,"S 52","","",FALSE,"CV","q",1283,"cv","S","2","c","c",TRUE,1
"CVOE_C",2003,1,2,61,"U 16","","",TRUE,"CV","q",1883,"cv","U","6","v","c",FALSE,0
"CVOE_C",2003,1,2,62,"O 82","","",TRUE,"CV","p",2933,"cv","O","2","v","v",TRUE,1
"CVOE_C",2003,1,2,63,"H 87","","",TRUE,"CV","q",1741,"cv","H","7","c","c",TRUE,1
"CVOE_C",2003,1,2,64,"I 32","","",TRUE,"CV","p",7972,"cv","I","2","v","v",TRUE,1
"CVOE_C",2003,1,2,65,"U 37","","",FALSE,"CV","q",2141,"cv","U","7","v","c",FALSE,0
"CVOE_C",2003,1,2,66,"I 42","","",TRUE,"CV","p",2524,"cv","I","2","v","v",TRUE,1
"CVOE_C",2003,1,2,67,"D 65","","",TRUE,"CV","q",3244,"cv","D","5","c","c",TRUE,1
"CVOE_C",2003,1,2,68,"U 77","","",FALSE,"CV","p",2288,"cv","U","7","v","v",TRUE,1
"CVOE_C",2003,1,2,69,"E 12","","",TRUE,"CV","q",11065,"cv","E","2","v","c",FALSE,0
"CVOE_C",2003,1,2,70,"I 60","","",TRUE,"CV","p",7080,"cv","I","0","v","v",TRUE,1
"CVOE_C",2003,1,2,71,"J 36","","",FALSE,"CV","q",2132,"cv","J","6","c","c",TRUE,1
"CVOE_C",2003,1,2,72,"H 75","","",TRUE,"CV","q",1979,"cv","H","5","c","c",TRUE,1
"CVOE_C",2003,1,2,73,"I 50","","",TRUE,"CV","p",2232,"cv","I","0","v","v",TRUE,1
"CVOE_C",2003,1,2,74,"E 99","","",FALSE,"CV","p",6068,"cv","E","9","v","v",TRUE,1
"CVOE_C",2003,1,2,75,"A 86","","",TRUE,"CV","p",2272,"cv","A","6","v","v",TRUE,1
"CVOE_C",2003,1,2,76,"U 48","","",TRUE,"CV","p",3234,"cv","U","8","v","v",TRUE,1
"CVOE_C",2003,1,2,77,"E 01","","",FALSE,"CV","p",6230,"cv","E","1","v","v",TRUE,1
"CVOE_C",2003,1,2,78,"A 78","","",TRUE,"CV","p",2644,"cv","A","8","v","v",TRUE,1
"CVOE_C",2003,1,2,79,"P 60","","",FALSE,"CV","q",4191,"cv","P","0","c","c",TRUE,1
"CVOE_C",2003,1,2,80,"E 43","","",FALSE,"CV","p",4877,"cv","E","3","v","v",TRUE,1
"CVOE_C",2003,1,2,81,"D 69","","",TRUE,"CV","q",3680,"cv","D","9","c","c",TRUE,1
"CVOE_C",2003,1,2,82,"H 11","","",TRUE,"CV","q",1386,"cv","H","1","c","c",TRUE,1
"CVOE_C",2003,1,2,83,"P 43","","",TRUE,"CV","q",1351,"cv","P","3","c","c",TRUE,1
"CVOE_C",2003,1,2,84,"O 67","","",FALSE,"CV","p",3565,"cv","O","7","v","v",TRUE,1
"CVOE_C",2003,1,2,85,"S 91","","",FALSE,"CV","q",1756,"cv","S","1","c","c",TRUE,1
"CVOE_C",2003,1,2,86,"J 68","","",TRUE,"CV","q",1259,"cv","J","8","c","c",TRUE,1
"CVOE_C",2003,1,2,87,"S 47","","",FALSE,"CV","q",1452,"cv","S","7","c","c",TRUE,1
"CVOE_C",2003,1,2,88,"I 81","","",TRUE,"CV","p",2511,"cv","I","1","v","v",TRUE,1
"CVOE_C",2003,1,2,89,"J 39","","",FALSE,"CV","q",2263,"cv","J","9","c","c",TRUE,1
"CVOE_C",2003,1,2,90,"A 11","","",TRUE,"CV","p",3945,"cv","A","1","v","v",TRUE,1
"CVOE_C",2003,1,2,91,"O 76","","",FALSE,"CV","p",3041,"cv","O","6","v","v",TRUE,1
"CVOE_C",2003,1,2,92,"A 62","","",FALSE,"CV","p",4052,"cv","A","2","v","v",TRUE,1
"CVOE_C",2003,1,2,93,"O 27","","",TRUE,"CV","p",5488,"cv","O","7","v","v",TRUE,1
"CVOE_C",2003,1,2,94,"E 66","","",FALSE,"CV","p",4084,"cv","E","6","v","v",TRUE,1
"CVOE_C",2003,1,2,95,"J 62","","",TRUE,"CV","q",1814,"cv","J","2","c","c",TRUE,1
"CVOE_C",2003,1,2,96,"H 72","","",TRUE,"CV","q",1730,"cv","H","2","c","c",TRUE,1
"CVOE_C",2003,1,2,97,"E 49","","",TRUE,"CV","p",2281,"cv","E","9","v","v",TRUE,1
"CVOE_C",2003,1,2,98,"D 52","","",TRUE,"CV","q",1955,"cv","D","2","c","c",TRUE,1
"CVOE_C",2003,1,2,99,"H 62","","",TRUE,"CV","q",1697,"cv","H","2","c","c",TRUE,1
"CVOE_C",2003,1,2,100,"I 11","","",TRUE,"CV","p",2418,"cv","I","1","v","v",TRUE,1
"CVOE_C",2003,1,2,101,"A 98","","",FALSE,"CV","p",2798,"cv","A","8","v","v",TRUE,1
"CVOE_C",2003,1,2,102,"H 29","","",FALSE,"CV","q",4971,"cv","H","9","c","c",TRUE,1
"CVOE_C",2003,1,2,103,"E 83","","",TRUE,"CV","p",3643,"cv","E","3","v","v",TRUE,1
"CVOE_C",2003,1,2,104,"D 43","","",FALSE,"CV","q",2207,"cv","D","3","c","c",TRUE,1
"CVOE_C",2003,1,2,105,"P 45","","",TRUE,"CV","q",1323,"cv","P","5","c","c",TRUE,1
"CVOE_C",2003,1,2,106,"J 17","","",TRUE,"CV","q",1619,"cv","J","7","c","c",TRUE,1
"CVOE updated",2001,1,1,11,"A 71","","",FALSE,"CV","p",4796,"cv","A","1","v","v",TRUE,1
"CVOE updated",2001,1,1,12,"I 66","","",TRUE,"CV","p",1007,"cv","I","6","v","v",TRUE,1
"CVOE updated",2001,1,1,13,"S 30","","",FALSE,"CV","q",1346,"cv","S","0","c","c",TRUE,1
"CVOE updated",2001,1,1,14,"D 20","","",FALSE,"CV","q",1432,"cv","D","0","c","c",TRUE,1
"CVOE updated",2001,1,1,15,"I 31","","",FALSE,"CV","p",1395,"cv","I","1","v","v",TRUE,1
"CVOE updated",2001,1,1,16,"P 16","","",FALSE,"CV","q",1118,"cv","P","6","c","c",TRUE,1
"CVOE updated",2001,1,1,17,"A 49","","",FALSE,"CV","p",1321,"cv","A","9","v","v",TRUE,1
"CVOE updated",2001,1,1,18,"O 64","","",TRUE,"CV","p",1105,"cv","O","4","v","v",TRUE,1
"CVOE updated",2001,1,1,19,"D 02","","",FALSE,"CV","q",932,"cv","D","2","c","c",TRUE,1
"CVOE updated",2001,1,1,20,"P 81","","",TRUE,"CV","q",1202,"cv","P","1","c","c",TRUE,1
"CVOE updated",2001,1,1,21,"J 58","","",FALSE,"CV","q",1125,"cv","J","8","c","c",TRUE,1
"CVOE updated",2001,1,1,22,"A 22","","",TRUE,"CV","p",1484,"cv","A","2","v","v",TRUE,1
"CVOE updated",2001,1,1,23,"J 72","","",FALSE,"CV","q",2416,"cv","J","2","c","c",TRUE,1
"CVOE updated",2001,1,1,24,"P 91","","",TRUE,"CV","q",1316,"cv","P","1","c","c",TRUE,1
"CVOE updated",2001,1,1,25,"E 19","","",FALSE,"CV","p",1122,"cv","E","9","v","v",TRUE,1
"CVOE updated",2001,1,1,26,"I 30","","",TRUE,"CV","p",1207,"cv","I","0","v","v",TRUE,1
"CVOE updated",2001,1,1,27,"D 91","","",TRUE,"CV","q",974,"cv","D","1","c","c",TRUE,1
"CVOE updated",2001,1,1,28,"O 48","","",TRUE,"CV","p",1406,"cv","O","8","v","v",TRUE,1
"CVOE updated",2001,1,1,29,"A 89","","",FALSE,"CV","p",1363,"cv","A","9","v","v",TRUE,1
"CVOE updated",2001,1,1,30,"U 11","","",FALSE,"CV","p",1158,"cv","U","1","v","v",TRUE,1
"CVOE updated",2001,1,1,31,"I 76","","",TRUE,"CV","p",1014,"cv","I","6","v","v",TRUE,1
"CVOE updated",2001,1,1,32,"U 89","","",FALSE,"CV","p",768,"cv","U","9","v","v",TRUE,1
"CVOE updated",2001,1,1,33,"D 63","","",TRUE,"CV","q",948,"cv","D","3","c","c",TRUE,1
"CVOE updated",2001,1,1,34,"H 70","","",FALSE,"CV","q",967,"cv","H","0","c","c",TRUE,1
"CVOE updated",2001,1,1,35,"D 48","","",FALSE,"CV","q",1163,"cv","D","8","c","c",TRUE,1
"CVOE updated",2001,1,1,36,"P 56","","",FALSE,"CV","q",1590,"cv","P","6","c","c",TRUE,1
"CVOE updated",2001,1,1,37,"O 77","","",FALSE,"CV","p",972,"cv","O","7","v","v",TRUE,1
"CVOE updated",2001,1,1,38,"P 42","","",FALSE,"CV","q",1130,"cv","P","2","c","c",TRUE,1
"CVOE updated",2001,1,1,39,"H 22","","",FALSE,"CV","q",1120,"cv","H","2","c","c",TRUE,1
"CVOE updated",2001,1,1,40,"E 42","","",TRUE,"CV","p",1126,"cv","E","2","v","v",TRUE,1
"CVOE updated",2001,1,1,41,"J 28","","",FALSE,"CV","q",1312,"cv","J","8","c","c",TRUE,1
"CVOE updated",2001,1,1,42,"E 95","","",FALSE,"CV","p",1354,"cv","E","5","v","v",TRUE,1
"CVOE updated",2001,1,1,43,"S 63","","",TRUE,"CV","q",969,"cv","S","3","c","c",TRUE,1
"CVOE updated",2001,1,1,44,"H 50","","",FALSE,"CV","q",1009,"cv","H","0","c","c",TRUE,1
"CVOE updated",2001,1,1,45,"S 33","","",TRUE,"CV","q",1155,"cv","S","3","c","c",TRUE,1
"CVOE updated",2001,1,1,46,"P 57","","",TRUE,"CV","q",1247,"cv","P","7","c","c",TRUE,1
"CVOE updated",2001,1,1,47,"E 23","","",FALSE,"CV","p",1002,"cv","E","3","v","v",TRUE,1
"CVOE updated",2001,1,1,48,"S 61","","",TRUE,"CV","q",929,"cv","S","1","c","c",TRUE,1
"CVOE updated",2001,1,1,49,"U 67","","",FALSE,"CV","p",1199,"cv","U","7","v","v",TRUE,1
"CVOE updated",2001,1,1,50,"H 32","","",FALSE,"CV","q",848,"cv","H","2","c","c",TRUE,1
"CVOE updated",2001,1,1,51,"U 50","","",TRUE,"CV","p",1083,"cv","U","0","v","v",TRUE,1
"CVOE updated",2001,1,1,52,"O 49","","",FALSE,"CV","p",967,"cv","O","9","v","v",TRUE,1
"CVOE updated",2001,1,1,53,"U 32","","",TRUE,"CV","p",889,"cv","U","2","v","v",TRUE,1
"CVOE updated",2001,1,1,54,"J 78","","",FALSE,"CV","q",1639,"cv","J","8","c","c",TRUE,1
"CVOE updated",2001,1,1,55,"S 54","","",FALSE,"CV","p",1284,"cv","S","4","c","v",FALSE,0
"CVOE updated",2001,1,1,56,"J 27","","",TRUE,"CV","q",4611,"cv","J","7","c","c",TRUE,1
"CVOE updated",2001,1,1,57,"S 06","","",FALSE,"CV","q",1201,"cv","S","6","c","c",TRUE,1
"CVOE updated",2001,1,1,58,"D 67","","",TRUE,"CV","q",969,"cv","D","7","c","c",TRUE,1
"CVOE updated",2001,1,1,59,"A 79","","",FALSE,"CV","p",1087,"cv","A","9","v","v",TRUE,1
"CVOE updated",2001,1,1,60,"S 52","","",FALSE,"CV","q",853,"cv","S","2","c","c",TRUE,1
"CVOE updated",2001,1,1,61,"U 16","","",TRUE,"CV","p",1009,"cv","U","6","v","v",TRUE,1
"CVOE updated",2001,1,1,62,"O 82","","",TRUE,"CV","p",898,"cv","O","2","v","v",TRUE,1
"CVOE updated",2001,1,1,63,"H 87","","",TRUE,"CV","q",809,"cv","H","7","c","c",TRUE,1
"CVOE updated",2001,1,1,64,"I 32","","",TRUE,"CV","p",961,"cv","I","2","v","v",TRUE,1
"CVOE updated",2001,1,1,65,"U 37","","",FALSE,"CV","p",1157,"cv","U","7","v","v",TRUE,1
"CVOE updated",2001,1,1,66,"I 42","","",TRUE,"CV","p",895,"cv","I","2","v","v",TRUE,1
"CVOE updated",2001,1,1,67,"D 65","","",TRUE,"CV","p",1002,"cv","D","5","c","v",FALSE,0
"CVOE updated",2001,1,1,68,"U 77","","",FALSE,"CV","q",264,"cv","U","7","v","c",FALSE,0
"CVOE updated",2001,1,1,69,"E 12","","",TRUE,"CV","q",1358,"cv","E","2","v","c",FALSE,0
"CVOE updated",2001,1,1,70,"I 60","","",TRUE,"CV","p",1601,"cv","I","0","v","v",TRUE,1
"CVOE updated",2001,1,1,71,"J 36","","",FALSE,"CV","p",4726,"cv","J","6","c","v",FALSE,0
"CVOE updated",2001,1,1,72,"H 75","","",TRUE,"CV","q",1122,"cv","H","5","c","c",TRUE,1
"CVOE updated",2001,1,1,73,"I 50","","",TRUE,"CV","p",1051,"cv","I","0","v","v",TRUE,1
"CVOE updated",2001,1,1,74,"E 99","","",FALSE,"CV","p",1198,"cv","E","9","v","v",TRUE,1
"CVOE updated",2001,1,1,75,"A 86","","",TRUE,"CV","p",1160,"cv","A","6","v","v",TRUE,1
"CVOE updated",2001,1,1,76,"U 48","","",TRUE,"CV","p",921,"cv","U","8","v","v",TRUE,1
"CVOE updated",2001,1,1,77,"E 01","","",FALSE,"CV","p",1207,"cv","E","1","v","v",TRUE,1
"CVOE updated",2001,1,1,78,"A 78","","",TRUE,"CV","p",777,"cv","A","8","v","v",TRUE,1
"CVOE updated",2001,1,1,79,"P 60","","",FALSE,"CV","q",1041,"cv","P","0","c","c",TRUE,1
"CVOE updated",2001,1,1,80,"E 43","","",FALSE,"CV","p",974,"cv","E","3","v","v",TRUE,1
"CVOE updated",2001,1,1,81,"D 69","","",TRUE,"CV","q",1036,"cv","D","9","c","c",TRUE,1
"CVOE updated",2001,1,1,82,"H 11","","",TRUE,"CV","q",1010,"cv","H","1","c","c",TRUE,1
"CVOE updated",2001,1,1,83,"P 43","","",TRUE,"CV","q",960,"cv","P","3","c","c",TRUE,1
"CVOE updated",2001,1,1,84,"O 67","","",FALSE,"CV","p",843,"cv","O","7","v","v",TRUE,1
"CVOE updated",2001,1,1,85,"S 91","","",FALSE,"CV","q",806,"cv","S","1","c","c",TRUE,1
"CVOE updated",2001,1,1,86,"J 68","","",TRUE,"CV","q",1520,"cv","J","8","c","c",TRUE,1
"CVOE updated",2001,1,1,87,"S 47","","",FALSE,"CV","q",1008,"cv","S","7","c","c",TRUE,1
"CVOE updated",2001,1,1,88,"I 81","","",TRUE,"CV","p",998,"cv","I","1","v","v",TRUE,1
"CVOE updated",2001,1,1,89,"J 39","","",FALSE,"CV","q",1553,"cv","J","9","c","c",TRUE,1
"CVOE updated",2001,1,1,90,"A 11","","",TRUE,"CV","p",1142,"cv","A","1","v","v",TRUE,1
"CVOE updated",2001,1,1,91,"O 76","","",FALSE,"CV","p",1076,"cv","O","6","v","v",TRUE,1
"CVOE updated",2001,1,1,92,"A 62","","",FALSE,"CV","p",999,"cv","A","2","v","v",TRUE,1
"CVOE updated",2001,1,1,93,"O 27","","",TRUE,"CV","p",809,"cv","O","7","v","v",TRUE,1
"CVOE updated",2001,1,1,94,"E 66","","",FALSE,"CV","p",1196,"cv","E","6","v","v",TRUE,1
"CVOE updated",2001,1,1,95,"J 62","","",TRUE,"CV","q",1197,"cv","J","2","c","c",TRUE,1
"CVOE updated",2001,1,1,96,"H 72","","",TRUE,"CV","q",1238,"cv","H","2","c","c",TRUE,1
"CVOE updated",2001,1,1,97,"E 49","","",TRUE,"CV","p",932,"cv","E","9","v","v",TRUE,1
"CVOE updated",2001,1,1,98,"D 52","","",TRUE,"CV","q",887,"cv","D","2","c","c",TRUE,1
"CVOE updated",2001,1,1,99,"H 62","","",TRUE,"CV","q",1050,"cv","H","2","c","c",TRUE,1
"CVOE updated",2001,1,1,100,"I 11","","",TRUE,"CV","p",928,"cv","I","1","v","v",TRUE,1
"CVOE updated",2001,1,1,101,"A 98","","",FALSE,"CV","p",1079,"cv","A","8","v","v",TRUE,1
"CVOE updated",2001,1,1,102,"H 29","","",FALSE,"CV","q",1119,"cv","H","9","c","c",TRUE,1
"CVOE updated",2001,1,1,103,"E 83","","",TRUE,"CV","p",1244,"cv","E","3","v","v",TRUE,1
"CVOE updated",2001,1,1,104,"D 43","","",FALSE,"CV","q",843,"cv","D","3","c","c",TRUE,1
"CVOE updated",2001,1,1,105,"P 45","","",TRUE,"CV","p",1039,"cv","P","5","c","v",FALSE,0
"CVOE updated",2001,1,1,106,"J 17","","",TRUE,"CV","q",2383,"cv","J","7","c","c",TRUE,1
"CVOE_B",1002,1,2,11,"A 71","","",FALSE,"CV","p",4490,"cv","A","1","v","v",TRUE,1
"CVOE_B",1002,1,2,12,"I 66","","",TRUE,"CV","p",1197,"cv","I","6","v","v",TRUE,1
"CVOE_B",1002,1,2,13,"S 30","","",FALSE,"CV","q",1276,"cv","S","0","c","c",TRUE,1
"CVOE_B",1002,1,2,14,"D 20","","",FALSE,"CV","q",1076,"cv","D","0","c","c",TRUE,1
"CVOE_B",1002,1,2,15,"I 31","","",FALSE,"CV","p",921,"cv","I","1","v","v",TRUE,1
"CVOE_B",1002,1,2,16,"P 16","","",FALSE,"CV","q",931,"cv","P","6","c","c",TRUE,1
"CVOE_B",1002,1,2,17,"A 49","","",FALSE,"CV","p",886,"cv","A","9","v","v",TRUE,1
"CVOE_B",1002,1,2,18,"O 64","","",TRUE,"CV","p",734,"cv","O","4","v","v",TRUE,1
"CVOE_B",1002,1,2,19,"D 02","","",FALSE,"CV","q",812,"cv","D","2","c","c",TRUE,1
"CVOE_B",1002,1,2,20,"P 81","","",TRUE,"CV","q",1079,"cv","P","1","c","c",TRUE,1
"CVOE_B",1002,1,2,21,"J 58","","",FALSE,"CV","q",1119,"cv","J","8","c","c",TRUE,1
"CVOE_B",1002,1,2,22,"A 22","","",TRUE,"CV","p",928,"cv","A","2","v","v",TRUE,1
"CVOE_B",1002,1,2,23,"J 72","","",FALSE,"CV","q",883,"cv","J","2","c","c",TRUE,1
"CVOE_B",1002,1,2,24,"P 91","","",TRUE,"CV","q",966,"cv","P","1","c","c",TRUE,1
"CVOE_B",1002,1,2,25,"E 19","","",FALSE,"CV","p",811,"cv","E","9","v","v",TRUE,1
"CVOE_B",1002,1,2,26,"I 30","","",TRUE,"CV","p",883,"cv","I","0","v","v",TRUE,1
"CVOE_B",1002,1,2,27,"D 91","","",TRUE,"CV","q",927,"cv","D","1","c","c",TRUE,1
"CVOE_B",1002,1,2,28,"O 48","","",TRUE,"CV","p",726,"cv","O","8","v","v",TRUE,1
"CVOE_B",1002,1,2,29,"A 89","","",FALSE,"CV","p",802,"cv","A","9","v","v",TRUE,1
"CVOE_B",1002,1,2,30,"U 11","","",FALSE,"CV","q",773,"cv","U","1","v","c",FALSE,0
"CVOE_B",1002,1,2,31,"I 76","","",TRUE,"CV","p",1857,"cv","I","6","v","v",TRUE,1
"CVOE_B",1002,1,2,32,"U 89","","",FALSE,"CV","p",1167,"cv","U","9","v","v",TRUE,1
"CVOE_B",1002,1,2,33,"D 63","","",TRUE,"CV","q",965,"cv","D","3","c","c",TRUE,1
"CVOE_B",1002,1,2,34,"H 70","","",FALSE,"CV","q",1982,"cv","H","0","c","c",TRUE,1
"CVOE_B",1002,1,2,35,"D 48","","",FALSE,"CV","q",1354,"cv","D","8","c","c",TRUE,1
"CVOE_B",1002,1,2,36,"P 56","","",FALSE,"CV","q",891,"cv","P","6","c","c",TRUE,1
"CVOE_B",1002,1,2,37,"O 77","","",FALSE,"CV","p",723,"cv","O","7","v","v",TRUE,1
"CVOE_B",1002,1,2,38,"P 42","","",FALSE,"CV","q",660,"cv","P","2","c","c",TRUE,1
"CVOE_B",1002,1,2,39,"H 22","","",FALSE,"CV","q",843,"cv","H","2","c","c",TRUE,1
"CVOE_B",1002,1,2,40,"E 42","","",TRUE,"CV","p",725,"cv","E","2","v","v",TRUE,1
"CVOE_B",1002,1,2,41,"J 28","","",FALSE,"CV","q",997,"cv","J","8","c","c",TRUE,1
"CVOE_B",1002,1,2,42,"E 95","","",FALSE,"CV","p",690,"cv","E","5","v","v",TRUE,1
"CVOE_B",1002,1,2,43,"S 63","","",TRUE,"CV","q",817,"cv","S","3","c","c",TRUE,1
"CVOE_B",1002,1,2,44,"H 50","","",FALSE,"CV","q",889,"cv","H","0","c","c",TRUE,1
"CVOE_B",1002,1,2,45,"S 33","","",TRUE,"CV","q",1285,"cv","S","3","c","c",TRUE,1
"CVOE_B",1002,1,2,46,"P 57","","",TRUE,"CV","q",1632,"cv","P","7","c","c",TRUE,1
"CVOE_B",1002,1,2,47,"E 23","","",FALSE,"CV","p",728,"cv","E","3","v","v",TRUE,1
"CVOE_B",1002,1,2,48,"S 61","","",TRUE,"CV","q",649,"cv","S","1","c","c",TRUE,1
"CVOE_B",1002,1,2,49,"U 67","","",FALSE,"CV","p",614,"cv","U","7","v","v",TRUE,1
"CVOE_B",1002,1,2,50,"H 32","","",FALSE,"CV","q",690,"cv","H","2","c","c",TRUE,1
"CVOE_B",1002,1,2,51,"U 50","","",TRUE,"CV","p",645,"cv","U","0","v","v",TRUE,1
"CVOE_B",1002,1,2,52,"O 49","","",FALSE,"CV","p",766,"cv","O","9","v","v",TRUE,1
"CVOE_B",1002,1,2,53,"U 32","","",TRUE,"CV","p",631,"cv","U","2","v","v",TRUE,1
"CVOE_B",1002,1,2,54,"J 78","","",FALSE,"CV","q",848,"cv","J","8","c","c",TRUE,1
"CVOE_B",1002,1,2,55,"S 54","","",FALSE,"CV","q",886,"cv","S","4","c","c",TRUE,1
"CVOE_B",1002,1,2,56,"J 27","","",TRUE,"CV","q",1400,"cv","J","7","c","c",TRUE,1
"CVOE_B",1002,1,2,57,"S 06","","",FALSE,"CV","q",651,"cv","S","6","c","c",TRUE,1
"CVOE_B",1002,1,2,58,"D 67","","",TRUE,"CV","q",736,"cv","D","7","c","c",TRUE,1
"CVOE_B",1002,1,2,59,"A 79","","",FALSE,"CV","p",735,"cv","A","9","v","v",TRUE,1
"CVOE_B",1002,1,2,60,"S 52","","",FALSE,"CV","q",812,"cv","S","2","c","c",TRUE,1
"CVOE_B",1002,1,2,61,"U 16","","",TRUE,"CV","p",649,"cv","U","6","v","v",TRUE,1
"CVOE_B",1002,1,2,62,"O 82","","",TRUE,"CV","p",614,"cv","O","2","v","v",TRUE,1
"CVOE_B",1002,1,2,63,"H 87","","",TRUE,"CV","q",730,"cv","H","7","c","c",TRUE,1
"CVOE_B",1002,1,2,64,"I 32","","",TRUE,"CV","p",807,"cv","I","2","v","v",TRUE,1
"CVOE_B",1002,1,2,65,"U 37","","",FALSE,"CV","p",762,"cv","U","7","v","v",TRUE,1
"CVOE_B",1002,1,2,66,"I 42","","",TRUE,"CV","p",766,"cv","I","2","v","v",TRUE,1
"CVOE_B",1002,1,2,67,"D 65","","",TRUE,"CV","q",693,"cv","D","5","c","c",TRUE,1
"CVOE_B",1002,1,2,68,"U 77","","",FALSE,"CV","p",646,"cv","U","7","v","v",TRUE,1
"CVOE_B",1002,1,2,69,"E 12","","",TRUE,"CV","p",611,"cv","E","2","v","v",TRUE,1
"CVOE_B",1002,1,2,70,"I 60","","",TRUE,"CV","p",727,"cv","I","0","v","v",TRUE,1
"CVOE_B",1002,1,2,71,"J 36","","",FALSE,"CV","q",687,"cv","J","6","c","c",TRUE,1
"CVOE_B",1002,1,2,72,"H 75","","",TRUE,"CV","q",814,"cv","H","5","c","c",TRUE,1
"CVOE_B",1002,1,2,73,"I 50","","",TRUE,"CV","p",769,"cv","I","0","v","v",TRUE,1
"CVOE_B",1002,1,2,74,"E 99","","",FALSE,"CV","p",734,"cv","E","9","v","v",TRUE,1
"CVOE_B",1002,1,2,75,"A 86","","",TRUE,"CV","p",772,"cv","A","6","v","v",TRUE,1
"CVOE_B",1002,1,2,76,"U 48","","",TRUE,"CV","p",737,"cv","U","8","v","v",TRUE,1
"CVOE_B",1002,1,2,77,"E 01","","",FALSE,"CV","p",737,"cv","E","1","v","v",TRUE,1
"CVOE_B",1002,1,2,78,"A 78","","",TRUE,"CV","p",870,"cv","A","8","v","v",TRUE,1
"CVOE_B",1002,1,2,79,"P 60","","",FALSE,"CV","q",1243,"cv","P","0","c","c",TRUE,1
"CVOE_B",1002,1,2,80,"E 43","","",FALSE,"CV","p",763,"cv","E","3","v","v",TRUE,1
"CVOE_B",1002,1,2,81,"D 69","","",TRUE,"CV","q",1003,"cv","D","9","c","c",TRUE,1
"CVOE_B",1002,1,2,82,"H 11","","",TRUE,"CV","q",1126,"cv","H","1","c","c",TRUE,1
"CVOE_B",1002,1,2,83,"P 43","","",TRUE,"CV","q",1075,"cv","P","3","c","c",TRUE,1
"CVOE_B",1002,1,2,84,"O 67","","",FALSE,"CV","p",645,"cv","O","7","v","v",TRUE,1
"CVOE_B",1002,1,2,85,"S 91","","",FALSE,"CV","q",649,"cv","S","1","c","c",TRUE,1
"CVOE_B",1002,1,2,86,"J 68","","",TRUE,"CV","q",693,"cv","J","8","c","c",TRUE,1
"CVOE_B",1002,1,2,87,"S 47","","",FALSE,"CV","q",724,"cv","S","7","c","c",TRUE,1
"CVOE_B",1002,1,2,88,"I 81","","",TRUE,"CV","p",762,"cv","I","1","v","v",TRUE,1
"CVOE_B",1002,1,2,89,"J 39","","",FALSE,"CV","q",649,"cv","J","9","c","c",TRUE,1
"CVOE_B",1002,1,2,90,"A 11","","",TRUE,"CV","p",656,"cv","A","1","v","v",TRUE,1
"CVOE_B",1002,1,2,91,"O 76","","",FALSE,"CV","p",560,"cv","O","6","v","v",TRUE,1
"CVOE_B",1002,1,2,92,"A 62","","",FALSE,"CV","p",608,"cv","A","2","v","v",TRUE,1
"CVOE_B",1002,1,2,93,"O 27","","",TRUE,"CV","p",920,"cv","O","7","v","v",TRUE,1
"CVOE_B",1002,1,2,94,"E 66","","",FALSE,"CV","p",657,"cv","E","6","v","v",TRUE,1
"CVOE_B",1002,1,2,95,"J 62","","",TRUE,"CV","q",762,"cv","J","2","c","c",TRUE,1
"CVOE_B",1002,1,2,96,"H 72","","",TRUE,"CV","q",610,"cv","H","2","c","c",TRUE,1
"CVOE_B",1002,1,2,97,"E 49","","",TRUE,"CV","p",726,"cv","E","9","v","v",TRUE,1
"CVOE_B",1002,1,2,98,"D 52","","",TRUE,"CV","q",607,"cv","D","2","c","c",TRUE,1
"CVOE_B",1002,1,2,99,"H 62","","",TRUE,"CV","q",722,"cv","H","2","c","c",TRUE,1
"CVOE_B",1002,1,2,100,"I 11","","",TRUE,"CV","p",738,"cv","I","1","v","v",TRUE,1
"CVOE_B",1002,1,2,101,"A 98","","",FALSE,"CV","p",620,"cv","A","8","v","v",TRUE,1
"CVOE_B",1002,1,2,102,"H 29","","",FALSE,"CV","q",697,"cv","H","9","c","c",TRUE,1
"CVOE_B",1002,1,2,103,"E 83","","",TRUE,"CV","p",689,"cv","E","3","v","v",TRUE,1
"CVOE_B",1002,1,2,104,"D 43","","",FALSE,"CV","q",817,"cv","D","3","c","c",TRUE,1
"CVOE_B",1002,1,2,105,"P 45","","",TRUE,"CV","q",654,"cv","P","5","c","c",TRUE,1
"CVOE_B",1002,1,2,106,"J 17","","",TRUE,"CV","q",699,"cv","J","7","c","c",TRUE,1
"CVOE_B",2002,1,2,11,"A 71","","",FALSE,"CV","p",5270,"cv","A","1","v","v",TRUE,1
"CVOE_B",2002,1,2,12,"I 66","","",TRUE,"CV","p",1304,"cv","I","6","v","v",TRUE,1
"CVOE_B",2002,1,2,13,"S 30","","",FALSE,"CV","q",891,"cv","S","0","c","c",TRUE,1
"CVOE_B",2002,1,2,14,"D 20","","",FALSE,"CV","q",1271,"cv","D","0","c","c",TRUE,1
"CVOE_B",2002,1,2,15,"I 31","","",FALSE,"CV","p",618,"cv","I","1","v","v",TRUE,1
"CVOE_B",2002,1,2,16,"P 16","","",FALSE,"CV","q",655,"cv","P","6","c","c",TRUE,1
"CVOE_B",2002,1,2,17,"A 49","","",FALSE,"CV","p",738,"cv","A","9","v","v",TRUE,1
"CVOE_B",2002,1,2,18,"O 64","","",TRUE,"CV","p",698,"cv","O","4","v","v",TRUE,1
"CVOE_B",2002,1,2,19,"D 02","","",FALSE,"CV","q",809,"cv","D","2","c","c",TRUE,1
"CVOE_B",2002,1,2,20,"P 81","","",TRUE,"CV","p",608,"cv","P","1","c","v",FALSE,0
"CVOE_B",2002,1,2,21,"J 58","","",FALSE,"CV","p",489,"cv","J","8","c","v",FALSE,0
"CVOE_B",2002,1,2,22,"A 22","","",TRUE,"CV","q",543,"cv","A","2","v","c",FALSE,0
"CVOE_B",2002,1,2,23,"J 72","","",FALSE,"CV","q",2409,"cv","J","2","c","c",TRUE,1
"CVOE_B",2002,1,2,24,"P 91","","",TRUE,"CV","q",1519,"cv","P","1","c","c",TRUE,1
"CVOE_B",2002,1,2,25,"E 19","","",FALSE,"CV","p",615,"cv","E","9","v","v",TRUE,1
"CVOE_B",2002,1,2,26,"I 30","","",TRUE,"CV","p",1827,"cv","I","0","v","v",TRUE,1
"CVOE_B",2002,1,2,27,"D 91","","",TRUE,"CV","q",801,"cv","D","1","c","c",TRUE,1
"CVOE_B",2002,1,2,28,"O 48","","",TRUE,"CV","p",655,"cv","O","8","v","v",TRUE,1
"CVOE_B",2002,1,2,29,"A 89","","",FALSE,"CV","p",816,"cv","A","9","v","v",TRUE,1
"CVOE_B",2002,1,2,30,"U 11","","",FALSE,"CV","p",653,"cv","U","1","v","v",TRUE,1
"CVOE_B",2002,1,2,31,"I 76","","",TRUE,"CV","p",597,"cv","I","6","v","v",TRUE,1
"CVOE_B",2002,1,2,32,"U 89","","",FALSE,"CV","p",573,"cv","U","9","v","v",TRUE,1
"CVOE_B",2002,1,2,33,"D 63","","",TRUE,"CV","q",974,"cv","D","3","c","c",TRUE,1
"CVOE_B",2002,1,2,34,"H 70","","",FALSE,"CV","q",896,"cv","H","0","c","c",TRUE,1
"CVOE_B",2002,1,2,35,"D 48","","",FALSE,"CV","q",571,"cv","D","8","c","c",TRUE,1
"CVOE_B",2002,1,2,36,"P 56","","",FALSE,"CV","q",659,"cv","P","6","c","c",TRUE,1
"CVOE_B",2002,1,2,37,"O 77","","",FALSE,"CV","p",610,"cv","O","7","v","v",TRUE,1
"CVOE_B",2002,1,2,38,"P 42","","",FALSE,"CV","q",648,"cv","P","2","c","c",TRUE,1
"CVOE_B",2002,1,2,39,"H 22","","",FALSE,"CV","q",535,"cv","H","2","c","c",TRUE,1
"CVOE_B",2002,1,2,40,"E 42","","",TRUE,"CV","p",617,"cv","E","2","v","v",TRUE,1
"CVOE_B",2002,1,2,41,"J 28","","",FALSE,"CV","q",537,"cv","J","8","c","c",TRUE,1
"CVOE_B",2002,1,2,42,"E 95","","",FALSE,"CV","p",542,"cv","E","5","v","v",TRUE,1
"CVOE_B",2002,1,2,43,"S 63","","",TRUE,"CV","q",820,"cv","S","3","c","c",TRUE,1
"CVOE_B",2002,1,2,44,"H 50","","",FALSE,"CV","q",539,"cv","H","0","c","c",TRUE,1
"CVOE_B",2002,1,2,45,"S 33","","",TRUE,"CV","q",487,"cv","S","3","c","c",TRUE,1
"CVOE_B",2002,1,2,46,"P 57","","",TRUE,"CV","q",502,"cv","P","7","c","c",TRUE,1
"CVOE_B",2002,1,2,47,"E 23","","",FALSE,"CV","p",540,"cv","E","3","v","v",TRUE,1
"CVOE_B",2002,1,2,48,"S 61","","",TRUE,"CV","q",528,"cv","S","1","c","c",TRUE,1
"CVOE_B",2002,1,2,49,"U 67","","",FALSE,"CV","p",649,"cv","U","7","v","v",TRUE,1
"CVOE_B",2002,1,2,50,"H 32","","",FALSE,"CV","q",1045,"cv","H","2","c","c",TRUE,1
"CVOE_B",2002,1,2,51,"U 50","","",TRUE,"CV","p",570,"cv","U","0","v","v",TRUE,1
"CVOE_B",2002,1,2,52,"O 49","","",FALSE,"CV","p",596,"cv","O","9","v","v",TRUE,1
"CVOE_B",2002,1,2,53,"U 32","","",TRUE,"CV","p",573,"cv","U","2","v","v",TRUE,1
"CVOE_B",2002,1,2,54,"J 78","","",FALSE,"CV","q",700,"cv","J","8","c","c",TRUE,1
"CVOE_B",2002,1,2,55,"S 54","","",FALSE,"CV","q",615,"cv","S","4","c","c",TRUE,1
"CVOE_B",2002,1,2,56,"J 27","","",TRUE,"CV","q",614,"cv","J","7","c","c",TRUE,1
"CVOE_B",2002,1,2,57,"S 06","","",FALSE,"CV","q",769,"cv","S","6","c","c",TRUE,1
"CVOE_B",2002,1,2,58,"D 67","","",TRUE,"CV","q",1792,"cv","D","7","c","c",TRUE,1
"CVOE_B",2002,1,2,59,"A 79","","",FALSE,"CV","p",464,"cv","A","9","v","v",TRUE,1
"CVOE_B",2002,1,2,60,"S 52","","",FALSE,"CV","q",847,"cv","S","2","c","c",TRUE,1
"CVOE_B",2002,1,2,61,"U 16","","",TRUE,"CV","p",456,"cv","U","6","v","v",TRUE,1
"CVOE_B",2002,1,2,62,"O 82","","",TRUE,"CV","p",661,"cv","O","2","v","v",TRUE,1
"CVOE_B",2002,1,2,63,"H 87","","",TRUE,"CV","q",1041,"cv","H","7","c","c",TRUE,1
"CVOE_B",2002,1,2,64,"I 32","","",TRUE,"CV","p",584,"cv","I","2","v","v",TRUE,1
"CVOE_B",2002,1,2,65,"U 37","","",FALSE,"CV","p",499,"cv","U","7","v","v",TRUE,1
"CVOE_B",2002,1,2,66,"I 42","","",TRUE,"CV","p",458,"cv","I","2","v","v",TRUE,1
"CVOE_B",2002,1,2,67,"D 65","","",TRUE,"CV","q",685,"cv","D","5","c","c",TRUE,1
"CVOE_B",2002,1,2,68,"U 77","","",FALSE,"CV","p",422,"cv","U","7","v","v",TRUE,1
"CVOE_B",2002,1,2,69,"E 12","","",TRUE,"CV","p",621,"cv","E","2","v","v",TRUE,1
"CVOE_B",2002,1,2,70,"I 60","","",TRUE,"CV","p",502,"cv","I","0","v","v",TRUE,1
"CVOE_B",2002,1,2,71,"J 36","","",FALSE,"CV","q",618,"cv","J","6","c","c",TRUE,1
"CVOE_B",2002,1,2,72,"H 75","","",TRUE,"CV","p",460,"cv","H","5","c","v",FALSE,0
"CVOE_B",2002,1,2,73,"I 50","","",TRUE,"CV","q",1235,"cv","I","0","v","c",FALSE,0
"CVOE_B",2002,1,2,74,"E 99","","",FALSE,"CV","p",733,"cv","E","9","v","v",TRUE,1
"CVOE_B",2002,1,2,75,"A 86","","",TRUE,"CV","p",967,"cv","A","6","v","v",TRUE,1
"CVOE_B",2002,1,2,76,"U 48","","",TRUE,"CV","p",615,"cv","U","8","v","v",TRUE,1
"CVOE_B",2002,1,2,77,"E 01","","",FALSE,"CV","p",748,"cv","E","1","v","v",TRUE,1
"CVOE_B",2002,1,2,78,"A 78","","",TRUE,"CV","p",1200,"cv","A","8","v","v",TRUE,1
"CVOE_B",2002,1,2,79,"P 60","","",FALSE,"CV","q",731,"cv","P","0","c","c",TRUE,1
"CVOE_B",2002,1,2,80,"E 43","","",FALSE,"CV","p",574,"cv","E","3","v","v",TRUE,1
"CVOE_B",2002,1,2,81,"D 69","","",TRUE,"CV","q",645,"cv","D","9","c","c",TRUE,1
"CVOE_B",2002,1,2,82,"H 11","","",TRUE,"CV","q",571,"cv","H","1","c","c",TRUE,1
"CVOE_B",2002,1,2,83,"P 43","","",TRUE,"CV","q",581,"cv","P","3","c","c",TRUE,1
"CVOE_B",2002,1,2,84,"O 67","","",FALSE,"CV","p",652,"cv","O","7","v","v",TRUE,1
"CVOE_B",2002,1,2,85,"S 91","","",FALSE,"CV","q",735,"cv","S","1","c","c",TRUE,1
"CVOE_B",2002,1,2,86,"J 68","","",TRUE,"CV","q",852,"cv","J","8","c","c",TRUE,1
"CVOE_B",2002,1,2,87,"S 47","","",FALSE,"CV","q",538,"cv","S","7","c","c",TRUE,1
"CVOE_B",2002,1,2,88,"I 81","","",TRUE,"CV","p",581,"cv","I","1","v","v",TRUE,1
"CVOE_B",2002,1,2,89,"J 39","","",FALSE,"CV","q",614,"cv","J","9","c","c",TRUE,1
"CVOE_B",2002,1,2,90,"A 11","","",TRUE,"CV","p",612,"cv","A","1","v","v",TRUE,1
"CVOE_B",2002,1,2,91,"O 76","","",FALSE,"CV","p",1276,"cv","O","6","v","v",TRUE,1
"CVOE_B",2002,1,2,92,"A 62","","",FALSE,"CV","p",841,"cv","A","2","v","v",TRUE,1
"CVOE_B",2002,1,2,93,"O 27","","",TRUE,"CV","p",527,"cv","O","7","v","v",TRUE,1
"CVOE_B",2002,1,2,94,"E 66","","",FALSE,"CV","p",573,"cv","E","6","v","v",TRUE,1
"CVOE_B",2002,1,2,95,"J 62","","",TRUE,"CV","q",854,"cv","J","2","c","c",TRUE,1
"CVOE_B",2002,1,2,96,"H 72","","",TRUE,"CV","q",1206,"cv","H","2","c","c",TRUE,1
"CVOE_B",2002,1,2,97,"E 49","","",TRUE,"CV","p",1324,"cv","E","9","v","v",TRUE,1
"CVOE_B",2002,1,2,98,"D 52","","",TRUE,"CV","q",895,"cv","D","2","c","c",TRUE,1
"CVOE_B",2002,1,2,99,"H 62","","",TRUE,"CV","q",805,"cv","H","2","c","c",TRUE,1
"CVOE_B",2002,1,2,100,"I 11","","",TRUE,"CV","p",620,"cv","I","1","v","v",TRUE,1
"CVOE_B",2002,1,2,101,"A 98","","",FALSE,"CV","p",736,"cv","A","8","v","v",TRUE,1
"CVOE_B",2002,1,2,102,"H 29","","",FALSE,"CV","q",735,"cv","H","9","c","c",TRUE,1
"CVOE_B",2002,1,2,103,"E 83","","",TRUE,"CV","q",1009,"cv","E","3","v","c",FALSE,0
"CVOE_B",2002,1,2,104,"D 43","","",FALSE,"CV","p",998,"cv","D","3","c","v",FALSE,0
"CVOE_B",2002,1,2,105,"P 45","","",TRUE,"CV","q",2646,"cv","P","5","c","c",TRUE,1
"CVOE_B",2002,1,2,106,"J 17","","",TRUE,"CV","q",1315,"cv","J","7","c","c",TRUE,1
"CVOE_C",1003,1,2,11,"A 71","","",FALSE,"CV","q",7567,"cv","A","1","v","c",FALSE,0
"CVOE_C",1003,1,2,12,"I 66","","",TRUE,"CV","p",3313,"cv","I","6","v","v",TRUE,1
"CVOE_C",1003,1,2,13,"S 30","","",FALSE,"CV","q",1991,"cv","S","0","c","c",TRUE,1
"CVOE_C",1003,1,2,14,"D 20","","",FALSE,"CV","q",3828,"cv","D","0","c","c",TRUE,1
"CVOE_C",1003,1,2,15,"I 31","","",FALSE,"CV","p",1479,"cv","I","1","v","v",TRUE,1
"CVOE_C",1003,1,2,16,"P 16","","",FALSE,"CV","q",1039,"cv","P","6","c","c",TRUE,1
"CVOE_C",1003,1,2,17,"A 49","","",FALSE,"CV","p",1795,"cv","A","9","v","v",TRUE,1
"CVOE_C",1003,1,2,18,"O 64","","",TRUE,"CV","p",724,"cv","O","4","v","v",TRUE,1
"CVOE_C",1003,1,2,19,"D 02","","",FALSE,"CV","q",801,"cv","D","2","c","c",TRUE,1
"CVOE_C",1003,1,2,20,"P 81","","",TRUE,"CV","q",1086,"cv","P","1","c","c",TRUE,1
"CVOE_C",1003,1,2,21,"J 58","","",FALSE,"CV","q",813,"cv","J","8","c","c",TRUE,1
"CVOE_C",1003,1,2,22,"A 22","","",TRUE,"CV","p",650,"cv","A","2","v","v",TRUE,1
"CVOE_C",1003,1,2,23,"J 72","","",FALSE,"CV","q",1320,"cv","J","2","c","c",TRUE,1
"CVOE_C",1003,1,2,24,"P 91","","",TRUE,"CV","q",1087,"cv","P","1","c","c",TRUE,1
"CVOE_C",1003,1,2,25,"E 19","","",FALSE,"CV","p",657,"cv","E","9","v","v",TRUE,1
"CVOE_C",1003,1,2,26,"I 30","","",TRUE,"CV","p",857,"cv","I","0","v","v",TRUE,1
"CVOE_C",1003,1,2,27,"D 91","","",TRUE,"CV","q",857,"cv","D","1","c","c",TRUE,1
"CVOE_C",1003,1,2,28,"O 48","","",TRUE,"CV","p",856,"cv","O","8","v","v",TRUE,1
"CVOE_C",1003,1,2,29,"A 89","","",FALSE,"CV","p",2774,"cv","A","9","v","v",TRUE,1
"CVOE_C",1003,1,2,30,"U 11","","",FALSE,"CV","p",969,"cv","U","1","v","v",TRUE,1
"CVOE_C",1003,1,2,31,"I 76","","",TRUE,"CV","p",1243,"cv","I","6","v","v",TRUE,1
"CVOE_C",1003,1,2,32,"U 89","","",FALSE,"CV","p",1076,"cv","U","9","v","v",TRUE,1
"CVOE_C",1003,1,2,33,"D 63","","",TRUE,"CV","q",959,"cv","D","3","c","c",TRUE,1
"CVOE_C",1003,1,2,34,"H 70","","",FALSE,"CV","q",685,"cv","H","0","c","c",TRUE,1
"CVOE_C",1003,1,2,35,"D 48","","",FALSE,"CV","q",618,"cv","D","8","c","c",TRUE,1
"CVOE_C",1003,1,2,36,"P 56","","",FALSE,"CV","q",930,"cv","P","6","c","c",TRUE,1
"CVOE_C",1003,1,2,37,"O 77","","",FALSE,"CV","p",1003,"cv","O","7","v","v",TRUE,1
"CVOE_C",1003,1,2,38,"P 42","","",FALSE,"CV","q",1634,"cv","P","2","c","c",TRUE,1
"CVOE_C",1003,1,2,39,"H 22","","",FALSE,"CV","q",813,"cv","H","2","c","c",TRUE,1
"CVOE_C",1003,1,2,40,"E 42","","",TRUE,"CV","p",766,"cv","E","2","v","v",TRUE,1
"CVOE_C",1003,1,2,41,"J 28","","",FALSE,"CV","q",849,"cv","J","8","c","c",TRUE,1
"CVOE_C",1003,1,2,42,"E 95","","",FALSE,"CV","p",653,"cv","E","5","v","v",TRUE,1
"CVOE_C",1003,1,2,43,"S 63","","",TRUE,"CV","q",932,"cv","S","3","c","c",TRUE,1
"CVOE_C",1003,1,2,44,"H 50","","",FALSE,"CV","q",653,"cv","H","0","c","c",TRUE,1
"CVOE_C",1003,1,2,45,"S 33","","",TRUE,"CV","q",501,"cv","S","3","c","c",TRUE,1
"CVOE_C",1003,1,2,46,"P 57","","",TRUE,"CV","q",577,"cv","P","7","c","c",TRUE,1
"CVOE_C",1003,1,2,47,"E 23","","",FALSE,"CV","p",688,"cv","E","3","v","v",TRUE,1
"CVOE_C",1003,1,2,48,"S 61","","",TRUE,"CV","q",581,"cv","S","1","c","c",TRUE,1
"CVOE_C",1003,1,2,49,"U 67","","",FALSE,"CV","p",848,"cv","U","7","v","v",TRUE,1
"CVOE_C",1003,1,2,50,"H 32","","",FALSE,"CV","q",772,"cv","H","2","c","c",TRUE,1
"CVOE_C",1003,1,2,51,"U 50","","",TRUE,"CV","p",699,"cv","U","0","v","v",TRUE,1
"CVOE_C",1003,1,2,52,"O 49","","",FALSE,"CV","p",770,"cv","O","9","v","v",TRUE,1
"CVOE_C",1003,1,2,53,"U 32","","",TRUE,"CV","p",853,"cv","U","2","v","v",TRUE,1
"CVOE_C",1003,1,2,54,"J 78","","",FALSE,"CV","q",735,"cv","J","8","c","c",TRUE,1
"CVOE_C",1003,1,2,55,"S 54","","",FALSE,"CV","q",1949,"cv","S","4","c","c",TRUE,1
"CVOE_C",1003,1,2,56,"J 27","","",TRUE,"CV","q",688,"cv","J","7","c","c",TRUE,1
"CVOE_C",1003,1,2,57,"S 06","","",FALSE,"CV","q",662,"cv","S","6","c","c",TRUE,1
"CVOE_C",1003,1,2,58,"D 67","","",TRUE,"CV","q",963,"cv","D","7","c","c",TRUE,1
"CVOE_C",1003,1,2,59,"A 79","","",FALSE,"CV","p",610,"cv","A","9","v","v",TRUE,1
"CVOE_C",1003,1,2,60,"S 52","","",FALSE,"CV","q",648,"cv","S","2","c","c",TRUE,1
"CVOE_C",1003,1,2,61,"U 16","","",TRUE,"CV","p",731,"cv","U","6","v","v",TRUE,1
"CVOE_C",1003,1,2,62,"O 82","","",TRUE,"CV","p",730,"cv","O","2","v","v",TRUE,1
"CVOE_C",1003,1,2,63,"H 87","","",TRUE,"CV","q",809,"cv","H","7","c","c",TRUE,1
"CVOE_C",1003,1,2,64,"I 32","","",TRUE,"CV","q",1193,"cv","I","2","v","c",FALSE,0
"CVOE_C",1003,1,2,65,"U 37","","",FALSE,"CV","p",920,"cv","U","7","v","v",TRUE,1
"CVOE_C",1003,1,2,66,"I 42","","",TRUE,"CV","p",736,"cv","I","2","v","v",TRUE,1
"CVOE_C",1003,1,2,67,"D 65","","",TRUE,"CV","q",1323,"cv","D","5","c","c",TRUE,1
"CVOE_C",1003,1,2,68,"U 77","","",FALSE,"CV","p",1167,"cv","U","7","v","v",TRUE,1
"CVOE_C",1003,1,2,69,"E 12","","",TRUE,"CV","p",811,"cv","E","2","v","v",TRUE,1
"CVOE_C",1003,1,2,70,"I 60","","",TRUE,"CV","p",687,"cv","I","0","v","v",TRUE,1
"CVOE_C",1003,1,2,71,"J 36","","",FALSE,"CV","q",698,"cv","J","6","c","c",TRUE,1
"CVOE_C",1003,1,2,72,"H 75","","",TRUE,"CV","q",1121,"cv","H","5","c","c",TRUE,1
"CVOE_C",1003,1,2,73,"I 50","","",TRUE,"CV","p",619,"cv","I","0","v","v",TRUE,1
"CVOE_C",1003,1,2,74,"E 99","","",FALSE,"CV","p",635,"cv","E","9","v","v",TRUE,1
"CVOE_C",1003,1,2,75,"A 86","","",TRUE,"CV","q",1205,"cv","A","6","v","c",FALSE,0
"CVOE_C",1003,1,2,76,"U 48","","",TRUE,"CV","p",1832,"cv","U","8","v","v",TRUE,1
"CVOE_C",1003,1,2,77,"E 01","","",FALSE,"CV","p",902,"cv","E","1","v","v",TRUE,1
"CVOE_C",1003,1,2,78,"A 78","","",TRUE,"CV","p",2026,"cv","A","8","v","v",TRUE,1
"CVOE_C",1003,1,2,79,"P 60","","",FALSE,"CV","q",1247,"cv","P","0","c","c",TRUE,1
"CVOE_C",1003,1,2,80,"E 43","","",FALSE,"CV","p",1511,"cv","E","3","v","v",TRUE,1
"CVOE_C",1003,1,2,81,"D 69","","",TRUE,"CV","q",959,"cv","D","9","c","c",TRUE,1
"CVOE_C",1003,1,2,82,"H 11","","",TRUE,"CV","q",686,"cv","H","1","c","c",TRUE,1
"CVOE_C",1003,1,2,83,"P 43","","",TRUE,"CV","q",1126,"cv","P","3","c","c",TRUE,1
"CVOE_C",1003,1,2,84,"O 67","","",FALSE,"CV","p",646,"cv","O","7","v","v",TRUE,1
"CVOE_C",1003,1,2,85,"S 91","","",FALSE,"CV","q",729,"cv","S","1","c","c",TRUE,1
"CVOE_C",1003,1,2,86,"J 68","","",TRUE,"CV","q",1394,"cv","J","8","c","c",TRUE,1
"CVOE_C",1003,1,2,87,"S 47","","",FALSE,"CV","q",646,"cv","S","7","c","c",TRUE,1
"CVOE_C",1003,1,2,88,"I 81","","",TRUE,"CV","q",533,"cv","I","1","v","c",FALSE,0
"CVOE_C",1003,1,2,89,"J 39","","",FALSE,"CV","q",970,"cv","J","9","c","c",TRUE,1
"CVOE_C",1003,1,2,90,"A 11","","",TRUE,"CV","p",891,"cv","A","1","v","v",TRUE,1
"CVOE_C",1003,1,2,91,"O 76","","",FALSE,"CV","p",584,"cv","O","6","v","v",TRUE,1
"CVOE_C",1003,1,2,92,"A 62","","",FALSE,"CV","p",1439,"cv","A","2","v","v",TRUE,1
"CVOE_C",1003,1,2,93,"O 27","","",TRUE,"CV","p",579,"cv","O","7","v","v",TRUE,1
"CVOE_C",1003,1,2,94,"E 66","","",FALSE,"CV","p",612,"cv","E","6","v","v",TRUE,1
"CVOE_C",1003,1,2,95,"J 62","","",TRUE,"CV","q",611,"cv","J","2","c","c",TRUE,1
"CVOE_C",1003,1,2,96,"H 72","","",TRUE,"CV","q",844,"cv","H","2","c","c",TRUE,1
"CVOE_C",1003,1,2,97,"E 49","","",TRUE,"CV","p",649,"cv","E","9","v","v",TRUE,1
"CVOE_C",1003,1,2,98,"D 52","","",TRUE,"CV","q",731,"cv","D","2","c","c",TRUE,1
"CVOE_C",1003,1,2,99,"H 62","","",TRUE,"CV","q",1712,"cv","H","2","c","c",TRUE,1
"CVOE_C",1003,1,2,100,"I 11","","",TRUE,"CV","p",568,"cv","I","1","v","v",TRUE,1
"CVOE_C",1003,1,2,101,"A 98","","",FALSE,"CV","q",617,"cv","A","8","v","c",FALSE,0
"CVOE_C",1003,1,2,102,"H 29","","",FALSE,"CV","q",1986,"cv","H","9","c","c",TRUE,1
"CVOE_C",1003,1,2,103,"E 83","","",TRUE,"CV","p",1006,"cv","E","3","v","v",TRUE,1
"CVOE_C",1003,1,2,104,"D 43","","",FALSE,"CV","q",620,"cv","D","3","c","c",TRUE,1
"CVOE_C",1003,1,2,105,"P 45","","",TRUE,"CV","q",1207,"cv","P","5","c","c",TRUE,1
"CVOE_C",1003,1,2,106,"J 17","","",TRUE,"CV","q",816,"cv","J","7","c","c",TRUE,1
"CVOE updated",1009,1,1,11,"A 71","","",FALSE,"CV","p",5184,"cv","A","1","v","v",TRUE,1
"CVOE updated",1009,1,1,12,"I 66","","",TRUE,"CV","p",1673,"cv","I","6","v","v",TRUE,1
"CVOE updated",1009,1,1,13,"S 30","","",FALSE,"CV","q",1752,"cv","S","0","c","c",TRUE,1
"CVOE updated",1009,1,1,14,"D 20","","",FALSE,"CV","q",3618,"cv","D","0","c","c",TRUE,1
"CVOE updated",1009,1,1,15,"I 31","","",FALSE,"CV","p",2675,"cv","I","1","v","v",TRUE,1
"CVOE updated",1009,1,1,16,"P 16","","",FALSE,"CV","q",1694,"cv","P","6","c","c",TRUE,1
"CVOE updated",1009,1,1,17,"A 49","","",FALSE,"CV","p",2006,"cv","A","9","v","v",TRUE,1
"CVOE updated",1009,1,1,18,"O 64","","",TRUE,"CV","p",1859,"cv","O","4","v","v",TRUE,1
"CVOE updated",1009,1,1,19,"D 02","","",FALSE,"CV","q",2697,"cv","D","2","c","c",TRUE,1
"CVOE updated",1009,1,1,20,"P 81","","",TRUE,"CV","q",2068,"cv","P","1","c","c",TRUE,1
"CVOE updated",1009,1,1,21,"J 58","","",FALSE,"CV","q",2107,"cv","J","8","c","c",TRUE,1
"CVOE updated",1009,1,1,22,"A 22","","",TRUE,"CV","p",2681,"cv","A","2","v","v",TRUE,1
"CVOE updated",1009,1,1,23,"J 72","","",FALSE,"CV","q",1745,"cv","J","2","c","c",TRUE,1
"CVOE updated",1009,1,1,24,"P 91","","",TRUE,"CV","q",1807,"cv","P","1","c","c",TRUE,1
"CVOE updated",1009,1,1,25,"E 19","","",FALSE,"CV","p",2815,"cv","E","9","v","v",TRUE,1
"CVOE updated",1009,1,1,26,"I 30","","",TRUE,"CV","p",1552,"cv","I","0","v","v",TRUE,1
"CVOE updated",1009,1,1,27,"D 91","","",TRUE,"CV","q",1721,"cv","D","1","c","c",TRUE,1
"CVOE updated",1009,1,1,28,"O 48","","",TRUE,"CV","p",3037,"cv","O","8","v","v",TRUE,1
"CVOE updated",1009,1,1,29,"A 89","","",FALSE,"CV","p",1471,"cv","A","9","v","v",TRUE,1
"CVOE updated",1009,1,1,30,"U 11","","",FALSE,"CV","p",1771,"cv","U","1","v","v",TRUE,1
"CVOE updated",1009,1,1,31,"I 76","","",TRUE,"CV","p",1617,"cv","I","6","v","v",TRUE,1
"CVOE updated",1009,1,1,32,"U 89","","",FALSE,"CV","p",1681,"cv","U","9","v","v",TRUE,1
"CVOE updated",1009,1,1,33,"D 63","","",TRUE,"CV","q",1772,"cv","D","3","c","c",TRUE,1
"CVOE updated",1009,1,1,34,"H 70","","",FALSE,"CV","q",1838,"cv","H","0","c","c",TRUE,1
"CVOE updated",1009,1,1,35,"D 48","","",FALSE,"CV","q",1785,"cv","D","8","c","c",TRUE,1
"CVOE updated",1009,1,1,36,"P 56","","",FALSE,"CV","q",1748,"cv","P","6","c","c",TRUE,1
"CVOE updated",1009,1,1,37,"O 77","","",FALSE,"CV","p",1928,"cv","O","7","v","v",TRUE,1
"CVOE updated",1009,1,1,38,"P 42","","",FALSE,"CV","q",1691,"cv","P","2","c","c",TRUE,1
"CVOE updated",1009,1,1,39,"H 22","","",FALSE,"CV","q",1403,"cv","H","2","c","c",TRUE,1
"CVOE updated",1009,1,1,40,"E 42","","",TRUE,"CV","p",1928,"cv","E","2","v","v",TRUE,1
"CVOE updated",1009,1,1,41,"J 28","","",FALSE,"CV","q",1553,"cv","J","8","c","c",TRUE,1
"CVOE updated",1009,1,1,42,"E 95","","",FALSE,"CV","p",1905,"cv","E","5","v","v",TRUE,1
"CVOE updated",1009,1,1,43,"S 63","","",TRUE,"CV","q",2372,"cv","S","3","c","c",TRUE,1
"CVOE updated",1009,1,1,44,"H 50","","",FALSE,"CV","q",1785,"cv","H","0","c","c",TRUE,1
"CVOE updated",1009,1,1,45,"S 33","","",TRUE,"CV","q",1769,"cv","S","3","c","c",TRUE,1
"CVOE updated",1009,1,1,46,"P 57","","",TRUE,"CV","q",1669,"cv","P","7","c","c",TRUE,1
"CVOE updated",1009,1,1,47,"E 23","","",FALSE,"CV","p",2986,"cv","E","3","v","v",TRUE,1
"CVOE updated",1009,1,1,48,"S 61","","",TRUE,"CV","q",1508,"cv","S","1","c","c",TRUE,1
"CVOE updated",1009,1,1,49,"U 67","","",FALSE,"CV","p",2028,"cv","U","7","v","v",TRUE,1
"CVOE updated",1009,1,1,50,"H 32","","",FALSE,"CV","q",1544,"cv","H","2","c","c",TRUE,1
"CVOE updated",1009,1,1,51,"U 50","","",TRUE,"CV","p",2143,"cv","U","0","v","v",TRUE,1
"CVOE updated",1009,1,1,52,"O 49","","",FALSE,"CV","p",1643,"cv","O","9","v","v",TRUE,1
"CVOE updated",1009,1,1,53,"U 32","","",TRUE,"CV","p",1303,"cv","U","2","v","v",TRUE,1
"CVOE updated",1009,1,1,54,"J 78","","",FALSE,"CV","q",1521,"cv","J","8","c","c",TRUE,1
"CVOE updated",1009,1,1,55,"S 54","","",FALSE,"CV","q",1678,"cv","S","4","c","c",TRUE,1
"CVOE updated",1009,1,1,56,"J 27","","",TRUE,"CV","q",1401,"cv","J","7","c","c",TRUE,1
"CVOE updated",1009,1,1,57,"S 06","","",FALSE,"CV","q",1630,"cv","S","6","c","c",TRUE,1
"CVOE updated",1009,1,1,58,"D 67","","",TRUE,"CV","q",1794,"cv","D","7","c","c",TRUE,1
"CVOE updated",1009,1,1,59,"A 79","","",FALSE,"CV","p",2322,"cv","A","9","v","v",TRUE,1
"CVOE updated",1009,1,1,60,"S 52","","",FALSE,"CV","q",3120,"cv","S","2","c","c",TRUE,1
"CVOE updated",1009,1,1,61,"U 16","","",TRUE,"CV","p",2412,"cv","U","6","v","v",TRUE,1
"CVOE updated",1009,1,1,62,"O 82","","",TRUE,"CV","p",1818,"cv","O","2","v","v",TRUE,1
"CVOE updated",1009,1,1,63,"H 87","","",TRUE,"CV","q",1485,"cv","H","7","c","c",TRUE,1
"CVOE updated",1009,1,1,64,"I 32","","",TRUE,"CV","p",1682,"cv","I","2","v","v",TRUE,1
"CVOE updated",1009,1,1,65,"U 37","","",FALSE,"CV","p",1235,"cv","U","7","v","v",TRUE,1
"CVOE updated",1009,1,1,66,"I 42","","",TRUE,"CV","p",1245,"cv","I","2","v","v",TRUE,1
"CVOE updated",1009,1,1,67,"D 65","","",TRUE,"CV","q",1536,"cv","D","5","c","c",TRUE,1
"CVOE updated",1009,1,1,68,"U 77","","",FALSE,"CV","p",1839,"cv","U","7","v","v",TRUE,1
"CVOE updated",1009,1,1,69,"E 12","","",TRUE,"CV","p",981,"cv","E","2","v","v",TRUE,1
"CVOE updated",1009,1,1,70,"I 60","","",TRUE,"CV","p",1152,"cv","I","0","v","v",TRUE,1
"CVOE updated",1009,1,1,71,"J 36","","",FALSE,"CV","q",1496,"cv","J","6","c","c",TRUE,1
"CVOE updated",1009,1,1,72,"H 75","","",TRUE,"CV","q",1657,"cv","H","5","c","c",TRUE,1
"CVOE updated",1009,1,1,73,"I 50","","",TRUE,"CV","p",1517,"cv","I","0","v","v",TRUE,1
"CVOE updated",1009,1,1,74,"E 99","","",FALSE,"CV","p",1154,"cv","E","9","v","v",TRUE,1
"CVOE updated",1009,1,1,75,"A 86","","",TRUE,"CV","p",1045,"cv","A","6","v","v",TRUE,1
"CVOE updated",1009,1,1,76,"U 48","","",TRUE,"CV","p",1069,"cv","U","8","v","v",TRUE,1
"CVOE updated",1009,1,1,77,"E 01","","",FALSE,"CV","p",1204,"cv","E","1","v","v",TRUE,1
"CVOE updated",1009,1,1,78,"A 78","","",TRUE,"CV","p",1239,"cv","A","8","v","v",TRUE,1
"CVOE updated",1009,1,1,79,"P 60","","",FALSE,"CV","q",1616,"cv","P","0","c","c",TRUE,1
"CVOE updated",1009,1,1,80,"E 43","","",FALSE,"CV","p",2533,"cv","E","3","v","v",TRUE,1
"CVOE updated",1009,1,1,81,"D 69","","",TRUE,"CV","q",1498,"cv","D","9","c","c",TRUE,1
"CVOE updated",1009,1,1,82,"H 11","","",TRUE,"CV","q",1287,"cv","H","1","c","c",TRUE,1
"CVOE updated",1009,1,1,83,"P 43","","",TRUE,"CV","q",1154,"cv","P","3","c","c",TRUE,1
"CVOE updated",1009,1,1,84,"O 67","","",FALSE,"CV","p",1994,"cv","O","7","v","v",TRUE,1
"CVOE updated",1009,1,1,85,"S 91","","",FALSE,"CV","q",1569,"cv","S","1","c","c",TRUE,1
"CVOE updated",1009,1,1,86,"J 68","","",TRUE,"CV","q",1500,"cv","J","8","c","c",TRUE,1
"CVOE updated",1009,1,1,87,"S 47","","",FALSE,"CV","q",1616,"cv","S","7","c","c",TRUE,1
"CVOE updated",1009,1,1,88,"I 81","","",TRUE,"CV","p",1863,"cv","I","1","v","v",TRUE,1
"CVOE updated",1009,1,1,89,"J 39","","",FALSE,"CV","q",1793,"cv","J","9","c","c",TRUE,1
"CVOE updated",1009,1,1,90,"A 11","","",TRUE,"CV","p",1906,"cv","A","1","v","v",TRUE,1
"CVOE updated",1009,1,1,91,"O 76","","",FALSE,"CV","p",1399,"cv","O","6","v","v",TRUE,1
"CVOE updated",1009,1,1,92,"A 62","","",FALSE,"CV","p",1398,"cv","A","2","v","v",TRUE,1
"CVOE updated",1009,1,1,93,"O 27","","",TRUE,"CV","p",1319,"cv","O","7","v","v",TRUE,1
"CVOE updated",1009,1,1,94,"E 66","","",FALSE,"CV","p",1192,"cv","E","6","v","v",TRUE,1
"CVOE updated",1009,1,1,95,"J 62","","",TRUE,"CV","q",1511,"cv","J","2","c","c",TRUE,1
"CVOE updated",1009,1,1,96,"H 72","","",TRUE,"CV","q",1245,"cv","H","2","c","c",TRUE,1
"CVOE updated",1009,1,1,97,"E 49","","",TRUE,"CV","p",1944,"cv","E","9","v","v",TRUE,1
"CVOE updated",1009,1,1,98,"D 52","","",TRUE,"CV","q",1773,"cv","D","2","c","c",TRUE,1
"CVOE updated",1009,1,1,99,"H 62","","",TRUE,"CV","q",1286,"cv","H","2","c","c",TRUE,1
"CVOE updated",1009,1,1,100,"I 11","","",TRUE,"CV","p",1689,"cv","I","1","v","v",TRUE,1
"CVOE updated",1009,1,1,101,"A 98","","",FALSE,"CV","p",1092,"cv","A","8","v","v",TRUE,1
"CVOE updated",1009,1,1,102,"H 29","","",FALSE,"CV","q",1536,"cv","H","9","c","c",TRUE,1
"CVOE updated",1009,1,1,103,"E 83","","",TRUE,"CV","p",1475,"cv","E","3","v","v",TRUE,1
"CVOE updated",1009,1,1,104,"D 43","","",FALSE,"CV","q",1447,"cv","D","3","c","c",TRUE,1
"CVOE updated",1009,1,1,105,"P 45","","",TRUE,"CV","q",1377,"cv","P","5","c","c",TRUE,1
"CVOE updated",1009,1,1,106,"J 17","","",TRUE,"CV","q",1174,"cv","J","7","c","c",TRUE,1
"CVOE updated",1013,1,1,11,"A 71","","",FALSE,"CV","q",1358,"cv","A","1","v","c",FALSE,0
"CVOE updated",1013,1,1,12,"I 66","","",TRUE,"CV","q",1056,"cv","I","6","v","c",FALSE,0
"CVOE updated",1013,1,1,13,"S 30","","",FALSE,"CV","p",1960,"cv","S","0","c","v",FALSE,0
"CVOE updated",1013,1,1,14,"D 20","","",FALSE,"CV","p",1382,"cv","D","0","c","v",FALSE,0
"CVOE updated",1013,1,1,15,"I 31","","",FALSE,"CV","q",1088,"cv","I","1","v","c",FALSE,0
"CVOE updated",1013,1,1,16,"P 16","","",FALSE,"CV","p",777,"cv","P","6","c","v",FALSE,0
"CVOE updated",1013,1,1,17,"A 49","","",FALSE,"CV","q",573,"cv","A","9","v","c",FALSE,0
"CVOE updated",1013,1,1,18,"O 64","","",TRUE,"CV","q",1114,"cv","O","4","v","c",FALSE,0
"CVOE updated",1013,1,1,19,"D 02","","",FALSE,"CV","p",785,"cv","D","2","c","v",FALSE,0
"CVOE updated",1013,1,1,20,"P 81","","",TRUE,"CV","p",1114,"cv","P","1","c","v",FALSE,0
"CVOE updated",1013,1,1,21,"J 58","","",FALSE,"CV","p",629,"cv","J","8","c","v",FALSE,0
"CVOE updated",1013,1,1,22,"A 22","","",TRUE,"CV","q",493,"cv","A","2","v","c",FALSE,0
"CVOE updated",1013,1,1,23,"J 72","","",FALSE,"CV","p",733,"cv","J","2","c","v",FALSE,0
"CVOE updated",1013,1,1,24,"P 91","","",TRUE,"CV","p",789,"cv","P","1","c","v",FALSE,0
"CVOE updated",1013,1,1,25,"E 19","","",FALSE,"CV","q",735,"cv","E","9","v","c",FALSE,0
"CVOE updated",1013,1,1,26,"I 30","","",TRUE,"CV","q",783,"cv","I","0","v","c",FALSE,0
"CVOE updated",1013,1,1,27,"D 91","","",TRUE,"CV","p",732,"cv","D","1","c","v",FALSE,0
"CVOE updated",1013,1,1,28,"O 48","","",TRUE,"CV","q",882,"cv","O","8","v","c",FALSE,0
"CVOE updated",1013,1,1,29,"A 89","","",FALSE,"CV","q",672,"cv","A","9","v","c",FALSE,0
"CVOE updated",1013,1,1,30,"U 11","","",FALSE,"CV","q",1017,"cv","U","1","v","c",FALSE,0
"CVOE updated",1013,1,1,31,"I 76","","",TRUE,"CV","q",1934,"cv","I","6","v","c",FALSE,0
"CVOE updated",1013,1,1,32,"U 89","","",FALSE,"CV","p",778,"cv","U","9","v","v",TRUE,1
"CVOE updated",1013,1,1,33,"D 63","","",TRUE,"CV","p",2430,"cv","D","3","c","v",FALSE,0
"CVOE updated",1013,1,1,34,"H 70","","",FALSE,"CV","p",2537,"cv","H","0","c","v",FALSE,0
"CVOE updated",1013,1,1,35,"D 48","","",FALSE,"CV","p",739,"cv","D","8","c","v",FALSE,0
"CVOE updated",1013,1,1,36,"P 56","","",FALSE,"CV","p",977,"cv","P","6","c","v",FALSE,0
"CVOE updated",1013,1,1,37,"O 77","","",FALSE,"CV","q",729,"cv","O","7","v","c",FALSE,0
"CVOE updated",1013,1,1,38,"P 42","","",FALSE,"CV","p",877,"cv","P","2","c","v",FALSE,0
"CVOE updated",1013,1,1,39,"H 22","","",FALSE,"CV","p",736,"cv","H","2","c","v",FALSE,0
"CVOE updated",1013,1,1,40,"E 42","","",TRUE,"CV","q",2277,"cv","E","2","v","c",FALSE,0
"CVOE updated",1013,1,1,41,"J 28","","",FALSE,"CV","p",836,"cv","J","8","c","v",FALSE,0
"CVOE updated",1013,1,1,42,"E 95","","",FALSE,"CV","q",683,"cv","E","5","v","c",FALSE,0
"CVOE updated",1013,1,1,43,"S 63","","",TRUE,"CV","p",728,"cv","S","3","c","v",FALSE,0
"CVOE updated",1013,1,1,44,"H 50","","",FALSE,"CV","p",1008,"cv","H","0","c","v",FALSE,0
"CVOE updated",1013,1,1,45,"S 33","","",TRUE,"CV","p",690,"cv","S","3","c","v",FALSE,0
"CVOE updated",1013,1,1,46,"P 57","","",TRUE,"CV","p",1003,"cv","P","7","c","v",FALSE,0
"CVOE updated",1013,1,1,47,"E 23","","",FALSE,"CV","q",708,"cv","E","3","v","c",FALSE,0
"CVOE updated",1013,1,1,48,"S 61","","",TRUE,"CV","p",889,"cv","S","1","c","v",FALSE,0
"CVOE updated",1013,1,1,49,"U 67","","",FALSE,"CV","q",2346,"cv","U","7","v","c",FALSE,0
"CVOE updated",1013,1,1,50,"H 32","","",FALSE,"CV","p",650,"cv","H","2","c","v",FALSE,0
"CVOE updated",1013,1,1,51,"U 50","","",TRUE,"CV","q",919,"cv","U","0","v","c",FALSE,0
"CVOE updated",1013,1,1,52,"O 49","","",FALSE,"CV","q",1195,"cv","O","9","v","c",FALSE,0
"CVOE updated",1013,1,1,53,"U 32","","",TRUE,"CV","q",1870,"cv","U","2","v","c",FALSE,0
"CVOE updated",1013,1,1,54,"J 78","","",FALSE,"CV","p",659,"cv","J","8","c","v",FALSE,0
"CVOE updated",1013,1,1,55,"S 54","","",FALSE,"CV","p",770,"cv","S","4","c","v",FALSE,0
"CVOE updated",1013,1,1,56,"J 27","","",TRUE,"CV","p",641,"cv","J","7","c","v",FALSE,0
"CVOE updated",1013,1,1,57,"S 06","","",FALSE,"CV","p",945,"cv","S","6","c","v",FALSE,0
"CVOE updated",1013,1,1,58,"D 67","","",TRUE,"CV","p",919,"cv","D","7","c","v",FALSE,0
"CVOE updated",1013,1,1,59,"A 79","","",FALSE,"CV","q",584,"cv","A","9","v","c",FALSE,0
"CVOE updated",1013,1,1,60,"S 52","","",FALSE,"CV","p",858,"cv","S","2","c","v",FALSE,0
"CVOE updated",1013,1,1,61,"U 16","","",TRUE,"CV","q",838,"cv","U","6","v","c",FALSE,0
"CVOE updated",1013,1,1,62,"O 82","","",TRUE,"CV","q",684,"cv","O","2","v","c",FALSE,0
"CVOE updated",1013,1,1,63,"H 87","","",TRUE,"CV","p",631,"cv","H","7","c","v",FALSE,0
"CVOE updated",1013,1,1,64,"I 32","","",TRUE,"CV","q",596,"cv","I","2","v","c",FALSE,0
"CVOE updated",1013,1,1,65,"U 37","","",FALSE,"CV","q",1340,"cv","U","7","v","c",FALSE,0
"CVOE updated",1013,1,1,66,"I 42","","",TRUE,"CV","q",623,"cv","I","2","v","c",FALSE,0
"CVOE updated",1013,1,1,67,"D 65","","",TRUE,"CV","p",640,"cv","D","5","c","v",FALSE,0
"CVOE updated",1013,1,1,68,"U 77","","",FALSE,"CV","q",711,"cv","U","7","v","c",FALSE,0
"CVOE updated",1013,1,1,69,"E 12","","",TRUE,"CV","q",1073,"cv","E","2","v","c",FALSE,0
"CVOE updated",1013,1,1,70,"I 60","","",TRUE,"CV","q",1909,"cv","I","0","v","c",FALSE,0
"CVOE updated",1013,1,1,71,"J 36","","",FALSE,"CV","p",847,"cv","J","6","c","v",FALSE,0
"CVOE updated",1013,1,1,72,"H 75","","",TRUE,"CV","p",771,"cv","H","5","c","v",FALSE,0
"CVOE updated",1013,1,1,73,"I 50","","",TRUE,"CV","q",658,"cv","I","0","v","c",FALSE,0
"CVOE updated",1013,1,1,74,"E 99","","",FALSE,"CV","q",724,"cv","E","9","v","c",FALSE,0
"CVOE updated",1013,1,1,75,"A 86","","",TRUE,"CV","q",645,"cv","A","6","v","c",FALSE,0
"CVOE updated",1013,1,1,76,"U 48","","",TRUE,"CV","q",844,"cv","U","8","v","c",FALSE,0
"CVOE updated",1013,1,1,77,"E 01","","",FALSE,"CV","q",527,"cv","E","1","v","c",FALSE,0
"CVOE updated",1013,1,1,78,"A 78","","",TRUE,"CV","q",573,"cv","A","8","v","c",FALSE,0
"CVOE updated",1013,1,1,79,"P 60","","",FALSE,"CV","p",576,"cv","P","0","c","v",FALSE,0
"CVOE updated",1013,1,1,80,"E 43","","",FALSE,"CV","q",681,"cv","E","3","v","c",FALSE,0
"CVOE updated",1013,1,1,81,"D 69","","",TRUE,"CV","p",682,"cv","D","9","c","v",FALSE,0
"CVOE updated",1013,1,1,82,"H 11","","",TRUE,"CV","p",666,"cv","H","1","c","v",FALSE,0
"CVOE updated",1013,1,1,83,"P 43","","",TRUE,"CV","p",696,"cv","P","3","c","v",FALSE,0
"CVOE updated",1013,1,1,84,"O 67","","",FALSE,"CV","p",556,"cv","O","7","v","v",TRUE,1
"CVOE updated",1013,1,1,85,"S 91","","",FALSE,"CV","p",3263,"cv","S","1","c","v",FALSE,0
"CVOE updated",1013,1,1,86,"J 68","","",TRUE,"CV","p",739,"cv","J","8","c","v",FALSE,0
"CVOE updated",1013,1,1,87,"S 47","","",FALSE,"CV","p",762,"cv","S","7","c","v",FALSE,0
"CVOE updated",1013,1,1,88,"I 81","","",TRUE,"CV","q",651,"cv","I","1","v","c",FALSE,0
"CVOE updated",1013,1,1,89,"J 39","","",FALSE,"CV","p",590,"cv","J","9","c","v",FALSE,0
"CVOE updated",1013,1,1,90,"A 11","","",TRUE,"CV","q",505,"cv","A","1","v","c",FALSE,0
"CVOE updated",1013,1,1,91,"O 76","","",FALSE,"CV","q",630,"cv","O","6","v","c",FALSE,0
"CVOE updated",1013,1,1,92,"A 62","","",FALSE,"CV","q",654,"cv","A","2","v","c",FALSE,0
"CVOE updated",1013,1,1,93,"O 27","","",TRUE,"CV","q",1091,"cv","O","7","v","c",FALSE,0
"CVOE updated",1013,1,1,94,"E 66","","",FALSE,"CV","q",796,"cv","E","6","v","c",FALSE,0
"CVOE updated",1013,1,1,95,"J 62","","",TRUE,"CV","p",657,"cv","J","2","c","v",FALSE,0
"CVOE updated",1013,1,1,96,"H 72","","",TRUE,"CV","p",1154,"cv","H","2","c","v",FALSE,0
"CVOE updated",1013,1,1,97,"E 49","","",TRUE,"CV","q",803,"cv","E","9","v","c",FALSE,0
"CVOE updated",1013,1,1,98,"D 52","","",TRUE,"CV","p",1189,"cv","D","2","c","v",FALSE,0
"CVOE updated",1013,1,1,99,"H 62","","",TRUE,"CV","p",1600,"cv","H","2","c","v",FALSE,0
"CVOE updated",1013,1,1,100,"I 11","","",TRUE,"CV","q",674,"cv","I","1","v","c",FALSE,0
"CVOE updated",1013,1,1,101,"A 98","","",FALSE,"CV","q",562,"cv","A","8","v","c",FALSE,0
"CVOE updated",1013,1,1,102,"H 29","","",FALSE,"CV","p",642,"cv","H","9","c","v",FALSE,0
"CVOE updated",1013,1,1,103,"E 83","","",TRUE,"CV","q",660,"cv","E","3","v","c",FALSE,0
"CVOE updated",1013,1,1,104,"D 43","","",FALSE,"CV","p",681,"cv","D","3","c","v",FALSE,0
"CVOE updated",1013,1,1,105,"P 45","","",TRUE,"CV","p",722,"cv","P","5","c","v",FALSE,0
"CVOE updated",1013,1,1,106,"J 17","","",TRUE,"CV","p",671,"cv","J","7","c","v",FALSE,0
"CVOE updated",2005,1,1,11,"A 71","","",FALSE,"CV","q",1858,"cv","A","1","v","c",FALSE,0
"CVOE updated",2005,1,1,12,"I 66","","",TRUE,"CV","q",1208,"cv","I","6","v","c",FALSE,0
"CVOE updated",2005,1,1,13,"S 30","","",FALSE,"CV","p",738,"cv","S","0","c","v",FALSE,0
"CVOE updated",2005,1,1,14,"D 20","","",FALSE,"CV","p",1089,"cv","D","0","c","v",FALSE,0
"CVOE updated",2005,1,1,15,"I 31","","",FALSE,"CV","q",1049,"cv","I","1","v","c",FALSE,0
"CVOE updated",2005,1,1,16,"P 16","","",FALSE,"CV","p",848,"cv","P","6","c","v",FALSE,0
"CVOE updated",2005,1,1,17,"A 49","","",FALSE,"CV","q",690,"cv","A","9","v","c",FALSE,0
"CVOE updated",2005,1,1,18,"O 64","","",TRUE,"CV","q",957,"cv","O","4","v","c",FALSE,0
"CVOE updated",2005,1,1,19,"D 02","","",FALSE,"CV","p",895,"cv","D","2","c","v",FALSE,0
"CVOE updated",2005,1,1,20,"P 81","","",TRUE,"CV","p",1314,"cv","P","1","c","v",FALSE,0
"CVOE updated",2005,1,1,21,"J 58","","",FALSE,"CV","p",727,"cv","J","8","c","v",FALSE,0
"CVOE updated",2005,1,1,22,"A 22","","",TRUE,"CV","q",647,"cv","A","2","v","c",FALSE,0
"CVOE updated",2005,1,1,23,"J 72","","",FALSE,"CV","p",769,"cv","J","2","c","v",FALSE,0
"CVOE updated",2005,1,1,24,"P 91","","",TRUE,"CV","p",930,"cv","P","1","c","v",FALSE,0
"CVOE updated",2005,1,1,25,"E 19","","",FALSE,"CV","q",2136,"cv","E","9","v","c",FALSE,0
"CVOE updated",2005,1,1,26,"I 30","","",TRUE,"CV","q",1161,"cv","I","0","v","c",FALSE,0
"CVOE updated",2005,1,1,27,"D 91","","",TRUE,"CV","p",843,"cv","D","1","c","v",FALSE,0
"CVOE updated",2005,1,1,28,"O 48","","",TRUE,"CV","q",920,"cv","O","8","v","c",FALSE,0
"CVOE updated",2005,1,1,29,"A 89","","",FALSE,"CV","q",892,"cv","A","9","v","c",FALSE,0
"CVOE updated",2005,1,1,30,"U 11","","",FALSE,"CV","q",2837,"cv","U","1","v","c",FALSE,0
"CVOE updated",2005,1,1,31,"I 76","","",TRUE,"CV","q",1276,"cv","I","6","v","c",FALSE,0
"CVOE updated",2005,1,1,32,"U 89","","",FALSE,"CV","q",1467,"cv","U","9","v","c",FALSE,0
"CVOE updated",2005,1,1,33,"D 63","","",TRUE,"CV","p",692,"cv","D","3","c","v",FALSE,0
"CVOE updated",2005,1,1,34,"H 70","","",FALSE,"CV","p",1036,"cv","H","0","c","v",FALSE,0
"CVOE updated",2005,1,1,35,"D 48","","",FALSE,"CV","p",1087,"cv","D","8","c","v",FALSE,0
"CVOE updated",2005,1,1,36,"P 56","","",FALSE,"CV","p",773,"cv","P","6","c","v",FALSE,0
"CVOE updated",2005,1,1,37,"O 77","","",FALSE,"CV","q",874,"cv","O","7","v","c",FALSE,0
"CVOE updated",2005,1,1,38,"P 42","","",FALSE,"CV","p",1247,"cv","P","2","c","v",FALSE,0
"CVOE updated",2005,1,1,39,"H 22","","",FALSE,"CV","p",806,"cv","H","2","c","v",FALSE,0
"CVOE updated",2005,1,1,40,"E 42","","",TRUE,"CV","q",1089,"cv","E","2","v","c",FALSE,0
"CVOE updated",2005,1,1,41,"J 28","","",FALSE,"CV","p",934,"cv","J","8","c","v",FALSE,0
"CVOE updated",2005,1,1,42,"E 95","","",FALSE,"CV","q",848,"cv","E","5","v","c",FALSE,0
"CVOE updated",2005,1,1,43,"S 63","","",TRUE,"CV","p",769,"cv","S","3","c","v",FALSE,0
"CVOE updated",2005,1,1,44,"H 50","","",FALSE,"CV","p",948,"cv","H","0","c","v",FALSE,0
"CVOE updated",2005,1,1,45,"S 33","","",TRUE,"CV","p",807,"cv","S","3","c","v",FALSE,0
"CVOE updated",2005,1,1,46,"P 57","","",TRUE,"CV","p",840,"cv","P","7","c","v",FALSE,0
"CVOE updated",2005,1,1,47,"E 23","","",FALSE,"CV","q",722,"cv","E","3","v","c",FALSE,0
"CVOE updated",2005,1,1,48,"S 61","","",TRUE,"CV","p",894,"cv","S","1","c","v",FALSE,0
"CVOE updated",2005,1,1,49,"U 67","","",FALSE,"CV","q",999,"cv","U","7","v","c",FALSE,0
"CVOE updated",2005,1,1,50,"H 32","","",FALSE,"CV","p",1475,"cv","H","2","c","v",FALSE,0
"CVOE updated",2005,1,1,51,"U 50","","",TRUE,"CV","q",1011,"cv","U","0","v","c",FALSE,0
"CVOE updated",2005,1,1,52,"O 49","","",FALSE,"CV","p",1430,"cv","O","9","v","v",TRUE,1
"CVOE updated",2005,1,1,53,"U 32","","",TRUE,"CV","q",1863,"cv","U","2","v","c",FALSE,0
"CVOE updated",2005,1,1,54,"J 78","","",FALSE,"CV","p",1781,"cv","J","8","c","v",FALSE,0
"CVOE updated",2005,1,1,55,"S 54","","",FALSE,"CV","p",1157,"cv","S","4","c","v",FALSE,0
"CVOE updated",2005,1,1,56,"J 27","","",TRUE,"CV","p",1364,"cv","J","7","c","v",FALSE,0
"CVOE updated",2005,1,1,57,"S 06","","",FALSE,"CV","p",727,"cv","S","6","c","v",FALSE,0
"CVOE updated",2005,1,1,58,"D 67","","",TRUE,"CV","p",843,"cv","D","7","c","v",FALSE,0
"CVOE updated",2005,1,1,59,"A 79","","",FALSE,"CV","q",961,"cv","A","9","v","c",FALSE,0
"CVOE updated",2005,1,1,60,"S 52","","",FALSE,"CV","p",843,"cv","S","2","c","v",FALSE,0
"CVOE updated",2005,1,1,61,"U 16","","",TRUE,"CV","q",920,"cv","U","6","v","c",FALSE,0
"CVOE updated",2005,1,1,62,"O 82","","",TRUE,"CV","q",891,"cv","O","2","v","c",FALSE,0
"CVOE updated",2005,1,1,63,"H 87","","",TRUE,"CV","p",684,"cv","H","7","c","v",FALSE,0
"CVOE updated",2005,1,1,64,"I 32","","",TRUE,"CV","q",851,"cv","I","2","v","c",FALSE,0
"CVOE updated",2005,1,1,65,"U 37","","",FALSE,"CV","q",1437,"cv","U","7","v","c",FALSE,0
"CVOE updated",2005,1,1,66,"I 42","","",TRUE,"CV","q",1284,"cv","I","2","v","c",FALSE,0
"CVOE updated",2005,1,1,67,"D 65","","",TRUE,"CV","p",653,"cv","D","5","c","v",FALSE,0
"CVOE updated",2005,1,1,68,"U 77","","",FALSE,"CV","q",853,"cv","U","7","v","c",FALSE,0
"CVOE updated",2005,1,1,69,"E 12","","",TRUE,"CV","q",852,"cv","E","2","v","c",FALSE,0
"CVOE updated",2005,1,1,70,"I 60","","",TRUE,"CV","q",812,"cv","I","0","v","c",FALSE,0
"CVOE updated",2005,1,1,71,"J 36","","",FALSE,"CV","p",1276,"cv","J","6","c","v",FALSE,0
"CVOE updated",2005,1,1,72,"H 75","","",TRUE,"CV","p",1583,"cv","H","5","c","v",FALSE,0
"CVOE updated",2005,1,1,73,"I 50","","",TRUE,"CV","q",1630,"cv","I","0","v","c",FALSE,0
"CVOE updated",2005,1,1,74,"E 99","","",FALSE,"CV","q",765,"cv","E","9","v","c",FALSE,0
"CVOE updated",2005,1,1,75,"A 86","","",TRUE,"CV","q",809,"cv","A","6","v","c",FALSE,0
"CVOE updated",2005,1,1,76,"U 48","","",TRUE,"CV","q",1077,"cv","U","8","v","c",FALSE,0
"CVOE updated",2005,1,1,77,"E 01","","",FALSE,"CV","q",842,"cv","E","1","v","c",FALSE,0
"CVOE updated",2005,1,1,78,"A 78","","",TRUE,"CV","q",841,"cv","A","8","v","c",FALSE,0
"CVOE updated",2005,1,1,79,"P 60","","",FALSE,"CV","p",644,"cv","P","0","c","v",FALSE,0
"CVOE updated",2005,1,1,80,"E 43","","",FALSE,"CV","q",1040,"cv","E","3","v","c",FALSE,0
"CVOE updated",2005,1,1,81,"D 69","","",TRUE,"CV","p",1286,"cv","D","9","c","v",FALSE,0
"CVOE updated",2005,1,1,82,"H 11","","",TRUE,"CV","p",672,"cv","H","1","c","v",FALSE,0
"CVOE updated",2005,1,1,83,"P 43","","",TRUE,"CV","p",660,"cv","P","3","c","v",FALSE,0
"CVOE updated",2005,1,1,84,"O 67","","",FALSE,"CV","q",921,"cv","O","7","v","c",FALSE,0
"CVOE updated",2005,1,1,85,"S 91","","",FALSE,"CV","p",814,"cv","S","1","c","v",FALSE,0
"CVOE updated",2005,1,1,86,"J 68","","",TRUE,"CV","p",1434,"cv","J","8","c","v",FALSE,0
"CVOE updated",2005,1,1,87,"S 47","","",FALSE,"CV","p",1827,"cv","S","7","c","v",FALSE,0
"CVOE updated",2005,1,1,88,"I 81","","",TRUE,"CV","q",997,"cv","I","1","v","c",FALSE,0
"CVOE updated",2005,1,1,89,"J 39","","",FALSE,"CV","p",650,"cv","J","9","c","v",FALSE,0
"CVOE updated",2005,1,1,90,"A 11","","",TRUE,"CV","q",654,"cv","A","1","v","c",FALSE,0
"CVOE updated",2005,1,1,91,"O 76","","",FALSE,"CV","q",815,"cv","O","6","v","c",FALSE,0
"CVOE updated",2005,1,1,92,"A 62","","",FALSE,"CV","q",730,"cv","A","2","v","c",FALSE,0
"CVOE updated",2005,1,1,93,"O 27","","",TRUE,"CV","q",1003,"cv","O","7","v","c",FALSE,0
"CVOE updated",2005,1,1,94,"E 66","","",FALSE,"CV","q",1009,"cv","E","6","v","c",FALSE,0
"CVOE updated",2005,1,1,95,"J 62","","",TRUE,"CV","p",880,"cv","J","2","c","v",FALSE,0
"CVOE updated",2005,1,1,96,"H 72","","",TRUE,"CV","p",1394,"cv","H","2","c","v",FALSE,0
"CVOE updated",2005,1,1,97,"E 49","","",TRUE,"CV","q",841,"cv","E","9","v","c",FALSE,0
"CVOE updated",2005,1,1,98,"D 52","","",TRUE,"CV","p",802,"cv","D","2","c","v",FALSE,0
"CVOE updated",2005,1,1,99,"H 62","","",TRUE,"CV","p",1477,"cv","H","2","c","v",FALSE,0
"CVOE updated",2005,1,1,100,"I 11","","",TRUE,"CV","q",842,"cv","I","1","v","c",FALSE,0
"CVOE updated",2005,1,1,101,"A 98","","",FALSE,"CV","q",763,"cv","A","8","v","c",FALSE,0
"CVOE updated",2005,1,1,102,"H 29","","",FALSE,"CV","p",728,"cv","H","9","c","v",FALSE,0
"CVOE updated",2005,1,1,103,"E 83","","",TRUE,"CV","q",884,"cv","E","3","v","c",FALSE,0
"CVOE updated",2005,1,1,104,"D 43","","",FALSE,"CV","p",732,"cv","D","3","c","v",FALSE,0
"CVOE updated",2005,1,1,105,"P 45","","",TRUE,"CV","p",1318,"cv","P","5","c","v",FALSE,0
"CVOE updated",2005,1,1,106,"J 17","","",TRUE,"CV","p",967,"cv","J","7","c","v",FALSE,0
"CVOE updated",2009,1,1,11,"A 71","","",FALSE,"CV","p",7907,"cv","A","1","v","v",TRUE,1
"CVOE updated",2009,1,1,12,"I 66","","",TRUE,"CV","p",2383,"cv","I","6","v","v",TRUE,1
"CVOE updated",2009,1,1,13,"S 30","","",FALSE,"CV","q",1711,"cv","S","0","c","c",TRUE,1
"CVOE updated",2009,1,1,14,"D 20","","",FALSE,"CV","q",1867,"cv","D","0","c","c",TRUE,1
"CVOE updated",2009,1,1,15,"I 31","","",FALSE,"CV","p",1086,"cv","I","1","v","v",TRUE,1
"CVOE updated",2009,1,1,16,"P 16","","",FALSE,"CV","q",1951,"cv","P","6","c","c",TRUE,1
"CVOE updated",2009,1,1,17,"A 49","","",FALSE,"CV","p",1206,"cv","A","9","v","v",TRUE,1
"CVOE updated",2009,1,1,18,"O 64","","",TRUE,"CV","p",2015,"cv","O","4","v","v",TRUE,1
"CVOE updated",2009,1,1,19,"D 02","","",FALSE,"CV","q",1610,"cv","D","2","c","c",TRUE,1
"CVOE updated",2009,1,1,20,"P 81","","",TRUE,"CV","q",1724,"cv","P","1","c","c",TRUE,1
"CVOE updated",2009,1,1,21,"J 58","","",FALSE,"CV","q",1314,"cv","J","8","c","c",TRUE,1
"CVOE updated",2009,1,1,22,"A 22","","",TRUE,"CV","p",1016,"cv","A","2","v","v",TRUE,1
"CVOE updated",2009,1,1,23,"J 72","","",FALSE,"CV","q",1259,"cv","J","2","c","c",TRUE,1
"CVOE updated",2009,1,1,24,"P 91","","",TRUE,"CV","p",1121,"cv","P","1","c","v",FALSE,0
"CVOE updated",2009,1,1,25,"E 19","","",FALSE,"CV","p",1676,"cv","E","9","v","v",TRUE,1
"CVOE updated",2009,1,1,26,"I 30","","",TRUE,"CV","p",3608,"cv","I","0","v","v",TRUE,1
"CVOE updated",2009,1,1,27,"D 91","","",TRUE,"CV","q",1157,"cv","D","1","c","c",TRUE,1
"CVOE updated",2009,1,1,28,"O 48","","",TRUE,"CV","p",1850,"cv","O","8","v","v",TRUE,1
"CVOE updated",2009,1,1,29,"A 89","","",FALSE,"CV","p",1347,"cv","A","9","v","v",TRUE,1
"CVOE updated",2009,1,1,30,"U 11","","",FALSE,"CV","p",1107,"cv","U","1","v","v",TRUE,1
"CVOE updated",2009,1,1,31,"I 76","","",TRUE,"CV","p",1305,"cv","I","6","v","v",TRUE,1
"CVOE updated",2009,1,1,32,"U 89","","",FALSE,"CV","p",1382,"cv","U","9","v","v",TRUE,1
"CVOE updated",2009,1,1,33,"D 63","","",TRUE,"CV","q",1079,"cv","D","3","c","c",TRUE,1
"CVOE updated",2009,1,1,34,"H 70","","",FALSE,"CV","p",1071,"cv","H","0","c","v",FALSE,0
"CVOE updated",2009,1,1,35,"D 48","","",FALSE,"CV","p",877,"cv","D","8","c","v",FALSE,0
"CVOE updated",2009,1,1,36,"P 56","","",FALSE,"CV","p",1122,"cv","P","6","c","v",FALSE,0
"CVOE updated",2009,1,1,37,"O 77","","",FALSE,"CV","p",9040,"cv","O","7","v","v",TRUE,1
"CVOE updated",2009,1,1,38,"P 42","","",FALSE,"CV","q",1956,"cv","P","2","c","c",TRUE,1
"CVOE updated",2009,1,1,39,"H 22","","",FALSE,"CV","q",1916,"cv","H","2","c","c",TRUE,1
"CVOE updated",2009,1,1,40,"E 42","","",TRUE,"CV","p",950,"cv","E","2","v","v",TRUE,1
"CVOE updated",2009,1,1,41,"J 28","","",FALSE,"CV","q",1536,"cv","J","8","c","c",TRUE,1
"CVOE updated",2009,1,1,42,"E 95","","",FALSE,"CV","p",858,"cv","E","5","v","v",TRUE,1
"CVOE updated",2009,1,1,43,"S 63","","",TRUE,"CV","q",1189,"cv","S","3","c","c",TRUE,1
"CVOE updated",2009,1,1,44,"H 50","","",FALSE,"CV","q",2180,"cv","H","0","c","c",TRUE,1
"CVOE updated",2009,1,1,45,"S 33","","",TRUE,"CV","q",1356,"cv","S","3","c","c",TRUE,1
"CVOE updated",2009,1,1,46,"P 57","","",TRUE,"CV","q",3644,"cv","P","7","c","c",TRUE,1
"CVOE updated",2009,1,1,47,"E 23","","",FALSE,"CV","p",1902,"cv","E","3","v","v",TRUE,1
"CVOE updated",2009,1,1,48,"S 61","","",TRUE,"CV","q",3401,"cv","S","1","c","c",TRUE,1
"CVOE updated",2009,1,1,49,"U 67","","",FALSE,"CV","p",2026,"cv","U","7","v","v",TRUE,1
"CVOE updated",2009,1,1,50,"H 32","","",FALSE,"CV","q",1099,"cv","H","2","c","c",TRUE,1
"CVOE updated",2009,1,1,51,"U 50","","",TRUE,"CV","p",1135,"cv","U","0","v","v",TRUE,1
"CVOE updated",2009,1,1,52,"O 49","","",FALSE,"CV","p",1655,"cv","O","9","v","v",TRUE,1
"CVOE updated",2009,1,1,53,"U 32","","",TRUE,"CV","p",1725,"cv","U","2","v","v",TRUE,1
"CVOE updated",2009,1,1,54,"J 78","","",FALSE,"CV","q",994,"cv","J","8","c","c",TRUE,1
"CVOE updated",2009,1,1,55,"S 54","","",FALSE,"CV","q",1545,"cv","S","4","c","c",TRUE,1
"CVOE updated",2009,1,1,56,"J 27","","",TRUE,"CV","q",1733,"cv","J","7","c","c",TRUE,1
"CVOE updated",2009,1,1,57,"S 06","","",FALSE,"CV","q",1800,"cv","S","6","c","c",TRUE,1
"CVOE updated",2009,1,1,58,"D 67","","",TRUE,"CV","q",1327,"cv","D","7","c","c",TRUE,1
"CVOE updated",2009,1,1,59,"A 79","","",FALSE,"CV","p",886,"cv","A","9","v","v",TRUE,1
"CVOE updated",2009,1,1,60,"S 52","","",FALSE,"CV","q",1979,"cv","S","2","c","c",TRUE,1
"CVOE updated",2009,1,1,61,"U 16","","",TRUE,"CV","p",1199,"cv","U","6","v","v",TRUE,1
"CVOE updated",2009,1,1,62,"O 82","","",TRUE,"CV","p",1391,"cv","O","2","v","v",TRUE,1
"CVOE updated",2009,1,1,63,"H 87","","",TRUE,"CV","q",1116,"cv","H","7","c","c",TRUE,1
"CVOE updated",2009,1,1,64,"I 32","","",TRUE,"CV","p",1239,"cv","I","2","v","v",TRUE,1
"CVOE updated",2009,1,1,65,"U 37","","",FALSE,"CV","p",1311,"cv","U","7","v","v",TRUE,1
"CVOE updated",2009,1,1,66,"I 42","","",TRUE,"CV","p",1369,"cv","I","2","v","v",TRUE,1
"CVOE updated",2009,1,1,67,"D 65","","",TRUE,"CV","q",1020,"cv","D","5","c","c",TRUE,1
"CVOE updated",2009,1,1,68,"U 77","","",FALSE,"CV","p",1122,"cv","U","7","v","v",TRUE,1
"CVOE updated",2009,1,1,69,"E 12","","",TRUE,"CV","p",1271,"cv","E","2","v","v",TRUE,1
"CVOE updated",2009,1,1,70,"I 60","","",TRUE,"CV","p",959,"cv","I","0","v","v",TRUE,1
"CVOE updated",2009,1,1,71,"J 36","","",FALSE,"CV","q",908,"cv","J","6","c","c",TRUE,1
"CVOE updated",2009,1,1,72,"H 75","","",TRUE,"CV","p",1199,"cv","H","5","c","v",FALSE,0
"CVOE updated",2009,1,1,73,"I 50","","",TRUE,"CV","p",1844,"cv","I","0","v","v",TRUE,1
"CVOE updated",2009,1,1,74,"E 99","","",FALSE,"CV","p",4705,"cv","E","9","v","v",TRUE,1
"CVOE updated",2009,1,1,75,"A 86","","",TRUE,"CV","p",1130,"cv","A","6","v","v",TRUE,1
"CVOE updated",2009,1,1,76,"U 48","","",TRUE,"CV","p",1251,"cv","U","8","v","v",TRUE,1
"CVOE updated",2009,1,1,77,"E 01","","",FALSE,"CV","p",1079,"cv","E","1","v","v",TRUE,1
"CVOE updated",2009,1,1,78,"A 78","","",TRUE,"CV","p",1146,"cv","A","8","v","v",TRUE,1
"CVOE updated",2009,1,1,79,"P 60","","",FALSE,"CV","q",1904,"cv","P","0","c","c",TRUE,1
"CVOE updated",2009,1,1,80,"E 43","","",FALSE,"CV","p",1279,"cv","E","3","v","v",TRUE,1
"CVOE updated",2009,1,1,81,"D 69","","",TRUE,"CV","q",2209,"cv","D","9","c","c",TRUE,1
"CVOE updated",2009,1,1,82,"H 11","","",TRUE,"CV","q",2559,"cv","H","1","c","c",TRUE,1
"CVOE updated",2009,1,1,83,"P 43","","",TRUE,"CV","q",1231,"cv","P","3","c","c",TRUE,1
"CVOE updated",2009,1,1,84,"O 67","","",FALSE,"CV","p",1379,"cv","O","7","v","v",TRUE,1
"CVOE updated",2009,1,1,85,"S 91","","",FALSE,"CV","q",1360,"cv","S","1","c","c",TRUE,1
"CVOE updated",2009,1,1,86,"J 68","","",TRUE,"CV","q",1170,"cv","J","8","c","c",TRUE,1
"CVOE updated",2009,1,1,87,"S 47","","",FALSE,"CV","q",559,"cv","S","7","c","c",TRUE,1
"CVOE updated",2009,1,1,88,"I 81","","",TRUE,"CV","p",828,"cv","I","1","v","v",TRUE,1
"CVOE updated",2009,1,1,89,"J 39","","",FALSE,"CV","q",1027,"cv","J","9","c","c",TRUE,1
"CVOE updated",2009,1,1,90,"A 11","","",TRUE,"CV","p",962,"cv","A","1","v","v",TRUE,1
"CVOE updated",2009,1,1,91,"O 76","","",FALSE,"CV","p",946,"cv","O","6","v","v",TRUE,1
"CVOE updated",2009,1,1,92,"A 62","","",FALSE,"CV","p",705,"cv","A","2","v","v",TRUE,1
"CVOE updated",2009,1,1,93,"O 27","","",TRUE,"CV","p",877,"cv","O","7","v","v",TRUE,1
"CVOE updated",2009,1,1,94,"E 66","","",FALSE,"CV","p",1030,"cv","E","6","v","v",TRUE,1
"CVOE updated",2009,1,1,95,"J 62","","",TRUE,"CV","q",1111,"cv","J","2","c","c",TRUE,1
"CVOE updated",2009,1,1,96,"H 72","","",TRUE,"CV","q",1183,"cv","H","2","c","c",TRUE,1
"CVOE updated",2009,1,1,97,"E 49","","",TRUE,"CV","p",985,"cv","E","9","v","v",TRUE,1
"CVOE updated",2009,1,1,98,"D 52","","",TRUE,"CV","q",1248,"cv","D","2","c","c",TRUE,1
"CVOE updated",2009,1,1,99,"H 62","","",TRUE,"CV","q",1315,"cv","H","2","c","c",TRUE,1
"CVOE updated",2009,1,1,100,"I 11","","",TRUE,"CV","p",831,"cv","I","1","v","v",TRUE,1
"CVOE updated",2009,1,1,101,"A 98","","",FALSE,"CV","p",954,"cv","A","8","v","v",TRUE,1
"CVOE updated",2009,1,1,102,"H 29","","",FALSE,"CV","q",1081,"cv","H","9","c","c",TRUE,1
"CVOE updated",2009,1,1,103,"E 83","","",TRUE,"CV","p",888,"cv","E","3","v","v",TRUE,1
"CVOE updated",2009,1,1,104,"D 43","","",FALSE,"CV","q",848,"cv","D","3","c","c",TRUE,1
"CVOE updated",2009,1,1,105,"P 45","","",TRUE,"CV","q",764,"cv","P","5","c","c",TRUE,1
"CVOE updated",2009,1,1,106,"J 17","","",TRUE,"CV","q",789,"cv","J","7","c","c",TRUE,1
"CVOE_B",1006,1,2,11,"A 71","","",FALSE,"CV","p",2229,"cv","A","1","v","v",TRUE,1
"CVOE_B",1006,1,2,12,"I 66","","",TRUE,"CV","p",710,"cv","I","6","v","v",TRUE,1
"CVOE_B",1006,1,2,13,"S 30","","",FALSE,"CV","q",682,"cv","S","0","c","c",TRUE,1
"CVOE_B",1006,1,2,14,"D 20","","",FALSE,"CV","q",1436,"cv","D","0","c","c",TRUE,1
"CVOE_B",1006,1,2,15,"I 31","","",FALSE,"CV","p",672,"cv","I","1","v","v",TRUE,1
"CVOE_B",1006,1,2,16,"P 16","","",FALSE,"CV","q",745,"cv","P","6","c","c",TRUE,1
"CVOE_B",1006,1,2,17,"A 49","","",FALSE,"CV","p",1061,"cv","A","9","v","v",TRUE,1
"CVOE_B",1006,1,2,18,"O 64","","",TRUE,"CV","p",693,"cv","O","4","v","v",TRUE,1
"CVOE_B",1006,1,2,19,"D 02","","",FALSE,"CV","q",761,"cv","D","2","c","c",TRUE,1
"CVOE_B",1006,1,2,20,"P 81","","",TRUE,"CV","q",2443,"cv","P","1","c","c",TRUE,1
"CVOE_B",1006,1,2,21,"J 58","","",FALSE,"CV","q",1440,"cv","J","8","c","c",TRUE,1
"CVOE_B",1006,1,2,22,"A 22","","",TRUE,"CV","p",666,"cv","A","2","v","v",TRUE,1
"CVOE_B",1006,1,2,23,"J 72","","",FALSE,"CV","q",606,"cv","J","2","c","c",TRUE,1
"CVOE_B",1006,1,2,24,"P 91","","",TRUE,"CV","q",563,"cv","P","1","c","c",TRUE,1
"CVOE_B",1006,1,2,25,"E 19","","",FALSE,"CV","p",605,"cv","E","9","v","v",TRUE,1
"CVOE_B",1006,1,2,26,"I 30","","",TRUE,"CV","p",1724,"cv","I","0","v","v",TRUE,1
"CVOE_B",1006,1,2,27,"D 91","","",TRUE,"CV","q",536,"cv","D","1","c","c",TRUE,1
"CVOE_B",1006,1,2,28,"O 48","","",TRUE,"CV","p",619,"cv","O","8","v","v",TRUE,1
"CVOE_B",1006,1,2,29,"A 89","","",FALSE,"CV","p",887,"cv","A","9","v","v",TRUE,1
"CVOE_B",1006,1,2,30,"U 11","","",FALSE,"CV","p",800,"cv","U","1","v","v",TRUE,1
"CVOE_B",1006,1,2,31,"I 76","","",TRUE,"CV","p",1328,"cv","I","6","v","v",TRUE,1
"CVOE_B",1006,1,2,32,"U 89","","",FALSE,"CV","p",897,"cv","U","9","v","v",TRUE,1
"CVOE_B",1006,1,2,33,"D 63","","",TRUE,"CV","q",542,"cv","D","3","c","c",TRUE,1
"CVOE_B",1006,1,2,34,"H 70","","",FALSE,"CV","q",566,"cv","H","0","c","c",TRUE,1
"CVOE_B",1006,1,2,35,"D 48","","",FALSE,"CV","q",634,"cv","D","8","c","c",TRUE,1
"CVOE_B",1006,1,2,36,"P 56","","",FALSE,"CV","q",740,"cv","P","6","c","c",TRUE,1
"CVOE_B",1006,1,2,37,"O 77","","",FALSE,"CV","p",604,"cv","O","7","v","v",TRUE,1
"CVOE_B",1006,1,2,38,"P 42","","",FALSE,"CV","q",646,"cv","P","2","c","c",TRUE,1
"CVOE_B",1006,1,2,39,"H 22","","",FALSE,"CV","q",625,"cv","H","2","c","c",TRUE,1
"CVOE_B",1006,1,2,40,"E 42","","",TRUE,"CV","p",623,"cv","E","2","v","v",TRUE,1
"CVOE_B",1006,1,2,41,"J 28","","",FALSE,"CV","q",571,"cv","J","8","c","c",TRUE,1
"CVOE_B",1006,1,2,42,"E 95","","",FALSE,"CV","p",557,"cv","E","5","v","v",TRUE,1
"CVOE_B",1006,1,2,43,"S 63","","",TRUE,"CV","q",683,"cv","S","3","c","c",TRUE,1
"CVOE_B",1006,1,2,44,"H 50","","",FALSE,"CV","q",641,"cv","H","0","c","c",TRUE,1
"CVOE_B",1006,1,2,45,"S 33","","",TRUE,"CV","q",719,"cv","S","3","c","c",TRUE,1
"CVOE_B",1006,1,2,46,"P 57","","",TRUE,"CV","q",581,"cv","P","7","c","c",TRUE,1
"CVOE_B",1006,1,2,47,"E 23","","",FALSE,"CV","p",638,"cv","E","3","v","v",TRUE,1
"CVOE_B",1006,1,2,48,"S 61","","",TRUE,"CV","q",1662,"cv","S","1","c","c",TRUE,1
"CVOE_B",1006,1,2,49,"U 67","","",FALSE,"CV","p",689,"cv","U","7","v","v",TRUE,1
"CVOE_B",1006,1,2,50,"H 32","","",FALSE,"CV","q",1637,"cv","H","2","c","c",TRUE,1
"CVOE_B",1006,1,2,51,"U 50","","",TRUE,"CV","p",616,"cv","U","0","v","v",TRUE,1
"CVOE_B",1006,1,2,52,"O 49","","",FALSE,"CV","p",623,"cv","O","9","v","v",TRUE,1
"CVOE_B",1006,1,2,53,"U 32","","",TRUE,"CV","p",608,"cv","U","2","v","v",TRUE,1
"CVOE_B",1006,1,2,54,"J 78","","",FALSE,"CV","q",605,"cv","J","8","c","c",TRUE,1
"CVOE_B",1006,1,2,55,"S 54","","",FALSE,"CV","q",1530,"cv","S","4","c","c",TRUE,1
"CVOE_B",1006,1,2,56,"J 27","","",TRUE,"CV","q",653,"cv","J","7","c","c",TRUE,1
"CVOE_B",1006,1,2,57,"S 06","","",FALSE,"CV","q",557,"cv","S","6","c","c",TRUE,1
"CVOE_B",1006,1,2,58,"D 67","","",TRUE,"CV","q",592,"cv","D","7","c","c",TRUE,1
"CVOE_B",1006,1,2,59,"A 79","","",FALSE,"CV","p",428,"cv","A","9","v","v",TRUE,1
"CVOE_B",1006,1,2,60,"S 52","","",FALSE,"CV","q",555,"cv","S","2","c","c",TRUE,1
"CVOE_B",1006,1,2,61,"U 16","","",TRUE,"CV","p",594,"cv","U","6","v","v",TRUE,1
"CVOE_B",1006,1,2,62,"O 82","","",TRUE,"CV","p",789,"cv","O","2","v","v",TRUE,1
"CVOE_B",1006,1,2,63,"H 87","","",TRUE,"CV","q",504,"cv","H","7","c","c",TRUE,1
"CVOE_B",1006,1,2,64,"I 32","","",TRUE,"CV","p",562,"cv","I","2","v","v",TRUE,1
"CVOE_B",1006,1,2,65,"U 37","","",FALSE,"CV","p",1075,"cv","U","7","v","v",TRUE,1
"CVOE_B",1006,1,2,66,"I 42","","",TRUE,"CV","p",614,"cv","I","2","v","v",TRUE,1
"CVOE_B",1006,1,2,67,"D 65","","",TRUE,"CV","q",626,"cv","D","5","c","c",TRUE,1
"CVOE_B",1006,1,2,68,"U 77","","",FALSE,"CV","p",702,"cv","U","7","v","v",TRUE,1
"CVOE_B",1006,1,2,69,"E 12","","",TRUE,"CV","p",624,"cv","E","2","v","v",TRUE,1
"CVOE_B",1006,1,2,70,"I 60","","",TRUE,"CV","p",552,"cv","I","0","v","v",TRUE,1
"CVOE_B",1006,1,2,71,"J 36","","",FALSE,"CV","q",643,"cv","J","6","c","c",TRUE,1
"CVOE_B",1006,1,2,72,"H 75","","",TRUE,"CV","q",864,"cv","H","5","c","c",TRUE,1
"CVOE_B",1006,1,2,73,"I 50","","",TRUE,"CV","p",555,"cv","I","0","v","v",TRUE,1
"CVOE_B",1006,1,2,74,"E 99","","",FALSE,"CV","p",707,"cv","E","9","v","v",TRUE,1
"CVOE_B",1006,1,2,75,"A 86","","",TRUE,"CV","p",460,"cv","A","6","v","v",TRUE,1
"CVOE_B",1006,1,2,76,"U 48","","",TRUE,"CV","p",541,"cv","U","8","v","v",TRUE,1
"CVOE_B",1006,1,2,77,"E 01","","",FALSE,"CV","p",573,"cv","E","1","v","v",TRUE,1
"CVOE_B",1006,1,2,78,"A 78","","",TRUE,"CV","p",546,"cv","A","8","v","v",TRUE,1
"CVOE_B",1006,1,2,79,"P 60","","",FALSE,"CV","q",582,"cv","P","0","c","c",TRUE,1
"CVOE_B",1006,1,2,80,"E 43","","",FALSE,"CV","p",916,"cv","E","3","v","v",TRUE,1
"CVOE_B",1006,1,2,81,"D 69","","",TRUE,"CV","q",557,"cv","D","9","c","c",TRUE,1
"CVOE_B",1006,1,2,82,"H 11","","",TRUE,"CV","q",877,"cv","H","1","c","c",TRUE,1
"CVOE_B",1006,1,2,83,"P 43","","",TRUE,"CV","q",547,"cv","P","3","c","c",TRUE,1
"CVOE_B",1006,1,2,84,"O 67","","",FALSE,"CV","p",545,"cv","O","7","v","v",TRUE,1
"CVOE_B",1006,1,2,85,"S 91","","",FALSE,"CV","q",875,"cv","S","1","c","c",TRUE,1
"CVOE_B",1006,1,2,86,"J 68","","",TRUE,"CV","q",737,"cv","J","8","c","c",TRUE,1
"CVOE_B",1006,1,2,87,"S 47","","",FALSE,"CV","q",491,"cv","S","7","c","c",TRUE,1
"CVOE_B",1006,1,2,88,"I 81","","",TRUE,"CV","p",528,"cv","I","1","v","v",TRUE,1
"CVOE_B",1006,1,2,89,"J 39","","",FALSE,"CV","q",1999,"cv","J","9","c","c",TRUE,1
"CVOE_B",1006,1,2,90,"A 11","","",TRUE,"CV","p",670,"cv","A","1","v","v",TRUE,1
"CVOE_B",1006,1,2,91,"O 76","","",FALSE,"CV","p",449,"cv","O","6","v","v",TRUE,1
"CVOE_B",1006,1,2,92,"A 62","","",FALSE,"CV","p",529,"cv","A","2","v","v",TRUE,1
"CVOE_B",1006,1,2,93,"O 27","","",TRUE,"CV","p",473,"cv","O","7","v","v",TRUE,1
"CVOE_B",1006,1,2,94,"E 66","","",FALSE,"CV","p",526,"cv","E","6","v","v",TRUE,1
"CVOE_B",1006,1,2,95,"J 62","","",TRUE,"CV","q",532,"cv","J","2","c","c",TRUE,1
"CVOE_B",1006,1,2,96,"H 72","","",TRUE,"CV","q",521,"cv","H","2","c","c",TRUE,1
"CVOE_B",1006,1,2,97,"E 49","","",TRUE,"CV","p",560,"cv","E","9","v","v",TRUE,1
"CVOE_B",1006,1,2,98,"D 52","","",TRUE,"CV","q",841,"cv","D","2","c","c",TRUE,1
"CVOE_B",1006,1,2,99,"H 62","","",TRUE,"CV","q",572,"cv","H","2","c","c",TRUE,1
"CVOE_B",1006,1,2,100,"I 11","","",TRUE,"CV","p",592,"cv","I","1","v","v",TRUE,1
"CVOE_B",1006,1,2,101,"A 98","","",FALSE,"CV","p",477,"cv","A","8","v","v",TRUE,1
"CVOE_B",1006,1,2,102,"H 29","","",FALSE,"CV","q",1082,"cv","H","9","c","c",TRUE,1
"CVOE_B",1006,1,2,103,"E 83","","",TRUE,"CV","p",672,"cv","E","3","v","v",TRUE,1
"CVOE_B",1006,1,2,104,"D 43","","",FALSE,"CV","q",904,"cv","D","3","c","c",TRUE,1
"CVOE_B",1006,1,2,105,"P 45","","",TRUE,"CV","q",640,"cv","P","5","c","c",TRUE,1
"CVOE_B",1006,1,2,106,"J 17","","",TRUE,"CV","q",567,"cv","J","7","c","c",TRUE,1
"CVOE_B",1010,1,2,11,"A 71","","",FALSE,"CV","p",13441,"cv","A","1","v","v",TRUE,1
"CVOE_B",1010,1,2,12,"I 66","","",TRUE,"CV","p",2345,"cv","I","6","v","v",TRUE,1
"CVOE_B",1010,1,2,13,"S 30","","",FALSE,"CV","q",1734,"cv","S","0","c","c",TRUE,1
"CVOE_B",1010,1,2,14,"D 20","","",FALSE,"CV","q",2100,"cv","D","0","c","c",TRUE,1
"CVOE_B",1010,1,2,15,"I 31","","",FALSE,"CV","q",1525,"cv","I","1","v","c",FALSE,0
"CVOE_B",1010,1,2,16,"P 16","","",FALSE,"CV","q",2655,"cv","P","6","c","c",TRUE,1
"CVOE_B",1010,1,2,17,"A 49","","",FALSE,"CV","p",1261,"cv","A","9","v","v",TRUE,1
"CVOE_B",1010,1,2,18,"O 64","","",TRUE,"CV","p",3823,"cv","O","4","v","v",TRUE,1
"CVOE_B",1010,1,2,19,"D 02","","",FALSE,"CV","q",2386,"cv","D","2","c","c",TRUE,1
"CVOE_B",1010,1,2,20,"P 81","","",TRUE,"CV","q",2728,"cv","P","1","c","c",TRUE,1
"CVOE_B",1010,1,2,21,"J 58","","",FALSE,"CV","q",2067,"cv","J","8","c","c",TRUE,1
"CVOE_B",1010,1,2,22,"A 22","","",TRUE,"CV","p",2113,"cv","A","2","v","v",TRUE,1
"CVOE_B",1010,1,2,23,"J 72","","",FALSE,"CV","q",4983,"cv","J","2","c","c",TRUE,1
"CVOE_B",1010,1,2,24,"P 91","","",TRUE,"CV","q",4028,"cv","P","1","c","c",TRUE,1
"CVOE_B",1010,1,2,25,"E 19","","",FALSE,"CV","p",1636,"cv","E","9","v","v",TRUE,1
"CVOE_B",1010,1,2,26,"I 30","","",TRUE,"CV","p",1653,"cv","I","0","v","v",TRUE,1
"CVOE_B",1010,1,2,27,"D 91","","",TRUE,"CV","q",1532,"cv","D","1","c","c",TRUE,1
"CVOE_B",1010,1,2,28,"O 48","","",TRUE,"CV","p",1424,"cv","O","8","v","v",TRUE,1
"CVOE_B",1010,1,2,29,"A 89","","",FALSE,"CV","p",962,"cv","A","9","v","v",TRUE,1
"CVOE_B",1010,1,2,30,"U 11","","",FALSE,"CV","p",978,"cv","U","1","v","v",TRUE,1
"CVOE_B",1010,1,2,31,"I 76","","",TRUE,"CV","p",2328,"cv","I","6","v","v",TRUE,1
"CVOE_B",1010,1,2,32,"U 89","","",FALSE,"CV","p",1311,"cv","U","9","v","v",TRUE,1
"CVOE_B",1010,1,2,33,"D 63","","",TRUE,"CV","q",5272,"cv","D","3","c","c",TRUE,1
"CVOE_B",1010,1,2,34,"H 70","","",FALSE,"CV","q",1872,"cv","H","0","c","c",TRUE,1
"CVOE_B",1010,1,2,35,"D 48","","",FALSE,"CV","q",1847,"cv","D","8","c","c",TRUE,1
"CVOE_B",1010,1,2,36,"P 56","","",FALSE,"CV","q",1442,"cv","P","6","c","c",TRUE,1
"CVOE_B",1010,1,2,37,"O 77","","",FALSE,"CV","p",1866,"cv","O","7","v","v",TRUE,1
"CVOE_B",1010,1,2,38,"P 42","","",FALSE,"CV","q",1646,"cv","P","2","c","c",TRUE,1
"CVOE_B",1010,1,2,39,"H 22","","",FALSE,"CV","q",1233,"cv","H","2","c","c",TRUE,1
"CVOE_B",1010,1,2,40,"E 42","","",TRUE,"CV","p",1279,"cv","E","2","v","v",TRUE,1
"CVOE_B",1010,1,2,41,"J 28","","",FALSE,"CV","q",1484,"cv","J","8","c","c",TRUE,1
"CVOE_B",1010,1,2,42,"E 95","","",FALSE,"CV","p",1762,"cv","E","5","v","v",TRUE,1
"CVOE_B",1010,1,2,43,"S 63","","",TRUE,"CV","q",2427,"cv","S","3","c","c",TRUE,1
"CVOE_B",1010,1,2,44,"H 50","","",FALSE,"CV","q",2038,"cv","H","0","c","c",TRUE,1
"CVOE_B",1010,1,2,45,"S 33","","",TRUE,"CV","q",1591,"cv","S","3","c","c",TRUE,1
"CVOE_B",1010,1,2,46,"P 57","","",TRUE,"CV","q",1450,"cv","P","7","c","c",TRUE,1
"CVOE_B",1010,1,2,47,"E 23","","",FALSE,"CV","p",742,"cv","E","3","v","v",TRUE,1
"CVOE_B",1010,1,2,48,"S 61","","",TRUE,"CV","q",1034,"cv","S","1","c","c",TRUE,1
"CVOE_B",1010,1,2,49,"U 67","","",FALSE,"CV","p",1006,"cv","U","7","v","v",TRUE,1
"CVOE_B",1010,1,2,50,"H 32","","",FALSE,"CV","q",1312,"cv","H","2","c","c",TRUE,1
"CVOE_B",1010,1,2,51,"U 50","","",TRUE,"CV","p",1685,"cv","U","0","v","v",TRUE,1
"CVOE_B",1010,1,2,52,"O 49","","",FALSE,"CV","p",2763,"cv","O","9","v","v",TRUE,1
"CVOE_B",1010,1,2,53,"U 32","","",TRUE,"CV","p",2352,"cv","U","2","v","v",TRUE,1
"CVOE_B",1010,1,2,54,"J 78","","",FALSE,"CV","q",1883,"cv","J","8","c","c",TRUE,1
"CVOE_B",1010,1,2,55,"S 54","","",FALSE,"CV","q",2015,"cv","S","4","c","c",TRUE,1
"CVOE_B",1010,1,2,56,"J 27","","",TRUE,"CV","q",1936,"cv","J","7","c","c",TRUE,1
"CVOE_B",1010,1,2,57,"S 06","","",FALSE,"CV","q",1687,"cv","S","6","c","c",TRUE,1
"CVOE_B",1010,1,2,58,"D 67","","",TRUE,"CV","q",1484,"cv","D","7","c","c",TRUE,1
"CVOE_B",1010,1,2,59,"A 79","","",FALSE,"CV","p",537,"cv","A","9","v","v",TRUE,1
"CVOE_B",1010,1,2,60,"S 52","","",FALSE,"CV","q",944,"cv","S","2","c","c",TRUE,1
"CVOE_B",1010,1,2,61,"U 16","","",TRUE,"CV","p",6273,"cv","U","6","v","v",TRUE,1
"CVOE_B",1010,1,2,62,"O 82","","",TRUE,"CV","p",1417,"cv","O","2","v","v",TRUE,1
"CVOE_B",1010,1,2,63,"H 87","","",TRUE,"CV","q",2325,"cv","H","7","c","c",TRUE,1
"CVOE_B",1010,1,2,64,"I 32","","",TRUE,"CV","p",1020,"cv","I","2","v","v",TRUE,1
"CVOE_B",1010,1,2,65,"U 37","","",FALSE,"CV","p",911,"cv","U","7","v","v",TRUE,1
"CVOE_B",1010,1,2,66,"I 42","","",TRUE,"CV","p",1097,"cv","I","2","v","v",TRUE,1
"CVOE_B",1010,1,2,67,"D 65","","",TRUE,"CV","q",1263,"cv","D","5","c","c",TRUE,1
"CVOE_B",1010,1,2,68,"U 77","","",FALSE,"CV","p",1071,"cv","U","7","v","v",TRUE,1
"CVOE_B",1010,1,2,69,"E 12","","",TRUE,"CV","p",1493,"cv","E","2","v","v",TRUE,1
"CVOE_B",1010,1,2,70,"I 60","","",TRUE,"CV","p",1375,"cv","I","0","v","v",TRUE,1
"CVOE_B",1010,1,2,71,"J 36","","",FALSE,"CV","q",856,"cv","J","6","c","c",TRUE,1
"CVOE_B",1010,1,2,72,"H 75","","",TRUE,"CV","q",1192,"cv","H","5","c","c",TRUE,1
"CVOE_B",1010,1,2,73,"I 50","","",TRUE,"CV","p",2037,"cv","I","0","v","v",TRUE,1
"CVOE_B",1010,1,2,74,"E 99","","",FALSE,"CV","p",1392,"cv","E","9","v","v",TRUE,1
"CVOE_B",1010,1,2,75,"A 86","","",TRUE,"CV","p",996,"cv","A","6","v","v",TRUE,1
"CVOE_B",1010,1,2,76,"U 48","","",TRUE,"CV","p",710,"cv","U","8","v","v",TRUE,1
"CVOE_B",1010,1,2,77,"E 01","","",FALSE,"CV","p",1009,"cv","E","1","v","v",TRUE,1
"CVOE_B",1010,1,2,78,"A 78","","",TRUE,"CV","p",622,"cv","A","8","v","v",TRUE,1
"CVOE_B",1010,1,2,79,"P 60","","",FALSE,"CV","q",1532,"cv","P","0","c","c",TRUE,1
"CVOE_B",1010,1,2,80,"E 43","","",FALSE,"CV","p",1206,"cv","E","3","v","v",TRUE,1
"CVOE_B",1010,1,2,81,"D 69","","",TRUE,"CV","q",923,"cv","D","9","c","c",TRUE,1
"CVOE_B",1010,1,2,82,"H 11","","",TRUE,"CV","q",1727,"cv","H","1","c","c",TRUE,1
"CVOE_B",1010,1,2,83,"P 43","","",TRUE,"CV","q",869,"cv","P","3","c","c",TRUE,1
"CVOE_B",1010,1,2,84,"O 67","","",FALSE,"CV","p",705,"cv","O","7","v","v",TRUE,1
"CVOE_B",1010,1,2,85,"S 91","","",FALSE,"CV","q",794,"cv","S","1","c","c",TRUE,1
"CVOE_B",1010,1,2,86,"J 68","","",TRUE,"CV","q",852,"cv","J","8","c","c",TRUE,1
"CVOE_B",1010,1,2,87,"S 47","","",FALSE,"CV","q",2035,"cv","S","7","c","c",TRUE,1
"CVOE_B",1010,1,2,88,"I 81","","",TRUE,"CV","p",892,"cv","I","1","v","v",TRUE,1
"CVOE_B",1010,1,2,89,"J 39","","",FALSE,"CV","q",887,"cv","J","9","c","c",TRUE,1
"CVOE_B",1010,1,2,90,"A 11","","",TRUE,"CV","p",841,"cv","A","1","v","v",TRUE,1
"CVOE_B",1010,1,2,91,"O 76","","",FALSE,"CV","p",1202,"cv","O","6","v","v",TRUE,1
"CVOE_B",1010,1,2,92,"A 62","","",FALSE,"CV","p",644,"cv","A","2","v","v",TRUE,1
"CVOE_B",1010,1,2,93,"O 27","","",TRUE,"CV","p",807,"cv","O","7","v","v",TRUE,1
"CVOE_B",1010,1,2,94,"E 66","","",FALSE,"CV","p",946,"cv","E","6","v","v",TRUE,1
"CVOE_B",1010,1,2,95,"J 62","","",TRUE,"CV","q",866,"cv","J","2","c","c",TRUE,1
"CVOE_B",1010,1,2,96,"H 72","","",TRUE,"CV","q",3066,"cv","H","2","c","c",TRUE,1
"CVOE_B",1010,1,2,97,"E 49","","",TRUE,"CV","p",877,"cv","E","9","v","v",TRUE,1
"CVOE_B",1010,1,2,98,"D 52","","",TRUE,"CV","q",976,"cv","D","2","c","c",TRUE,1
"CVOE_B",1010,1,2,99,"H 62","","",TRUE,"CV","q",1788,"cv","H","2","c","c",TRUE,1
"CVOE_B",1010,1,2,100,"I 11","","",TRUE,"CV","p",786,"cv","I","1","v","v",TRUE,1
"CVOE_B",1010,1,2,101,"A 98","","",FALSE,"CV","p",844,"cv","A","8","v","v",TRUE,1
"CVOE_B",1010,1,2,102,"H 29","","",FALSE,"CV","q",873,"cv","H","9","c","c",TRUE,1
"CVOE_B",1010,1,2,103,"E 83","","",TRUE,"CV","p",879,"cv","E","3","v","v",TRUE,1
"CVOE_B",1010,1,2,104,"D 43","","",FALSE,"CV","q",2124,"cv","D","3","c","c",TRUE,1
"CVOE_B",1010,1,2,105,"P 45","","",TRUE,"CV","q",2672,"cv","P","5","c","c",TRUE,1
"CVOE_B",1010,1,2,106,"J 17","","",TRUE,"CV","q",740,"cv","J","7","c","c",TRUE,1
"CVOE_B",1014,1,2,11,"A 71","","",FALSE,"CV","p",6441,"cv","A","1","v","v",TRUE,1
"CVOE_B",1014,1,2,12,"I 66","","",TRUE,"CV","p",1758,"cv","I","6","v","v",TRUE,1
"CVOE_B",1014,1,2,13,"S 30","","",FALSE,"CV","q",1304,"cv","S","0","c","c",TRUE,1
"CVOE_B",1014,1,2,14,"D 20","","",FALSE,"CV","q",1589,"cv","D","0","c","c",TRUE,1
"CVOE_B",1014,1,2,15,"I 31","","",FALSE,"CV","p",1236,"cv","I","1","v","v",TRUE,1
"CVOE_B",1014,1,2,16,"P 16","","",FALSE,"CV","q",1802,"cv","P","6","c","c",TRUE,1
"CVOE_B",1014,1,2,17,"A 49","","",FALSE,"CV","p",784,"cv","A","9","v","v",TRUE,1
"CVOE_B",1014,1,2,18,"O 64","","",TRUE,"CV","p",1388,"cv","O","4","v","v",TRUE,1
"CVOE_B",1014,1,2,19,"D 02","","",FALSE,"CV","q",920,"cv","D","2","c","c",TRUE,1
"CVOE_B",1014,1,2,20,"P 81","","",TRUE,"CV","q",1494,"cv","P","1","c","c",TRUE,1
"CVOE_B",1014,1,2,21,"J 58","","",FALSE,"CV","q",1865,"cv","J","8","c","c",TRUE,1
"CVOE_B",1014,1,2,22,"A 22","","",TRUE,"CV","p",1246,"cv","A","2","v","v",TRUE,1
"CVOE_B",1014,1,2,23,"J 72","","",FALSE,"CV","q",1157,"cv","J","2","c","c",TRUE,1
"CVOE_B",1014,1,2,24,"P 91","","",TRUE,"CV","q",1122,"cv","P","1","c","c",TRUE,1
"CVOE_B",1014,1,2,25,"E 19","","",FALSE,"CV","p",2058,"cv","E","9","v","v",TRUE,1
"CVOE_B",1014,1,2,26,"I 30","","",TRUE,"CV","p",1031,"cv","I","0","v","v",TRUE,1
"CVOE_B",1014,1,2,27,"D 91","","",TRUE,"CV","q",805,"cv","D","1","c","c",TRUE,1
"CVOE_B",1014,1,2,28,"O 48","","",TRUE,"CV","p",882,"cv","O","8","v","v",TRUE,1
"CVOE_B",1014,1,2,29,"A 89","","",FALSE,"CV","p",3123,"cv","A","9","v","v",TRUE,1
"CVOE_B",1014,1,2,30,"U 11","","",FALSE,"CV","p",1049,"cv","U","1","v","v",TRUE,1
"CVOE_B",1014,1,2,31,"I 76","","",TRUE,"CV","p",806,"cv","I","6","v","v",TRUE,1
"CVOE_B",1014,1,2,32,"U 89","","",FALSE,"CV","p",1157,"cv","U","9","v","v",TRUE,1
"CVOE_B",1014,1,2,33,"D 63","","",TRUE,"CV","q",680,"cv","D","3","c","c",TRUE,1
"CVOE_B",1014,1,2,34,"H 70","","",FALSE,"CV","q",1146,"cv","H","0","c","c",TRUE,1
"CVOE_B",1014,1,2,35,"D 48","","",FALSE,"CV","q",689,"cv","D","8","c","c",TRUE,1
"CVOE_B",1014,1,2,36,"P 56","","",FALSE,"CV","q",1005,"cv","P","6","c","c",TRUE,1
"CVOE_B",1014,1,2,37,"O 77","","",FALSE,"CV","p",728,"cv","O","7","v","v",TRUE,1
"CVOE_B",1014,1,2,38,"P 42","","",FALSE,"CV","q",970,"cv","P","2","c","c",TRUE,1
"CVOE_B",1014,1,2,39,"H 22","","",FALSE,"CV","q",734,"cv","H","2","c","c",TRUE,1
"CVOE_B",1014,1,2,40,"E 42","","",TRUE,"CV","p",767,"cv","E","2","v","v",TRUE,1
"CVOE_B",1014,1,2,41,"J 28","","",FALSE,"CV","q",861,"cv","J","8","c","c",TRUE,1
"CVOE_B",1014,1,2,42,"E 95","","",FALSE,"CV","p",828,"cv","E","5","v","v",TRUE,1
"CVOE_B",1014,1,2,43,"S 63","","",TRUE,"CV","q",1118,"cv","S","3","c","c",TRUE,1
"CVOE_B",1014,1,2,44,"H 50","","",FALSE,"CV","q",910,"cv","H","0","c","c",TRUE,1
