"","ExperimentName","Subject","Group","Block","Trial","STIM","TASK","Switch","Congruent","CVOE","Response","RT","block_type","letter","number","key2","response2","match2","score2"
"1","CVOE updated",1001,1,1,11,"A 71","","",FALSE,"CV","p",4811,"cv","A","1","v","v",TRUE,1
"2","CVOE updated",1001,1,1,12,"I 66","","",TRUE,"CV","p",1960,"cv","I","6","v","v",TRUE,1
"3","CVOE updated",1001,1,1,13,"S 30","","",FALSE,"CV","q",918,"cv","S","0","c","c",TRUE,1
"4","CVOE updated",1001,1,1,14,"D 20","","",FALSE,"CV","q",790,"cv","D","0","c","c",TRUE,1
"5","CVOE updated",1001,1,1,15,"I 31","","",FALSE,"CV","p",874,"cv","I","1","v","v",TRUE,1
"6","CVOE updated",1001,1,1,16,"P 16","","",FALSE,"CV","q",700,"cv","P","6","c","c",TRUE,1
"7","CVOE updated",1001,1,1,17,"A 49","","",FALSE,"CV","p",1100,"cv","A","9","v","v",TRUE,1
"8","CVOE updated",1001,1,1,18,"O 64","","",TRUE,"CV","p",1100,"cv","O","4","v","v",TRUE,1
"9","CVOE updated",1001,1,1,19,"D 02","","",FALSE,"CV","q",892,"cv","D","2","c","c",TRUE,1
"10","CVOE updated",1001,1,1,20,"P 81","","",TRUE,"CV","q",1116,"cv","P","1","c","c",TRUE,1
"11","CVOE updated",1001,1,1,21,"J 58","","",FALSE,"CV","q",828,"cv","J","8","c","c",TRUE,1
"12","CVOE updated",1001,1,1,22,"A 22","","",TRUE,"CV","p",679,"cv","A","2","v","v",TRUE,1
"13","CVOE updated",1001,1,1,23,"J 72","","",FALSE,"CV","q",999,"cv","J","2","c","c",TRUE,1
"14","CVOE updated",1001,1,1,24,"P 91","","",TRUE,"CV","q",1027,"cv","P","1","c","c",TRUE,1
"15","CVOE updated",1001,1,1,25,"E 19","","",FALSE,"CV","p",622,"cv","E","9","v","v",TRUE,1
"16","CVOE updated",1001,1,1,26,"I 30","","",TRUE,"CV","p",618,"cv","I","0","v","v",TRUE,1
"17","CVOE updated",1001,1,1,27,"D 91","","",TRUE,"CV","q",717,"cv","D","1","c","c",TRUE,1
"18","CVOE updated",1001,1,1,28,"O 48","","",TRUE,"CV","p",636,"cv","O","8","v","v",TRUE,1
"19","CVOE updated",1001,1,1,29,"A 89","","",FALSE,"CV","p",1127,"cv","A","9","v","v",TRUE,1
"20","CVOE updated",1001,1,1,30,"U 11","","",FALSE,"CV","p",886,"cv","U","1","v","v",TRUE,1
"21","CVOE updated",1001,1,1,31,"I 76","","",TRUE,"CV","p",726,"cv","I","6","v","v",TRUE,1
"22","CVOE updated",1001,1,1,32,"U 89","","",FALSE,"CV","p",669,"cv","U","9","v","v",TRUE,1
"23","CVOE updated",1001,1,1,33,"D 63","","",TRUE,"CV","q",758,"cv","D","3","c","c",TRUE,1
"24","CVOE updated",1001,1,1,34,"H 70","","",FALSE,"CV","q",1052,"cv","H","0","c","c",TRUE,1
"25","CVOE updated",1001,1,1,35,"D 48","","",FALSE,"CV","q",591,"cv","D","8","c","c",TRUE,1
"26","CVOE updated",1001,1,1,36,"P 56","","",FALSE,"CV","q",635,"cv","P","6","c","c",TRUE,1
"27","CVOE updated",1001,1,1,37,"O 77","","",FALSE,"CV","p",645,"cv","O","7","v","v",TRUE,1
"28","CVOE updated",1001,1,1,38,"P 42","","",FALSE,"CV","q",776,"cv","P","2","c","c",TRUE,1
"29","CVOE updated",1001,1,1,39,"H 22","","",FALSE,"CV","q",668,"cv","H","2","c","c",TRUE,1
"30","CVOE updated",1001,1,1,40,"E 42","","",TRUE,"CV","p",574,"cv","E","2","v","v",TRUE,1
"31","CVOE updated",1001,1,1,41,"J 28","","",FALSE,"CV","q",690,"cv","J","8","c","c",TRUE,1
"32","CVOE updated",1001,1,1,42,"E 95","","",FALSE,"CV","p",787,"cv","E","5","v","v",TRUE,1
"33","CVOE updated",1001,1,1,43,"S 63","","",TRUE,"CV","q",1031,"cv","S","3","c","c",TRUE,1
"34","CVOE updated",1001,1,1,44,"H 50","","",FALSE,"CV","q",602,"cv","H","0","c","c",TRUE,1
"35","CVOE updated",1001,1,1,45,"S 33","","",TRUE,"CV","q",646,"cv","S","3","c","c",TRUE,1
"36","CVOE updated",1001,1,1,46,"P 57","","",TRUE,"CV","q",632,"cv","P","7","c","c",TRUE,1
"37","CVOE updated",1001,1,1,47,"E 23","","",FALSE,"CV","p",699,"cv","E","3","v","v",TRUE,1
"38","CVOE updated",1001,1,1,48,"S 61","","",TRUE,"CV","q",763,"cv","S","1","c","c",TRUE,1
"39","CVOE updated",1001,1,1,49,"U 67","","",FALSE,"CV","p",560,"cv","U","7","v","v",TRUE,1
"40","CVOE updated",1001,1,1,50,"H 32","","",FALSE,"CV","q",685,"cv","H","2","c","c",TRUE,1
"41","CVOE updated",1001,1,1,51,"U 50","","",TRUE,"CV","p",502,"cv","U","0","v","v",TRUE,1
"42","CVOE updated",1001,1,1,52,"O 49","","",FALSE,"CV","p",630,"cv","O","9","v","v",TRUE,1
"43","CVOE updated",1001,1,1,53,"U 32","","",TRUE,"CV","p",609,"cv","U","2","v","v",TRUE,1
"44","CVOE updated",1001,1,1,54,"J 78","","",FALSE,"CV","q",716,"cv","J","8","c","c",TRUE,1
"45","CVOE updated",1001,1,1,55,"S 54","","",FALSE,"CV","q",635,"cv","S","4","c","c",TRUE,1
"46","CVOE updated",1001,1,1,56,"J 27","","",TRUE,"CV","q",566,"cv","J","7","c","c",TRUE,1
"47","CVOE updated",1001,1,1,57,"S 06","","",FALSE,"CV","q",635,"cv","S","6","c","c",TRUE,1
"48","CVOE updated",1001,1,1,58,"D 67","","",TRUE,"CV","q",766,"cv","D","7","c","c",TRUE,1
"49","CVOE updated",1001,1,1,59,"A 79","","",FALSE,"CV","p",771,"cv","A","9","v","v",TRUE,1
"50","CVOE updated",1001,1,1,60,"S 52","","",FALSE,"CV","q",768,"cv","S","2","c","c",TRUE,1
"51","CVOE updated",1001,1,1,61,"U 16","","",TRUE,"CV","p",702,"cv","U","6","v","v",TRUE,1
"52","CVOE updated",1001,1,1,62,"O 82","","",TRUE,"CV","p",590,"cv","O","2","v","v",TRUE,1
"53","CVOE updated",1001,1,1,63,"H 87","","",TRUE,"CV","q",722,"cv","H","7","c","c",TRUE,1
"54","CVOE updated",1001,1,1,64,"I 32","","",TRUE,"CV","p",1330,"cv","I","2","v","v",TRUE,1
"55","CVOE updated",1001,1,1,65,"U 37","","",FALSE,"CV","p",833,"cv","U","7","v","v",TRUE,1
"56","CVOE updated",1001,1,1,66,"I 42","","",TRUE,"CV","p",620,"cv","I","2","v","v",TRUE,1
"57","CVOE updated",1001,1,1,67,"D 65","","",TRUE,"CV","q",679,"cv","D","5","c","c",TRUE,1
"58","CVOE updated",1001,1,1,68,"U 77","","",FALSE,"CV","p",743,"cv","U","7","v","v",TRUE,1
"59","CVOE updated",1001,1,1,69,"E 12","","",TRUE,"CV","p",1326,"cv","E","2","v","v",TRUE,1
"60","CVOE updated",1001,1,1,70,"I 60","","",TRUE,"CV","p",565,"cv","I","0","v","v",TRUE,1
"61","CVOE updated",1001,1,1,71,"J 36","","",FALSE,"CV","q",698,"cv","J","6","c","c",TRUE,1
"62","CVOE updated",1001,1,1,72,"H 75","","",TRUE,"CV","q",778,"cv","H","5","c","c",TRUE,1
"63","CVOE updated",1001,1,1,73,"I 50","","",TRUE,"CV","p",742,"cv","I","0","v","v",TRUE,1
"64","CVOE updated",1001,1,1,74,"E 99","","",FALSE,"CV","p",725,"cv","E","9","v","v",TRUE,1
"65","CVOE updated",1001,1,1,75,"A 86","","",TRUE,"CV","p",1019,"cv","A","6","v","v",TRUE,1
"66","CVOE updated",1001,1,1,76,"U 48","","",TRUE,"CV","p",631,"cv","U","8","v","v",TRUE,1
"67","CVOE updated",1001,1,1,77,"E 01","","",FALSE,"CV","p",649,"cv","E","1","v","v",TRUE,1
"68","CVOE updated",1001,1,1,78,"A 78","","",TRUE,"CV","p",699,"cv","A","8","v","v",TRUE,1
"69","CVOE updated",1001,1,1,79,"P 60","","",FALSE,"CV","q",803,"cv","P","0","c","c",TRUE,1
"70","CVOE updated",1001,1,1,80,"E 43","","",FALSE,"CV","p",975,"cv","E","3","v","v",TRUE,1
"71","CVOE updated",1001,1,1,81,"D 69","","",TRUE,"CV","q",924,"cv","D","9","c","c",TRUE,1
"72","CVOE updated",1001,1,1,82,"H 11","","",TRUE,"CV","q",612,"cv","H","1","c","c",TRUE,1
"73","CVOE updated",1001,1,1,83,"P 43","","",TRUE,"CV","q",543,"cv","P","3","c","c",TRUE,1
"74","CVOE updated",1001,1,1,84,"O 67","","",FALSE,"CV","p",613,"cv","O","7","v","v",TRUE,1
"75","CVOE updated",1001,1,1,85,"S 91","","",FALSE,"CV","q",728,"cv","S","1","c","c",TRUE,1
"76","CVOE updated",1001,1,1,86,"J 68","","",TRUE,"CV","q",671,"cv","J","8","c","c",TRUE,1
"77","CVOE updated",1001,1,1,87,"S 47","","",FALSE,"CV","q",624,"cv","S","7","c","c",TRUE,1
"78","CVOE updated",1001,1,1,88,"I 81","","",TRUE,"CV","p",659,"cv","I","1","v","v",TRUE,1
"79","CVOE updated",1001,1,1,89,"J 39","","",FALSE,"CV","q",805,"cv","J","9","c","c",TRUE,1
"80","CVOE updated",1001,1,1,90,"A 11","","",TRUE,"CV","p",793,"cv","A","1","v","v",TRUE,1
"81","CVOE updated",1001,1,1,91,"O 76","","",FALSE,"CV","p",541,"cv","O","6","v","v",TRUE,1
"82","CVOE updated",1001,1,1,92,"A 62","","",FALSE,"CV","p",547,"cv","A","2","v","v",TRUE,1
"83","CVOE updated",1001,1,1,93,"O 27","","",TRUE,"CV","p",545,"cv","O","7","v","v",TRUE,1
"84","CVOE updated",1001,1,1,94,"E 66","","",FALSE,"CV","p",607,"cv","E","6","v","v",TRUE,1
"85","CVOE updated",1001,1,1,95,"J 62","","",TRUE,"CV","q",531,"cv","J","2","c","c",TRUE,1
"86","CVOE updated",1001,1,1,96,"H 72","","",TRUE,"CV","q",546,"cv","H","2","c","c",TRUE,1
"87","CVOE updated",1001,1,1,97,"E 49","","",TRUE,"CV","p",680,"cv","E","9","v","v",TRUE,1
"88","CVOE updated",1001,1,1,98,"D 52","","",TRUE,"CV","q",800,"cv","D","2","c","c",TRUE,1
"89","CVOE updated",1001,1,1,99,"H 62","","",TRUE,"CV","q",516,"cv","H","2","c","c",TRUE,1
"90","CVOE updated",1001,1,1,100,"I 11","","",TRUE,"CV","p",660,"cv","I","1","v","v",TRUE,1
"91","CVOE updated",1001,1,1,101,"A 98","","",FALSE,"CV","p",1221,"cv","A","8","v","v",TRUE,1
"92","CVOE updated",1001,1,1,102,"H 29","","",FALSE,"CV","q",776,"cv","H","9","c","c",TRUE,1
"93","CVOE updated",1001,1,1,103,"E 83","","",TRUE,"CV","p",773,"cv","E","3","v","v",TRUE,1
"94","CVOE updated",1001,1,1,104,"D 43","","",FALSE,"CV","q",627,"cv","D","3","c","c",TRUE,1
"95","CVOE updated",1001,1,1,105,"P 45","","",TRUE,"CV","q",1253,"cv","P","5","c","c",TRUE,1
"96","CVOE updated",1001,1,1,106,"J 17","","",TRUE,"CV","q",1015,"cv","J","7","c","c",TRUE,1
"529","CVOE_C",2003,1,2,11,"A 71","","",FALSE,"CV","p",30570,"cv","A","1","v","v",TRUE,1
"530","CVOE_C",2003,1,2,12,"I 66","","",TRUE,"CV","p",13367,"cv","I","6","v","v",TRUE,1
"531","CVOE_C",2003,1,2,13,"S 30","","",FALSE,"CV","q",8787,"cv","S","0","c","c",TRUE,1
"532","CVOE_C",2003,1,2,14,"D 20","","",FALSE,"CV","q",6059,"cv","D","0","c","c",TRUE,1
"533","CVOE_C",2003,1,2,15,"I 31","","",FALSE,"CV","p",7456,"cv","I","1","v","v",TRUE,1
"534","CVOE_C",2003,1,2,16,"P 16","","",FALSE,"CV","q",3365,"cv","P","6","c","c",TRUE,1
"535","CVOE_C",2003,1,2,17,"A 49","","",FALSE,"CV","p",4379,"cv","A","9","v","v",TRUE,1
"536","CVOE_C",2003,1,2,18,"O 64","","",TRUE,"CV","p",17482,"cv","O","4","v","v",TRUE,1
"537","CVOE_C",2003,1,2,19,"D 02","","",FALSE,"CV","q",4660,"cv","D","2","c","c",TRUE,1
"538","CVOE_C",2003,1,2,20,"P 81","","",TRUE,"CV","q",7495,"cv","P","1","c","c",TRUE,1
"539","CVOE_C",2003,1,2,21,"J 58","","",FALSE,"CV","q",1930,"cv","J","8","c","c",TRUE,1
"540","CVOE_C",2003,1,2,22,"A 22","","",TRUE,"CV","p",1737,"cv","A","2","v","v",TRUE,1
"541","CVOE_C",2003,1,2,23,"J 72","","",FALSE,"CV","q",1793,"cv","J","2","c","c",TRUE,1
"542","CVOE_C",2003,1,2,24,"P 91","","",TRUE,"CV","q",1853,"cv","P","1","c","c",TRUE,1
"543","CVOE_C",2003,1,2,25,"E 19","","",FALSE,"CV","p",4512,"cv","E","9","v","v",TRUE,1
"544","CVOE_C",2003,1,2,26,"I 30","","",TRUE,"CV","p",9577,"cv","I","0","v","v",TRUE,1
"545","CVOE_C",2003,1,2,27,"D 91","","",TRUE,"CV","q",1259,"cv","D","1","c","c",TRUE,1
"546","CVOE_C",2003,1,2,28,"O 48","","",TRUE,"CV","p",3972,"cv","O","8","v","v",TRUE,1
"547","CVOE_C",2003,1,2,29,"A 89","","",FALSE,"CV","p",1315,"cv","A","9","v","v",TRUE,1
"548","CVOE_C",2003,1,2,30,"U 11","","",FALSE,"CV","p",2275,"cv","U","1","v","v",TRUE,1
"549","CVOE_C",2003,1,2,31,"I 76","","",TRUE,"CV","p",6389,"cv","I","6","v","v",TRUE,1
"550","CVOE_C",2003,1,2,32,"U 89","","",FALSE,"CV","q",2796,"cv","U","9","v","c",FALSE,0
"551","CVOE_C",2003,1,2,33,"D 63","","",TRUE,"CV","q",2449,"cv","D","3","c","c",TRUE,1
"552","CVOE_C",2003,1,2,34,"H 70","","",FALSE,"CV","q",1572,"cv","H","0","c","c",TRUE,1
"553","CVOE_C",2003,1,2,35,"D 48","","",FALSE,"CV","q",1426,"cv","D","8","c","c",TRUE,1
"554","CVOE_C",2003,1,2,36,"P 56","","",FALSE,"CV","q",2693,"cv","P","6","c","c",TRUE,1
"555","CVOE_C",2003,1,2,37,"O 77","","",FALSE,"CV","p",2982,"cv","O","7","v","v",TRUE,1
"556","CVOE_C",2003,1,2,38,"P 42","","",FALSE,"CV","q",1972,"cv","P","2","c","c",TRUE,1
"557","CVOE_C",2003,1,2,39,"H 22","","",FALSE,"CV","q",11442,"cv","H","2","c","c",TRUE,1
"558","CVOE_C",2003,1,2,40,"E 42","","",TRUE,"CV","p",2898,"cv","E","2","v","v",TRUE,1
"559","CVOE_C",2003,1,2,41,"J 28","","",FALSE,"CV","q",3203,"cv","J","8","c","c",TRUE,1
"560","CVOE_C",2003,1,2,42,"E 95","","",FALSE,"CV","p",4152,"cv","E","5","v","v",TRUE,1
"561","CVOE_C",2003,1,2,43,"S 63","","",TRUE,"CV","q",1904,"cv","S","3","c","c",TRUE,1
"562","CVOE_C",2003,1,2,44,"H 50","","",FALSE,"CV","q",1361,"cv","H","0","c","c",TRUE,1
"563","CVOE_C",2003,1,2,45,"S 33","","",TRUE,"CV","q",1086,"cv","S","3","c","c",TRUE,1
"564","CVOE_C",2003,1,2,46,"P 57","","",TRUE,"CV","q",1287,"cv","P","7","c","c",TRUE,1
"565","CVOE_C",2003,1,2,47,"E 23","","",FALSE,"CV","p",2384,"cv","E","3","v","v",TRUE,1
"566","CVOE_C",2003,1,2,48,"S 61","","",TRUE,"CV","q",2086,"cv","S","1","c","c",TRUE,1
"567","CVOE_C",2003,1,2,49,"U 67","","",FALSE,"CV","p",2423,"cv","U","7","v","v",TRUE,1
"568","CVOE_C",2003,1,2,50,"H 32","","",FALSE,"CV","q",2699,"cv","H","2","c","c",TRUE,1
"569","CVOE_C",2003,1,2,51,"U 50","","",TRUE,"CV","q",1813,"cv","U","0","v","c",FALSE,0
"570","CVOE_C",2003,1,2,52,"O 49","","",FALSE,"CV","p",5305,"cv","O","9","v","v",TRUE,1
"571","CVOE_C",2003,1,2,53,"U 32","","",TRUE,"CV","p",10707,"cv","U","2","v","v",TRUE,1
"572","CVOE_C",2003,1,2,54,"J 78","","",FALSE,"CV","q",1864,"cv","J","8","c","c",TRUE,1
"573","CVOE_C",2003,1,2,55,"S 54","","",FALSE,"CV","q",1978,"cv","S","4","c","c",TRUE,1
"574","CVOE_C",2003,1,2,56,"J 27","","",TRUE,"CV","q",1615,"cv","J","7","c","c",TRUE,1
"575","CVOE_C",2003,1,2,57,"S 06","","",FALSE,"CV","q",1483,"cv","S","6","c","c",TRUE,1
"576","CVOE_C",2003,1,2,58,"D 67","","",TRUE,"CV","q",1660,"cv","D","7","c","c",TRUE,1
"577","CVOE_C",2003,1,2,59,"A 79","","",FALSE,"CV","p",1798,"cv","A","9","v","v",TRUE,1
"578","CVOE_C",2003,1,2,60,"S 52","","",FALSE,"CV","q",1283,"cv","S","2","c","c",TRUE,1
"579","CVOE_C",2003,1,2,61,"U 16","","",TRUE,"CV","q",1883,"cv","U","6","v","c",FALSE,0
"580","CVOE_C",2003,1,2,62,"O 82","","",TRUE,"CV","p",2933,"cv","O","2","v","v",TRUE,1
"581","CVOE_C",2003,1,2,63,"H 87","","",TRUE,"CV","q",1741,"cv","H","7","c","c",TRUE,1
"582","CVOE_C",2003,1,2,64,"I 32","","",TRUE,"CV","p",7972,"cv","I","2","v","v",TRUE,1
"583","CVOE_C",2003,1,2,65,"U 37","","",FALSE,"CV","q",2141,"cv","U","7","v","c",FALSE,0
"584","CVOE_C",2003,1,2,66,"I 42","","",TRUE,"CV","p",2524,"cv","I","2","v","v",TRUE,1
"585","CVOE_C",2003,1,2,67,"D 65","","",TRUE,"CV","q",3244,"cv","D","5","c","c",TRUE,1
"586","CVOE_C",2003,1,2,68,"U 77","","",FALSE,"CV","p",2288,"cv","U","7","v","v",TRUE,1
"587","CVOE_C",2003,1,2,69,"E 12","","",TRUE,"CV","q",11065,"cv","E","2","v","c",FALSE,0
"588","CVOE_C",2003,1,2,70,"I 60","","",TRUE,"CV","p",7080,"cv","I","0","v","v",TRUE,1
"589","CVOE_C",2003,1,2,71,"J 36","","",FALSE,"CV","q",2132,"cv","J","6","c","c",TRUE,1
"590","CVOE_C",2003,1,2,72,"H 75","","",TRUE,"CV","q",1979,"cv","H","5","c","c",TRUE,1
"591","CVOE_C",2003,1,2,73,"I 50","","",TRUE,"CV","p",2232,"cv","I","0","v","v",TRUE,1
"592","CVOE_C",2003,1,2,74,"E 99","","",FALSE,"CV","p",6068,"cv","E","9","v","v",TRUE,1
"593","CVOE_C",2003,1,2,75,"A 86","","",TRUE,"CV","p",2272,"cv","A","6","v","v",TRUE,1
"594","CVOE_C",2003,1,2,76,"U 48","","",TRUE,"CV","p",3234,"cv","U","8","v","v",TRUE,1
"595","CVOE_C",2003,1,2,77,"E 01","","",FALSE,"CV","p",6230,"cv","E","1","v","v",TRUE,1
"596","CVOE_C",2003,1,2,78,"A 78","","",TRUE,"CV","p",2644,"cv","A","8","v","v",TRUE,1
"597","CVOE_C",2003,1,2,79,"P 60","","",FALSE,"CV","q",4191,"cv","P","0","c","c",TRUE,1
"598","CVOE_C",2003,1,2,80,"E 43","","",FALSE,"CV","p",4877,"cv","E","3","v","v",TRUE,1
"599","CVOE_C",2003,1,2,81,"D 69","","",TRUE,"CV","q",3680,"cv","D","9","c","c",TRUE,1
"600","CVOE_C",2003,1,2,82,"H 11","","",TRUE,"CV","q",1386,"cv","H","1","c","c",TRUE,1
"601","CVOE_C",2003,1,2,83,"P 43","","",TRUE,"CV","q",1351,"cv","P","3","c","c",TRUE,1
"602","CVOE_C",2003,1,2,84,"O 67","","",FALSE,"CV","p",3565,"cv","O","7","v","v",TRUE,1
"603","CVOE_C",2003,1,2,85,"S 91","","",FALSE,"CV","q",1756,"cv","S","1","c","c",TRUE,1
"604","CVOE_C",2003,1,2,86,"J 68","","",TRUE,"CV","q",1259,"cv","J","8","c","c",TRUE,1
"605","CVOE_C",2003,1,2,87,"S 47","","",FALSE,"CV","q",1452,"cv","S","7","c","c",TRUE,1
"606","CVOE_C",2003,1,2,88,"I 81","","",TRUE,"CV","p",2511,"cv","I","1","v","v",TRUE,1
"607","CVOE_C",2003,1,2,89,"J 39","","",FALSE,"CV","q",2263,"cv","J","9","c","c",TRUE,1
"608","CVOE_C",2003,1,2,90,"A 11","","",TRUE,"CV","p",3945,"cv","A","1","v","v",TRUE,1
"609","CVOE_C",2003,1,2,91,"O 76","","",FALSE,"CV","p",3041,"cv","O","6","v","v",TRUE,1
"610","CVOE_C",2003,1,2,92,"A 62","","",FALSE,"CV","p",4052,"cv","A","2","v","v",TRUE,1
"611","CVOE_C",2003,1,2,93,"O 27","","",TRUE,"CV","p",5488,"cv","O","7","v","v",TRUE,1
"612","CVOE_C",2003,1,2,94,"E 66","","",FALSE,"CV","p",4084,"cv","E","6","v","v",TRUE,1
"613","CVOE_C",2003,1,2,95,"J 62","","",TRUE,"CV","q",1814,"cv","J","2","c","c",TRUE,1
"614","CVOE_C",2003,1,2,96,"H 72","","",TRUE,"CV","q",1730,"cv","H","2","c","c",TRUE,1
"615","CVOE_C",2003,1,2,97,"E 49","","",TRUE,"CV","p",2281,"cv","E","9","v","v",TRUE,1
"616","CVOE_C",2003,1,2,98,"D 52","","",TRUE,"CV","q",1955,"cv","D","2","c","c",TRUE,1
"617","CVOE_C",2003,1,2,99,"H 62","","",TRUE,"CV","q",1697,"cv","H","2","c","c",TRUE,1
"618","CVOE_C",2003,1,2,100,"I 11","","",TRUE,"CV","p",2418,"cv","I","1","v","v",TRUE,1
"619","CVOE_C",2003,1,2,101,"A 98","","",FALSE,"CV","p",2798,"cv","A","8","v","v",TRUE,1
"620","CVOE_C",2003,1,2,102,"H 29","","",FALSE,"CV","q",4971,"cv","H","9","c","c",TRUE,1
"621","CVOE_C",2003,1,2,103,"E 83","","",TRUE,"CV","p",3643,"cv","E","3","v","v",TRUE,1
"622","CVOE_C",2003,1,2,104,"D 43","","",FALSE,"CV","q",2207,"cv","D","3","c","c",TRUE,1
"623","CVOE_C",2003,1,2,105,"P 45","","",TRUE,"CV","q",1323,"cv","P","5","c","c",TRUE,1
"624","CVOE_C",2003,1,2,106,"J 17","","",TRUE,"CV","q",1619,"cv","J","7","c","c",TRUE,1
"97","CVOE updated",1001,1,2,11,"A 24","","",TRUE,"OE","p",2238,"oe","A","4","e","e",TRUE,1
"98","CVOE updated",1001,1,2,12,"O 83","","",FALSE,"OE","q",818,"oe","O","3","o","o",TRUE,1
"99","CVOE updated",1001,1,2,13,"H 55","","",TRUE,"OE","q",701,"oe","H","5","o","o",TRUE,1
"100","CVOE updated",1001,1,2,14,"P 10","","",FALSE,"OE","p",653,"oe","P","0","e","e",TRUE,1
"101","CVOE updated",1001,1,2,15,"D 30","","",FALSE,"OE","p",599,"oe","D","0","e","e",TRUE,1
"102","CVOE updated",1001,1,2,16,"U 62","","",TRUE,"OE","p",611,"oe","U","2","e","e",TRUE,1
"103","CVOE updated",1001,1,2,17,"P 95","","",TRUE,"OE","q",734,"oe","P","5","o","o",TRUE,1
"104","CVOE updated",1001,1,2,18,"U 06","","",TRUE,"OE","p",757,"oe","U","6","e","e",TRUE,1
"105","CVOE updated",1001,1,2,19,"E 75","","",FALSE,"OE","q",659,"oe","E","5","o","o",TRUE,1
"106","CVOE updated",1001,1,2,20,"I 67","","",FALSE,"OE","q",589,"oe","I","7","o","o",TRUE,1
"107","CVOE updated",1001,1,2,21,"S 13","","",TRUE,"OE","q",649,"oe","S","3","o","o",TRUE,1
"108","CVOE updated",1001,1,2,22,"P 78","","",FALSE,"OE","p",787,"oe","P","8","e","e",TRUE,1
"109","CVOE updated",1001,1,2,23,"I 15","","",FALSE,"OE","q",672,"oe","I","5","o","o",TRUE,1
"110","CVOE updated",1001,1,2,24,"D 27","","",TRUE,"OE","q",673,"oe","D","7","o","o",TRUE,1
"111","CVOE updated",1001,1,2,25,"O 94","","",TRUE,"OE","p",714,"oe","O","4","e","e",TRUE,1
"112","CVOE updated",1001,1,2,26,"A 65","","",FALSE,"OE","q",690,"oe","A","5","o","o",TRUE,1
"113","CVOE updated",1001,1,2,27,"I 42","","",TRUE,"OE","p",546,"oe","I","2","e","e",TRUE,1
"114","CVOE updated",1001,1,2,28,"E 25","","",FALSE,"OE","q",680,"oe","E","5","o","o",TRUE,1
"115","CVOE updated",1001,1,2,29,"H 49","","",TRUE,"OE","q",745,"oe","H","9","o","o",TRUE,1
"116","CVOE updated",1001,1,2,30,"S 18","","",FALSE,"OE","p",1271,"oe","S","8","e","e",TRUE,1
"117","CVOE updated",1001,1,2,31,"H 51","","",TRUE,"OE","q",1393,"oe","H","1","o","o",TRUE,1
"118","CVOE updated",1001,1,2,32,"U 14","","",TRUE,"OE","p",677,"oe","U","4","e","e",TRUE,1
"119","CVOE updated",1001,1,2,33,"E 02","","",TRUE,"OE","p",526,"oe","E","2","e","e",TRUE,1
"120","CVOE updated",1001,1,2,34,"J 26","","",FALSE,"OE","p",532,"oe","J","6","e","e",TRUE,1
"121","CVOE updated",1001,1,2,35,"D 24","","",FALSE,"OE","p",515,"oe","D","4","e","e",TRUE,1
"122","CVOE updated",1001,1,2,36,"O 50","","",TRUE,"OE","p",618,"oe","O","0","e","e",TRUE,1
"123","CVOE updated",1001,1,2,37,"U 16","","",TRUE,"OE","p",605,"oe","U","6","e","e",TRUE,1
"124","CVOE updated",1001,1,2,38,"O 15","","",FALSE,"OE","q",801,"oe","O","5","o","o",TRUE,1
"125","CVOE updated",1001,1,2,39,"D 32","","",FALSE,"OE","p",941,"oe","D","2","e","e",TRUE,1
"126","CVOE updated",1001,1,2,40,"S 67","","",TRUE,"OE","q",620,"oe","S","7","o","o",TRUE,1
"127","CVOE updated",1001,1,2,41,"J 74","","",FALSE,"OE","p",1095,"oe","J","4","e","e",TRUE,1
"128","CVOE updated",1001,1,2,42,"D 92","","",FALSE,"OE","p",600,"oe","D","2","e","e",TRUE,1
"129","CVOE updated",1001,1,2,43,"A 65","","",FALSE,"OE","q",644,"oe","A","5","o","o",TRUE,1
"130","CVOE updated",1001,1,2,44,"I 87","","",FALSE,"OE","q",558,"oe","I","7","o","o",TRUE,1
"131","CVOE updated",1001,1,2,45,"H 61","","",TRUE,"OE","q",643,"oe","H","1","o","o",TRUE,1
"132","CVOE updated",1001,1,2,46,"E 59","","",FALSE,"OE","q",517,"oe","E","9","o","o",TRUE,1
"133","CVOE updated",1001,1,2,47,"I 33","","",FALSE,"OE","q",605,"oe","I","3","o","o",TRUE,1
"134","CVOE updated",1001,1,2,48,"O 90","","",TRUE,"OE","p",793,"oe","O","0","e","e",TRUE,1
"135","CVOE updated",1001,1,2,49,"U 51","","",FALSE,"OE","q",901,"oe","U","1","o","o",TRUE,1
"136","CVOE updated",1001,1,2,50,"A 10","","",TRUE,"OE","p",869,"oe","A","0","e","e",TRUE,1
"137","CVOE updated",1001,1,2,51,"E 50","","",TRUE,"OE","p",686,"oe","E","0","e","e",TRUE,1
"138","CVOE updated",1001,1,2,52,"D 92","","",FALSE,"OE","p",527,"oe","D","2","e","e",TRUE,1
"139","CVOE updated",1001,1,2,53,"E 60","","",TRUE,"OE","p",573,"oe","E","0","e","e",TRUE,1
"140","CVOE updated",1001,1,2,54,"A 95","","",FALSE,"OE","q",715,"oe","A","5","o","o",TRUE,1
"141","CVOE updated",1001,1,2,55,"E 64","","",TRUE,"OE","p",842,"oe","E","4","e","e",TRUE,1
"142","CVOE updated",1001,1,2,56,"P 20","","",FALSE,"OE","p",788,"oe","P","0","e","e",TRUE,1
"143","CVOE updated",1001,1,2,57,"S 06","","",FALSE,"OE","p",681,"oe","S","6","e","e",TRUE,1
"144","CVOE updated",1001,1,2,58,"P 64","","",FALSE,"OE","p",624,"oe","P","4","e","e",TRUE,1
"145","CVOE updated",1001,1,2,59,"U 70","","",TRUE,"OE","p",660,"oe","U","0","e","e",TRUE,1
"146","CVOE updated",1001,1,2,60,"S 16","","",FALSE,"OE","p",613,"oe","S","6","e","e",TRUE,1
"147","CVOE updated",1001,1,2,61,"E 35","","",FALSE,"OE","q",760,"oe","E","5","o","o",TRUE,1
"148","CVOE updated",1001,1,2,62,"I 93","","",FALSE,"OE","q",789,"oe","I","3","o","o",TRUE,1
"149","CVOE updated",1001,1,2,63,"D 63","","",TRUE,"OE","q",562,"oe","D","3","o","o",TRUE,1
"150","CVOE updated",1001,1,2,64,"U 89","","",FALSE,"OE","q",655,"oe","U","9","o","o",TRUE,1
"151","CVOE updated",1001,1,2,65,"E 91","","",FALSE,"OE","q",649,"oe","E","1","o","o",TRUE,1
"152","CVOE updated",1001,1,2,66,"A 12","","",TRUE,"OE","p",755,"oe","A","2","e","e",TRUE,1
"153","CVOE updated",1001,1,2,67,"P 56","","",FALSE,"OE","p",985,"oe","P","6","e","e",TRUE,1
"154","CVOE updated",1001,1,2,68,"S 65","","",TRUE,"OE","q",758,"oe","S","5","o","o",TRUE,1
"155","CVOE updated",1001,1,2,69,"P 07","","",TRUE,"OE","q",883,"oe","P","7","o","o",TRUE,1
"156","CVOE updated",1001,1,2,70,"I 77","","",FALSE,"OE","q",548,"oe","I","7","o","o",TRUE,1
"157","CVOE updated",1001,1,2,71,"J 19","","",TRUE,"OE","q",634,"oe","J","9","o","o",TRUE,1
"158","CVOE updated",1001,1,2,72,"O 59","","",FALSE,"OE","q",644,"oe","O","9","o","o",TRUE,1
"159","CVOE updated",1001,1,2,73,"J 15","","",TRUE,"OE","q",702,"oe","J","5","o","o",TRUE,1
"160","CVOE updated",1001,1,2,74,"I 89","","",FALSE,"OE","q",910,"oe","I","9","o","o",TRUE,1
"161","CVOE updated",1001,1,2,75,"O 97","","",FALSE,"OE","q",750,"oe","O","7","o","o",TRUE,1
"162","CVOE updated",1001,1,2,76,"A 92","","",TRUE,"OE","p",868,"oe","A","2","e","e",TRUE,1
"163","CVOE updated",1001,1,2,77,"J 90","","",FALSE,"OE","p",565,"oe","J","0","e","e",TRUE,1
"164","CVOE updated",1001,1,2,78,"H 65","","",TRUE,"OE","q",763,"oe","H","5","o","o",TRUE,1
"165","CVOE updated",1001,1,2,79,"H 17","","",TRUE,"OE","q",648,"oe","H","7","o","o",TRUE,1
"166","CVOE updated",1001,1,2,80,"S 26","","",FALSE,"OE","p",690,"oe","S","6","e","e",TRUE,1
"167","CVOE updated",1001,1,2,81,"D 56","","",FALSE,"OE","p",507,"oe","D","6","e","e",TRUE,1
"168","CVOE updated",1001,1,2,82,"I 91","","",FALSE,"OE","q",738,"oe","I","1","o","o",TRUE,1
"169","CVOE updated",1001,1,2,83,"J 11","","",TRUE,"OE","q",673,"oe","J","1","o","o",TRUE,1
"170","CVOE updated",1001,1,2,84,"O 28","","",TRUE,"OE","p",1050,"oe","O","8","e","e",TRUE,1
"171","CVOE updated",1001,1,2,85,"H 29","","",TRUE,"OE","q",685,"oe","H","9","o","o",TRUE,1
"172","CVOE updated",1001,1,2,86,"J 25","","",TRUE,"OE","q",813,"oe","J","5","o","o",TRUE,1
"173","CVOE updated",1001,1,2,87,"A 73","","",FALSE,"OE","q",521,"oe","A","3","o","o",TRUE,1
"174","CVOE updated",1001,1,2,88,"J 63","","",TRUE,"OE","q",552,"oe","J","3","o","o",TRUE,1
"175","CVOE updated",1001,1,2,89,"U 84","","",TRUE,"OE","p",758,"oe","U","4","e","e",TRUE,1
"176","CVOE updated",1001,1,2,90,"A 58","","",TRUE,"OE","p",547,"oe","A","8","e","e",TRUE,1
"177","CVOE updated",1001,1,2,91,"S 43","","",TRUE,"OE","q",681,"oe","S","3","o","o",TRUE,1
"178","CVOE updated",1001,1,2,92,"H 54","","",FALSE,"OE","p",794,"oe","H","4","e","e",TRUE,1
"179","CVOE updated",1001,1,2,93,"D 4","","",FALSE,"OE","p",798,"oe","D","","o","e",FALSE,0
"180","CVOE updated",1001,1,2,94,"J 75","","",TRUE,"OE","q",786,"oe","J","5","o","o",TRUE,1
"181","CVOE updated",1001,1,2,95,"D 19","","",TRUE,"OE","q",1327,"oe","D","9","o","o",TRUE,1
"182","CVOE updated",1001,1,2,96,"J 38","","",FALSE,"OE","p",1046,"oe","J","8","e","e",TRUE,1
"183","CVOE updated",1001,1,2,97,"I 56","","",TRUE,"OE","p",1232,"oe","I","6","e","e",TRUE,1
"184","CVOE updated",1001,1,2,98,"P 87","","",TRUE,"OE","q",763,"oe","P","7","o","o",TRUE,1
"185","CVOE updated",1001,1,2,99,"O 80","","",TRUE,"OE","p",1008,"oe","O","0","e","e",TRUE,1
"186","CVOE updated",1001,1,2,100,"U 60","","",TRUE,"OE","p",676,"oe","U","0","e","e",TRUE,1
"187","CVOE updated",1001,1,2,101,"P 48","","",FALSE,"OE","p",844,"oe","P","8","e","e",TRUE,1
"188","CVOE updated",1001,1,2,102,"H 64","","",FALSE,"OE","p",702,"oe","H","4","e","e",TRUE,1
"189","CVOE updated",1001,1,2,103,"A 13","","",FALSE,"OE","q",726,"oe","A","3","o","o",TRUE,1
"190","CVOE updated",1001,1,2,104,"H 68","","",FALSE,"OE","p",813,"oe","H","8","e","e",TRUE,1
"191","CVOE updated",1001,1,2,105,"E 16","","",TRUE,"OE","p",696,"oe","E","6","e","e",TRUE,1
"192","CVOE updated",1001,1,2,106,"S 71","","",TRUE,"OE","q",528,"oe","S","1","o","o",TRUE,1
"433","CVOE_C",2003,1,1,11,"A 24","","",TRUE,"OE","p",14365,"oe","A","4","e","e",TRUE,1
"434","CVOE_C",2003,1,1,12,"O 83","","",FALSE,"OE","q",4426,"oe","O","3","o","o",TRUE,1
"435","CVOE_C",2003,1,1,13,"H 55","","",TRUE,"OE","q",2678,"oe","H","5","o","o",TRUE,1
"436","CVOE_C",2003,1,1,14,"P 10","","",FALSE,"OE","p",2056,"oe","P","0","e","e",TRUE,1
"437","CVOE_C",2003,1,1,15,"D 30","","",FALSE,"OE","p",3555,"oe","D","0","e","e",TRUE,1
"438","CVOE_C",2003,1,1,16,"U 62","","",TRUE,"OE","p",4066,"oe","U","2","e","e",TRUE,1
"439","CVOE_C",2003,1,1,17,"P 95","","",TRUE,"OE","q",2062,"oe","P","5","o","o",TRUE,1
"440","CVOE_C",2003,1,1,18,"U 06","","",TRUE,"OE","p",5272,"oe","U","6","e","e",TRUE,1
"441","CVOE_C",2003,1,1,19,"E 75","","",FALSE,"OE","q",2956,"oe","E","5","o","o",TRUE,1
"442","CVOE_C",2003,1,1,20,"I 67","","",FALSE,"OE","q",2019,"oe","I","7","o","o",TRUE,1
"443","CVOE_C",2003,1,1,21,"S 13","","",TRUE,"OE","q",2351,"oe","S","3","o","o",TRUE,1
"444","CVOE_C",2003,1,1,22,"P 78","","",FALSE,"OE","p",4190,"oe","P","8","e","e",TRUE,1
"445","CVOE_C",2003,1,1,23,"I 15","","",FALSE,"OE","q",1340,"oe","I","5","o","o",TRUE,1
"446","CVOE_C",2003,1,1,24,"D 27","","",TRUE,"OE","q",1331,"oe","D","7","o","o",TRUE,1
"447","CVOE_C",2003,1,1,25,"O 94","","",TRUE,"OE","q",3250,"oe","O","4","e","o",FALSE,0
"448","CVOE_C",2003,1,1,26,"A 65","","",FALSE,"OE","q",2949,"oe","A","5","o","o",TRUE,1
"449","CVOE_C",2003,1,1,27,"I 42","","",TRUE,"OE","p",2188,"oe","I","2","e","e",TRUE,1
"450","CVOE_C",2003,1,1,28,"E 25","","",FALSE,"OE","q",1466,"oe","E","5","o","o",TRUE,1
"451","CVOE_C",2003,1,1,29,"H 49","","",TRUE,"OE","q",1643,"oe","H","9","o","o",TRUE,1
"452","CVOE_C",2003,1,1,30,"S 18","","",FALSE,"OE","p",3054,"oe","S","8","e","e",TRUE,1
"453","CVOE_C",2003,1,1,31,"H 51","","",TRUE,"OE","q",1369,"oe","H","1","o","o",TRUE,1
"454","CVOE_C",2003,1,1,32,"U 14","","",TRUE,"OE","p",1807,"oe","U","4","e","e",TRUE,1
"455","CVOE_C",2003,1,1,33,"E 02","","",TRUE,"OE","p",2388,"oe","E","2","e","e",TRUE,1
"456","CVOE_C",2003,1,1,34,"J 26","","",FALSE,"OE","p",1281,"oe","J","6","e","e",TRUE,1
"457","CVOE_C",2003,1,1,35,"D 24","","",FALSE,"OE","p",1154,"oe","D","4","e","e",TRUE,1
"458","CVOE_C",2003,1,1,36,"O 50","","",TRUE,"OE","p",2200,"oe","O","0","e","e",TRUE,1
"459","CVOE_C",2003,1,1,37,"U 16","","",TRUE,"OE","p",1741,"oe","U","6","e","e",TRUE,1
"460","CVOE_C",2003,1,1,38,"O 15","","",FALSE,"OE","q",1604,"oe","O","5","o","o",TRUE,1
"461","CVOE_C",2003,1,1,39,"D 32","","",FALSE,"OE","q",1488,"oe","D","2","e","o",FALSE,0
"462","CVOE_C",2003,1,1,40,"S 67","","",TRUE,"OE","q",9033,"oe","S","7","o","o",TRUE,1
"463","CVOE_C",2003,1,1,41,"J 74","","",FALSE,"OE","p",5256,"oe","J","4","e","e",TRUE,1
"464","CVOE_C",2003,1,1,42,"D 92","","",FALSE,"OE","p",7844,"oe","D","2","e","e",TRUE,1
"465","CVOE_C",2003,1,1,43,"A 65","","",FALSE,"OE","q",1874,"oe","A","5","o","o",TRUE,1
"466","CVOE_C",2003,1,1,44,"I 87","","",FALSE,"OE","q",2124,"oe","I","7","o","o",TRUE,1
"467","CVOE_C",2003,1,1,45,"H 61","","",TRUE,"OE","q",1636,"oe","H","1","o","o",TRUE,1
"468","CVOE_C",2003,1,1,46,"E 59","","",FALSE,"OE","q",1799,"oe","E","9","o","o",TRUE,1
"469","CVOE_C",2003,1,1,47,"I 33","","",FALSE,"OE","q",7483,"oe","I","3","o","o",TRUE,1
"470","CVOE_C",2003,1,1,48,"O 90","","",TRUE,"OE","p",5391,"oe","O","0","e","e",TRUE,1
"471","CVOE_C",2003,1,1,49,"U 51","","",FALSE,"OE","q",1493,"oe","U","1","o","o",TRUE,1
"472","CVOE_C",2003,1,1,50,"A 10","","",TRUE,"OE","p",1910,"oe","A","0","e","e",TRUE,1
"473","CVOE_C",2003,1,1,51,"E 50","","",TRUE,"OE","p",1350,"oe","E","0","e","e",TRUE,1
"474","CVOE_C",2003,1,1,52,"D 92","","",FALSE,"OE","q",2396,"oe","D","2","e","o",FALSE,0
"475","CVOE_C",2003,1,1,53,"E 60","","",TRUE,"OE","p",1697,"oe","E","0","e","e",TRUE,1
"476","CVOE_C",2003,1,1,54,"A 95","","",FALSE,"OE","q",2898,"oe","A","5","o","o",TRUE,1
"477","CVOE_C",2003,1,1,55,"E 64","","",TRUE,"OE","p",7619,"oe","E","4","e","e",TRUE,1
"478","CVOE_C",2003,1,1,56,"P 20","","",FALSE,"OE","p",1362,"oe","P","0","e","e",TRUE,1
"479","CVOE_C",2003,1,1,57,"S 06","","",FALSE,"OE","p",1376,"oe","S","6","e","e",TRUE,1
"480","CVOE_C",2003,1,1,58,"P 64","","",FALSE,"OE","p",1285,"oe","P","4","e","e",TRUE,1
"481","CVOE_C",2003,1,1,59,"U 70","","",TRUE,"OE","p",1342,"oe","U","0","e","e",TRUE,1
"482","CVOE_C",2003,1,1,60,"S 16","","",FALSE,"OE","p",1260,"oe","S","6","e","e",TRUE,1
"483","CVOE_C",2003,1,1,61,"E 35","","",FALSE,"OE","q",1902,"oe","E","5","o","o",TRUE,1
"484","CVOE_C",2003,1,1,62,"I 93","","",FALSE,"OE","q",2542,"oe","I","3","o","o",TRUE,1
"485","CVOE_C",2003,1,1,63,"D 63","","",TRUE,"OE","q",2077,"oe","D","3","o","o",TRUE,1
"486","CVOE_C",2003,1,1,64,"U 89","","",FALSE,"OE","q",2063,"oe","U","9","o","o",TRUE,1
"487","CVOE_C",2003,1,1,65,"E 91","","",FALSE,"OE","q",1513,"oe","E","1","o","o",TRUE,1
"488","CVOE_C",2003,1,1,66,"A 12","","",TRUE,"OE","p",1688,"oe","A","2","e","e",TRUE,1
"489","CVOE_C",2003,1,1,67,"P 56","","",FALSE,"OE","p",4426,"oe","P","6","e","e",TRUE,1
"490","CVOE_C",2003,1,1,68,"S 65","","",TRUE,"OE","q",1286,"oe","S","5","o","o",TRUE,1
"491","CVOE_C",2003,1,1,69,"P 07","","",TRUE,"OE","q",1455,"oe","P","7","o","o",TRUE,1
"492","CVOE_C",2003,1,1,70,"I 77","","",FALSE,"OE","q",1066,"oe","I","7","o","o",TRUE,1
"493","CVOE_C",2003,1,1,71,"J 19","","",TRUE,"OE","q",1715,"oe","J","9","o","o",TRUE,1
"494","CVOE_C",2003,1,1,72,"O 59","","",FALSE,"OE","q",1443,"oe","O","9","o","o",TRUE,1
"495","CVOE_C",2003,1,1,73,"J 15","","",TRUE,"OE","q",1126,"oe","J","5","o","o",TRUE,1
"496","CVOE_C",2003,1,1,74,"I 89","","",FALSE,"OE","q",1596,"oe","I","9","o","o",TRUE,1
"497","CVOE_C",2003,1,1,75,"O 97","","",FALSE,"OE","q",1225,"oe","O","7","o","o",TRUE,1
"498","CVOE_C",2003,1,1,76,"A 92","","",TRUE,"OE","q",2284,"oe","A","2","e","o",FALSE,0
"499","CVOE_C",2003,1,1,77,"J 90","","",FALSE,"OE","p",3853,"oe","J","0","e","e",TRUE,1
"500","CVOE_C",2003,1,1,78,"H 65","","",TRUE,"OE","q",1569,"oe","H","5","o","o",TRUE,1
"501","CVOE_C",2003,1,1,79,"H 17","","",TRUE,"OE","q",863,"oe","H","7","o","o",TRUE,1
"502","CVOE_C",2003,1,1,80,"S 26","","",FALSE,"OE","p",1752,"oe","S","6","e","e",TRUE,1
"503","CVOE_C",2003,1,1,81,"D 56","","",FALSE,"OE","q",3007,"oe","D","6","e","o",FALSE,0
"504","CVOE_C",2003,1,1,82,"I 91","","",FALSE,"OE","q",1948,"oe","I","1","o","o",TRUE,1
"505","CVOE_C",2003,1,1,83,"J 11","","",TRUE,"OE","q",1474,"oe","J","1","o","o",TRUE,1
"506","CVOE_C",2003,1,1,84,"O 28","","",TRUE,"OE","p",2235,"oe","O","8","e","e",TRUE,1
"507","CVOE_C",2003,1,1,85,"H 29","","",TRUE,"OE","q",1775,"oe","H","9","o","o",TRUE,1
"508","CVOE_C",2003,1,1,86,"J 25","","",TRUE,"OE","p",1956,"oe","J","5","o","e",FALSE,0
"509","CVOE_C",2003,1,1,87,"A 73","","",FALSE,"OE","q",1819,"oe","A","3","o","o",TRUE,1
"510","CVOE_C",2003,1,1,88,"J 63","","",TRUE,"OE","q",1679,"oe","J","3","o","o",TRUE,1
"511","CVOE_C",2003,1,1,89,"U 84","","",TRUE,"OE","p",1592,"oe","U","4","e","e",TRUE,1
"512","CVOE_C",2003,1,1,90,"A 58","","",TRUE,"OE","p",4252,"oe","A","8","e","e",TRUE,1
"513","CVOE_C",2003,1,1,91,"S 43","","",TRUE,"OE","q",1624,"oe","S","3","o","o",TRUE,1
"514","CVOE_C",2003,1,1,92,"H 54","","",FALSE,"OE","p",2587,"oe","H","4","e","e",TRUE,1
"515","CVOE_C",2003,1,1,93,"D 4","","",FALSE,"OE","p",729,"oe","D","","o","e",FALSE,0
"516","CVOE_C",2003,1,1,94,"J 75","","",TRUE,"OE","q",3568,"oe","J","5","o","o",TRUE,1
"517","CVOE_C",2003,1,1,95,"D 19","","",TRUE,"OE","q",2455,"oe","D","9","o","o",TRUE,1
"518","CVOE_C",2003,1,1,96,"J 38","","",FALSE,"OE","p",8202,"oe","J","8","e","e",TRUE,1
"519","CVOE_C",2003,1,1,97,"I 56","","",TRUE,"OE","q",4314,"oe","I","6","e","o",FALSE,0
"520","CVOE_C",2003,1,1,98,"P 87","","",TRUE,"OE","q",1819,"oe","P","7","o","o",TRUE,1
"521","CVOE_C",2003,1,1,99,"O 80","","",TRUE,"OE","p",2399,"oe","O","0","e","e",TRUE,1
"522","CVOE_C",2003,1,1,100,"U 60","","",TRUE,"OE","p",676,"oe","U","0","e","e",TRUE,1
"523","CVOE_C",2003,1,1,101,"P 48","","",FALSE,"OE","p",973,"oe","P","8","e","e",TRUE,1
"524","CVOE_C",2003,1,1,102,"H 64","","",FALSE,"OE","p",1210,"oe","H","4","e","e",TRUE,1
"525","CVOE_C",2003,1,1,103,"A 13","","",FALSE,"OE","q",1334,"oe","A","3","o","o",TRUE,1
"526","CVOE_C",2003,1,1,104,"H 68","","",FALSE,"OE","p",2245,"oe","H","8","e","e",TRUE,1
"527","CVOE_C",2003,1,1,105,"E 16","","",TRUE,"OE","p",927,"oe","E","6","e","e",TRUE,1
"528","CVOE_C",2003,1,1,106,"S 71","","",TRUE,"OE","q",1190,"oe","S","1","o","o",TRUE,1
"193","CVOE updated",1001,1,3,11,"A 44","Letter","N",TRUE,"CV","p",4437,"alt","A","4","v","v",TRUE,1
"194","CVOE updated",1001,1,3,12,"D 94","Letter","N",FALSE,"CV","q",1098,"alt","D","4","c","c",TRUE,1
"197","CVOE updated",1001,1,3,15,"I 64","Letter","Y",TRUE,"CV","p",1734,"alt","I","4","v","v",TRUE,1
"198","CVOE updated",1001,1,3,16,"J 54","Letter","N",FALSE,"CV","q",4941,"alt","J","4","c","c",TRUE,1
"201","CVOE updated",1001,1,3,19,"S 34","Letter","Y",FALSE,"CV","q",2199,"alt","S","4","c","c",TRUE,1
"202","CVOE updated",1001,1,3,20,"U 88","Letter","N",TRUE,"CV","p",1332,"alt","U","8","v","v",TRUE,1
"205","CVOE updated",1001,1,3,23,"E 79","Letter","Y",FALSE,"CV","p",3911,"alt","E","9","v","v",TRUE,1
"206","CVOE updated",1001,1,3,24,"H 72","Letter","N",FALSE,"CV","q",2912,"alt","H","2","c","c",TRUE,1
"209","CVOE updated",1001,1,3,27,"O 03","Letter","Y",FALSE,"CV","p",1693,"alt","O","3","v","v",TRUE,1
"210","CVOE updated",1001,1,3,28,"P 75","Letter","N",TRUE,"CV","q",2342,"alt","P","5","c","c",TRUE,1
"213","CVOE updated",1001,1,3,31,"A 21","Letter","Y",FALSE,"CV","p",1835,"alt","A","1","v","v",TRUE,1
"214","CVOE updated",1001,1,3,32,"D 18","Letter","N",FALSE,"CV","q",1262,"alt","D","8","c","c",TRUE,1
"217","CVOE updated",1001,1,3,35,"I 82","Letter","Y",TRUE,"CV","p",1310,"alt","I","2","v","v",TRUE,1
"218","CVOE updated",1001,1,3,36,"J 78","Letter","N",FALSE,"CV","q",1589,"alt","J","8","c","c",TRUE,1
"221","CVOE updated",1001,1,3,39,"S 07","Letter","Y",TRUE,"CV","q",2224,"alt","S","7","c","c",TRUE,1
"222","CVOE updated",1001,1,3,40,"U 36","Letter","N",TRUE,"CV","p",1756,"alt","U","6","v","v",TRUE,1
"225","CVOE updated",1001,1,3,43,"E 60","Letter","Y",TRUE,"CV","p",1906,"alt","E","0","v","v",TRUE,1
"226","CVOE updated",1001,1,3,44,"H 83","Letter","N",TRUE,"CV","q",2115,"alt","H","3","c","c",TRUE,1
"229","CVOE updated",1001,1,3,47,"O 78","Letter","Y",TRUE,"CV","p",2021,"alt","O","8","v","v",TRUE,1
"230","CVOE updated",1001,1,3,48,"P 09","Letter","N",TRUE,"CV","q",2577,"alt","P","9","c","c",TRUE,1
"233","CVOE updated",1001,1,3,51,"A 31","Letter","Y",FALSE,"CV","p",1817,"alt","A","1","v","v",TRUE,1
"234","CVOE updated",1001,1,3,52,"D 96","Letter","N",FALSE,"CV","q",1437,"alt","D","6","c","c",TRUE,1
"237","CVOE updated",1001,1,3,55,"I 15","Letter","Y",FALSE,"CV","p",2131,"alt","I","5","v","v",TRUE,1
"238","CVOE updated",1001,1,3,56,"J 07","Letter","N",TRUE,"CV","q",1459,"alt","J","7","c","c",TRUE,1
"241","CVOE updated",1001,1,3,59,"S 37","Letter","Y",TRUE,"CV","q",3532,"alt","S","7","c","c",TRUE,1
"242","CVOE updated",1001,1,3,60,"U 61","Letter","N",FALSE,"CV","p",1453,"alt","U","1","v","v",TRUE,1
"245","CVOE updated",1001,1,3,63,"E 20","Letter","Y",TRUE,"CV","p",1957,"alt","E","0","v","v",TRUE,1
"246","CVOE updated",1001,1,3,64,"H 86","Letter","N",FALSE,"CV","q",3435,"alt","H","6","c","c",TRUE,1
"249","CVOE updated",1001,1,3,67,"O 13","Letter","Y",FALSE,"CV","p",1492,"alt","O","3","v","v",TRUE,1
"250","CVOE updated",1001,1,3,68,"P 82","Letter","N",FALSE,"CV","q",1444,"alt","P","2","c","c",TRUE,1
"253","CVOE updated",1001,1,3,71,"A 49","Letter","Y",FALSE,"CV","p",1658,"alt","A","9","v","v",TRUE,1
"254","CVOE updated",1001,1,3,72,"D 91","Letter","N",TRUE,"CV","q",3404,"alt","D","1","c","c",TRUE,1
"257","CVOE updated",1001,1,3,75,"I 45","Letter","Y",FALSE,"CV","p",1837,"alt","I","5","v","v",TRUE,1
"258","CVOE updated",1001,1,3,76,"J 70","Letter","N",FALSE,"CV","q",4056,"alt","J","0","c","c",TRUE,1
"261","CVOE updated",1001,1,3,79,"S 93","Letter","Y",TRUE,"CV","q",2476,"alt","S","3","c","c",TRUE,1
"262","CVOE updated",1001,1,3,80,"U 70","Letter","N",TRUE,"CV","p",1798,"alt","U","0","v","v",TRUE,1
"265","CVOE updated",1001,1,3,83,"E 68","Letter","Y",TRUE,"CV","p",2366,"alt","E","8","v","v",TRUE,1
"266","CVOE updated",1001,1,3,84,"H 17","Letter","N",TRUE,"CV","q",1668,"alt","H","7","c","c",TRUE,1
"269","CVOE updated",1001,1,3,87,"O 32","Letter","Y",TRUE,"CV","p",2411,"alt","O","2","v","v",TRUE,1
"270","CVOE updated",1001,1,3,88,"P 95","Letter","N",TRUE,"CV","q",2119,"alt","P","5","c","c",TRUE,1
"273","CVOE updated",1001,1,3,91,"A 56","Letter","Y",TRUE,"CV","p",1704,"alt","A","6","v","v",TRUE,1
"274","CVOE updated",1001,1,3,92,"D 57","Letter","N",TRUE,"CV","q",1529,"alt","D","7","c","c",TRUE,1
"277","CVOE updated",1001,1,3,95,"I 35","Letter","Y",FALSE,"CV","p",1345,"alt","I","5","v","v",TRUE,1
"278","CVOE updated",1001,1,3,96,"J 03","Letter","N",TRUE,"CV","q",2167,"alt","J","3","c","c",TRUE,1
"281","CVOE updated",1001,1,3,99,"S 77","Letter","Y",TRUE,"CV","q",5550,"alt","S","7","c","c",TRUE,1
"282","CVOE updated",1001,1,3,100,"U 05","Letter","N",FALSE,"CV","p",1503,"alt","U","5","v","v",TRUE,1
"285","CVOE updated",1001,1,3,103,"E 02","Letter","Y",TRUE,"CV","p",2010,"alt","E","2","v","v",TRUE,1
"286","CVOE updated",1001,1,3,104,"H 68","Letter","N",FALSE,"CV","q",2854,"alt","H","8","c","c",TRUE,1
"289","CVOE updated",1001,1,3,107,"O 73","Letter","Y",FALSE,"CV","p",1689,"alt","O","3","v","v",TRUE,1
"290","CVOE updated",1001,1,3,108,"P 41","Letter","N",TRUE,"CV","q",1698,"alt","P","1","c","c",TRUE,1
"293","CVOE updated",1001,1,3,111,"A 09","Letter","Y",FALSE,"CV","p",1782,"alt","A","9","v","v",TRUE,1
"294","CVOE updated",1001,1,3,112,"D 92","Letter","N",FALSE,"CV","q",2492,"alt","D","2","c","c",TRUE,1
"297","CVOE updated",1001,1,3,115,"I 44","Letter","Y",TRUE,"CV","p",2021,"alt","I","4","v","v",TRUE,1
"298","CVOE updated",1001,1,3,116,"J 67","Letter","N",TRUE,"CV","q",1969,"alt","J","7","c","c",TRUE,1
"301","CVOE updated",1001,1,3,119,"S 86","Letter","Y",FALSE,"CV","q",1540,"alt","S","6","c","c",TRUE,1
"302","CVOE updated",1001,1,3,120,"U 35","Letter","N",FALSE,"CV","p",1818,"alt","U","5","v","v",TRUE,1
"305","CVOE updated",1001,1,3,123,"E 91","Letter","Y",FALSE,"CV","p",1879,"alt","E","1","v","v",TRUE,1
"306","CVOE updated",1001,1,3,124,"H 54","Letter","N",FALSE,"CV","q",4624,"alt","H","4","c","c",TRUE,1
"309","CVOE updated",1001,1,3,127,"O 19","Letter","Y",FALSE,"CV","p",2650,"alt","O","9","v","v",TRUE,1
"310","CVOE updated",1001,1,3,128,"P 48","Letter","N",FALSE,"CV","q",3485,"alt","P","8","c","c",TRUE,1
"315","CVOE updated",1001,1,4,3,"U 95","Letter","Y",FALSE,"CV","p",2676,"shuf","U","5","v","v",TRUE,1
"319","CVOE updated",1001,1,4,7,"A 56","Letter","Y",TRUE,"CV","p",1739,"shuf","A","6","v","v",TRUE,1
"320","CVOE updated",1001,1,4,8,"H 78","Letter","N",FALSE,"CV","q",2139,"shuf","H","8","c","c",TRUE,1
"321","CVOE updated",1001,1,4,9,"P 92","Letter","N",FALSE,"CV","q",1514,"shuf","P","2","c","c",TRUE,1
"323","CVOE updated",1001,1,4,11,"P 57","Letter","Y",TRUE,"CV","q",2565,"shuf","P","7","c","c",TRUE,1
"325","CVOE updated",1001,1,4,13,"O 89","Letter","Y",FALSE,"CV","p",1857,"shuf","O","9","v","v",TRUE,1
"328","CVOE updated",1001,1,4,16,"S 07","Letter","Y",TRUE,"CV","q",1999,"shuf","S","7","c","c",TRUE,1
"329","CVOE updated",1001,1,4,17,"J 10","Letter","N",FALSE,"CV","q",1131,"shuf","J","0","c","c",TRUE,1
"332","CVOE updated",1001,1,4,20,"J 36","Letter","Y",FALSE,"CV","q",2937,"shuf","J","6","c","c",TRUE,1
"333","CVOE updated",1001,1,4,21,"I 94","Letter","N",TRUE,"CV","p",1785,"shuf","I","4","v","v",TRUE,1
"334","CVOE updated",1001,1,4,22,"A 82","Letter","N",TRUE,"CV","p",1614,"shuf","A","2","v","v",TRUE,1
"337","CVOE updated",1001,1,4,25,"S 28","Letter","Y",FALSE,"CV","q",1106,"shuf","S","8","c","c",TRUE,1
"342","CVOE updated",1001,1,4,30,"S 35","Letter","Y",TRUE,"CV","q",1798,"shuf","S","5","c","c",TRUE,1
"346","CVOE updated",1001,1,4,34,"U 95","Letter","Y",FALSE,"CV","p",1852,"shuf","U","5","v","v",TRUE,1
"347","CVOE updated",1001,1,4,35,"A 53","Letter","N",FALSE,"CV","p",1575,"shuf","A","3","v","v",TRUE,1
"348","CVOE updated",1001,1,4,36,"E 43","Letter","N",FALSE,"CV","p",332,"shuf","E","3","v","v",TRUE,1
"350","CVOE updated",1001,1,4,38,"O 19","Letter","Y",FALSE,"CV","p",4498,"shuf","O","9","v","v",TRUE,1
"355","CVOE updated",1001,1,4,43,"P 79","Letter","Y",TRUE,"CV","q",1851,"shuf","P","9","c","c",TRUE,1
"360","CVOE updated",1001,1,4,48,"E 54","Letter","Y",TRUE,"CV","p",1412,"shuf","E","4","v","v",TRUE,1
"361","CVOE updated",1001,1,4,49,"A 53","Letter","N",FALSE,"CV","p",1480,"shuf","A","3","v","v",TRUE,1
"362","CVOE updated",1001,1,4,50,"P 34","Letter","N",FALSE,"CV","q",1809,"shuf","P","4","c","c",TRUE,1
"364","CVOE updated",1001,1,4,52,"A 03","Letter","Y",FALSE,"CV","p",1676,"shuf","A","3","v","v",TRUE,1
"366","CVOE updated",1001,1,4,54,"I 58","Letter","Y",TRUE,"CV","p",1987,"shuf","I","8","v","v",TRUE,1
"369","CVOE updated",1001,1,4,57,"I 20","Letter","Y",TRUE,"CV","p",1695,"shuf","I","0","v","v",TRUE,1
"370","CVOE updated",1001,1,4,58,"J 52","Letter","N",FALSE,"CV","q",1928,"shuf","J","2","c","c",TRUE,1
"372","CVOE updated",1001,1,4,60,"I 60","Letter","Y",TRUE,"CV","p",2495,"shuf","I","0","v","v",TRUE,1
"374","CVOE updated",1001,1,4,62,"D 63","Letter","Y",TRUE,"CV","q",2800,"shuf","D","3","c","c",TRUE,1
"375","CVOE updated",1001,1,4,63,"U 27","Letter","N",FALSE,"CV","p",1381,"shuf","U","7","v","v",TRUE,1
"376","CVOE updated",1001,1,4,64,"J 77","Letter","N",TRUE,"CV","q",1050,"shuf","J","7","c","c",TRUE,1
"378","CVOE updated",1001,1,4,66,"J 20","Letter","Y",FALSE,"CV","q",3392,"shuf","J","0","c","c",TRUE,1
"381","CVOE updated",1001,1,4,69,"O 04","Letter","Y",TRUE,"CV","p",1503,"shuf","O","4","v","v",TRUE,1
"382","CVOE updated",1001,1,4,70,"E 10","Letter","N",TRUE,"CV","p",1672,"shuf","E","0","v","v",TRUE,1
"383","CVOE updated",1001,1,4,71,"I 52","Letter","N",TRUE,"CV","p",1337,"shuf","I","2","v","v",TRUE,1
"386","CVOE updated",1001,1,4,74,"U 19","Letter","Y",FALSE,"CV","p",1985,"shuf","U","9","v","v",TRUE,1
"389","CVOE updated",1001,1,4,77,"P 93","Letter","Y",TRUE,"CV","q",1646,"shuf","P","3","c","c",TRUE,1
"390","CVOE updated",1001,1,4,78,"E 59","Letter","N",FALSE,"CV","p",3297,"shuf","E","9","v","v",TRUE,1
"391","CVOE updated",1001,1,4,79,"O 53","Letter","N",FALSE,"CV","p",1066,"shuf","O","3","v","v",TRUE,1
"392","CVOE updated",1001,1,4,80,"A 96","Letter","N",TRUE,"CV","p",1044,"shuf","A","6","v","v",TRUE,1
"393","CVOE updated",1001,1,4,81,"H 36","Letter","Y",FALSE,"CV","q",1310,"shuf","H","6","c","c",TRUE,1
"394","CVOE updated",1001,1,4,82,"A 63","Letter","N",FALSE,"CV","p",1061,"shuf","A","3","v","v",TRUE,1
"395","CVOE updated",1001,1,4,83,"I 38","Letter","N",TRUE,"CV","p",983,"shuf","I","8","v","v",TRUE,1
"398","CVOE updated",1001,1,4,86,"S 34","Letter","Y",FALSE,"CV","q",1604,"shuf","S","4","c","c",TRUE,1
"401","CVOE updated",1001,1,4,89,"I 73","Letter","Y",FALSE,"CV","p",1576,"shuf","I","3","v","v",TRUE,1
"404","CVOE updated",1001,1,4,92,"P 72","Letter","Y",FALSE,"CV","q",2875,"shuf","P","2","c","c",TRUE,1
"406","CVOE updated",1001,1,4,94,"U 25","Letter","Y",FALSE,"CV","p",1673,"shuf","U","5","v","v",TRUE,1
"407","CVOE updated",1001,1,4,95,"O 32","Letter","N",TRUE,"CV","p",2051,"shuf","O","2","v","v",TRUE,1
"408","CVOE updated",1001,1,4,96,"E 80","Letter","N",TRUE,"CV","p",1237,"shuf","E","0","v","v",TRUE,1
"412","CVOE updated",1001,1,4,100,"U 35","Letter","Y",FALSE,"CV","p",1938,"shuf","U","5","v","v",TRUE,1
"413","CVOE updated",1001,1,4,101,"H 14","Letter","N",FALSE,"CV","q",1818,"shuf","H","4","c","c",TRUE,1
"415","CVOE updated",1001,1,4,103,"E 36","Letter","Y",TRUE,"CV","p",1212,"shuf","E","6","v","v",TRUE,1
"416","CVOE updated",1001,1,4,104,"P 70","Letter","N",FALSE,"CV","q",1080,"shuf","P","0","c","c",TRUE,1
"418","CVOE updated",1001,1,4,106,"S 41","Letter","Y",TRUE,"CV","q",2136,"shuf","S","1","c","c",TRUE,1
"419","CVOE updated",1001,1,4,107,"D 83","Letter","N",TRUE,"CV","q",1280,"shuf","D","3","c","c",TRUE,1
"420","CVOE updated",1001,1,4,108,"J 39","Letter","N",TRUE,"CV","q",1249,"shuf","J","9","c","c",TRUE,1
"422","CVOE updated",1001,1,4,110,"D 89","Letter","Y",TRUE,"CV","q",1578,"shuf","D","9","c","c",TRUE,1
"423","CVOE updated",1001,1,4,111,"P 87","Letter","N",TRUE,"CV","q",1575,"shuf","P","7","c","c",TRUE,1
"424","CVOE updated",1001,1,4,112,"H 42","Letter","N",FALSE,"CV","q",1093,"shuf","H","2","c","c",TRUE,1
"425","CVOE updated",1001,1,4,113,"S 49","Letter","N",TRUE,"CV","q",1373,"shuf","S","9","c","c",TRUE,1
"427","CVOE updated",1001,1,4,115,"O 19","Letter","Y",FALSE,"CV","p",2019,"shuf","O","9","v","v",TRUE,1
"428","CVOE updated",1001,1,4,116,"H 50","Letter","N",FALSE,"CV","q",1727,"shuf","H","0","c","c",TRUE,1
"625","CVOE_C",2003,1,3,11,"A 44","Letter","N",TRUE,"CV","p",16596,"alt","A","4","v","v",TRUE,1
"626","CVOE_C",2003,1,3,12,"D 94","Letter","N",FALSE,"CV","q",4121,"alt","D","4","c","c",TRUE,1
"629","CVOE_C",2003,1,3,15,"I 64","Letter","Y",TRUE,"CV","p",2268,"alt","I","4","v","v",TRUE,1
"630","CVOE_C",2003,1,3,16,"J 54","Letter","N",FALSE,"CV","q",2030,"alt","J","4","c","c",TRUE,1
"633","CVOE_C",2003,1,3,19,"S 34","Letter","Y",FALSE,"CV","q",3822,"alt","S","4","c","c",TRUE,1
"634","CVOE_C",2003,1,3,20,"U 88","Letter","N",TRUE,"CV","p",2179,"alt","U","8","v","v",TRUE,1
"637","CVOE_C",2003,1,3,23,"E 79","Letter","Y",FALSE,"CV","p",2963,"alt","E","9","v","v",TRUE,1
"638","CVOE_C",2003,1,3,24,"H 72","Letter","N",FALSE,"CV","q",3080,"alt","H","2","c","c",TRUE,1
"641","CVOE_C",2003,1,3,27,"O 03","Letter","Y",FALSE,"CV","p",1987,"alt","O","3","v","v",TRUE,1
"642","CVOE_C",2003,1,3,28,"P 75","Letter","N",TRUE,"CV","q",1480,"alt","P","5","c","c",TRUE,1
"645","CVOE_C",2003,1,3,31,"A 21","Letter","Y",FALSE,"CV","p",1231,"alt","A","1","v","v",TRUE,1
"646","CVOE_C",2003,1,3,32,"D 18","Letter","N",FALSE,"CV","q",1386,"alt","D","8","c","c",TRUE,1
"649","CVOE_C",2003,1,3,35,"I 82","Letter","Y",TRUE,"CV","p",1656,"alt","I","2","v","v",TRUE,1
"650","CVOE_C",2003,1,3,36,"J 78","Letter","N",FALSE,"CV","q",1410,"alt","J","8","c","c",TRUE,1
"653","CVOE_C",2003,1,3,39,"S 07","Letter","Y",TRUE,"CV","q",1714,"alt","S","7","c","c",TRUE,1
"654","CVOE_C",2003,1,3,40,"U 36","Letter","N",TRUE,"CV","p",1322,"alt","U","6","v","v",TRUE,1
"657","CVOE_C",2003,1,3,43,"E 60","Letter","Y",TRUE,"CV","p",2868,"alt","E","0","v","v",TRUE,1
"658","CVOE_C",2003,1,3,44,"H 83","Letter","N",TRUE,"CV","q",2231,"alt","H","3","c","c",TRUE,1
"661","CVOE_C",2003,1,3,47,"O 78","Letter","Y",TRUE,"CV","p",1389,"alt","O","8","v","v",TRUE,1
"662","CVOE_C",2003,1,3,48,"P 09","Letter","N",TRUE,"CV","q",2058,"alt","P","9","c","c",TRUE,1
"665","CVOE_C",2003,1,3,51,"A 31","Letter","Y",FALSE,"CV","q",828,"alt","A","1","v","c",FALSE,0
"666","CVOE_C",2003,1,3,52,"D 96","Letter","N",FALSE,"CV","q",2903,"alt","D","6","c","c",TRUE,1
"669","CVOE_C",2003,1,3,55,"I 15","Letter","Y",FALSE,"CV","p",1166,"alt","I","5","v","v",TRUE,1
"670","CVOE_C",2003,1,3,56,"J 07","Letter","N",TRUE,"CV","q",2652,"alt","J","7","c","c",TRUE,1
"673","CVOE_C",2003,1,3,59,"S 37","Letter","Y",TRUE,"CV","q",3884,"alt","S","7","c","c",TRUE,1
"674","CVOE_C",2003,1,3,60,"U 61","Letter","N",FALSE,"CV","p",1655,"alt","U","1","v","v",TRUE,1
"677","CVOE_C",2003,1,3,63,"E 20","Letter","Y",TRUE,"CV","p",1628,"alt","E","0","v","v",TRUE,1
"678","CVOE_C",2003,1,3,64,"H 86","Letter","N",FALSE,"CV","q",1248,"alt","H","6","c","c",TRUE,1
"681","CVOE_C",2003,1,3,67,"O 13","Letter","Y",FALSE,"CV","p",1386,"alt","O","3","v","v",TRUE,1
"682","CVOE_C",2003,1,3,68,"P 82","Letter","N",FALSE,"CV","q",1679,"alt","P","2","c","c",TRUE,1
"685","CVOE_C",2003,1,3,71,"A 49","Letter","Y",FALSE,"CV","p",1683,"alt","A","9","v","v",TRUE,1
"686","CVOE_C",2003,1,3,72,"D 91","Letter","N",TRUE,"CV","q",2180,"alt","D","1","c","c",TRUE,1
"689","CVOE_C",2003,1,3,75,"I 45","Letter","Y",FALSE,"CV","p",1254,"alt","I","5","v","v",TRUE,1
"690","CVOE_C",2003,1,3,76,"J 70","Letter","N",FALSE,"CV","q",1224,"alt","J","0","c","c",TRUE,1
"693","CVOE_C",2003,1,3,79,"S 93","Letter","Y",TRUE,"CV","q",1466,"alt","S","3","c","c",TRUE,1
"694","CVOE_C",2003,1,3,80,"U 70","Letter","N",TRUE,"CV","p",1796,"alt","U","0","v","v",TRUE,1
"697","CVOE_C",2003,1,3,83,"E 68","Letter","Y",TRUE,"CV","p",1310,"alt","E","8","v","v",TRUE,1
"698","CVOE_C",2003,1,3,84,"H 17","Letter","N",TRUE,"CV","q",1549,"alt","H","7","c","c",TRUE,1
"701","CVOE_C",2003,1,3,87,"O 32","Letter","Y",TRUE,"CV","p",1221,"alt","O","2","v","v",TRUE,1
"702","CVOE_C",2003,1,3,88,"P 95","Letter","N",TRUE,"CV","q",1224,"alt","P","5","c","c",TRUE,1
"705","CVOE_C",2003,1,3,91,"A 56","Letter","Y",TRUE,"CV","p",1303,"alt","A","6","v","v",TRUE,1
"706","CVOE_C",2003,1,3,92,"D 57","Letter","N",TRUE,"CV","q",1376,"alt","D","7","c","c",TRUE,1
"709","CVOE_C",2003,1,3,95,"I 35","Letter","Y",FALSE,"CV","p",893,"alt","I","5","v","v",TRUE,1
"710","CVOE_C",2003,1,3,96,"J 03","Letter","N",TRUE,"CV","q",1653,"alt","J","3","c","c",TRUE,1
"713","CVOE_C",2003,1,3,99,"S 77","Letter","Y",TRUE,"CV","q",1411,"alt","S","7","c","c",TRUE,1
"714","CVOE_C",2003,1,3,100,"U 05","Letter","N",FALSE,"CV","p",742,"alt","U","5","v","v",TRUE,1
"717","CVOE_C",2003,1,3,103,"E 02","Letter","Y",TRUE,"CV","p",850,"alt","E","2","v","v",TRUE,1
"718","CVOE_C",2003,1,3,104,"H 68","Letter","N",FALSE,"CV","q",1356,"alt","H","8","c","c",TRUE,1
"721","CVOE_C",2003,1,3,107,"O 73","Letter","Y",FALSE,"CV","p",1323,"alt","O","3","v","v",TRUE,1
"722","CVOE_C",2003,1,3,108,"P 41","Letter","N",TRUE,"CV","q",1307,"alt","P","1","c","c",TRUE,1
"725","CVOE_C",2003,1,3,111,"A 09","Letter","Y",FALSE,"CV","p",1313,"alt","A","9","v","v",TRUE,1
"726","CVOE_C",2003,1,3,112,"D 92","Letter","N",FALSE,"CV","q",1057,"alt","D","2","c","c",TRUE,1
"729","CVOE_C",2003,1,3,115,"I 44","Letter","Y",TRUE,"CV","p",925,"alt","I","4","v","v",TRUE,1
"730","CVOE_C",2003,1,3,116,"J 67","Letter","N",TRUE,"CV","q",1460,"alt","J","7","c","c",TRUE,1
"733","CVOE_C",2003,1,3,119,"S 86","Letter","Y",FALSE,"CV","q",1081,"alt","S","6","c","c",TRUE,1
"734","CVOE_C",2003,1,3,120,"U 35","Letter","N",FALSE,"CV","p",753,"alt","U","5","v","v",TRUE,1
"737","CVOE_C",2003,1,3,123,"E 91","Letter","Y",FALSE,"CV","p",1896,"alt","E","1","v","v",TRUE,1
"738","CVOE_C",2003,1,3,124,"H 54","Letter","N",FALSE,"CV","q",1696,"alt","H","4","c","c",TRUE,1
"741","CVOE_C",2003,1,3,127,"O 19","Letter","Y",FALSE,"CV","p",2056,"alt","O","9","v","v",TRUE,1
"742","CVOE_C",2003,1,3,128,"P 48","Letter","N",FALSE,"CV","q",2154,"alt","P","8","c","c",TRUE,1
"747","CVOE_C",2003,1,4,3,"U 95","Letter","Y",FALSE,"CV","q",3392,"shuf","U","5","v","c",FALSE,0
"751","CVOE_C",2003,1,4,7,"A 56","Letter","Y",TRUE,"CV","p",2494,"shuf","A","6","v","v",TRUE,1
"752","CVOE_C",2003,1,4,8,"H 78","Letter","N",FALSE,"CV","p",1271,"shuf","H","8","c","v",FALSE,0
"753","CVOE_C",2003,1,4,9,"P 92","Letter","N",FALSE,"CV","p",1152,"shuf","P","2","c","v",FALSE,0
"755","CVOE_C",2003,1,4,11,"P 57","Letter","Y",TRUE,"CV","q",1191,"shuf","P","7","c","c",TRUE,1
"757","CVOE_C",2003,1,4,13,"O 89","Letter","Y",FALSE,"CV","q",1111,"shuf","O","9","v","c",FALSE,0
"760","CVOE_C",2003,1,4,16,"S 07","Letter","Y",TRUE,"CV","q",2008,"shuf","S","7","c","c",TRUE,1
"761","CVOE_C",2003,1,4,17,"J 10","Letter","N",FALSE,"CV","p",1612,"shuf","J","0","c","v",FALSE,0
"764","CVOE_C",2003,1,4,20,"J 36","Letter","Y",FALSE,"CV","p",1061,"shuf","J","6","c","v",FALSE,0
"765","CVOE_C",2003,1,4,21,"I 94","Letter","N",TRUE,"CV","p",3278,"shuf","I","4","v","v",TRUE,1
"766","CVOE_C",2003,1,4,22,"A 82","Letter","N",TRUE,"CV","p",1288,"shuf","A","2","v","v",TRUE,1
"769","CVOE_C",2003,1,4,25,"S 28","Letter","Y",FALSE,"CV","p",1688,"shuf","S","8","c","v",FALSE,0
"774","CVOE_C",2003,1,4,30,"S 35","Letter","Y",TRUE,"CV","q",1136,"shuf","S","5","c","c",TRUE,1
"778","CVOE_C",2003,1,4,34,"U 95","Letter","Y",FALSE,"CV","q",3711,"shuf","U","5","v","c",FALSE,0
"779","CVOE_C",2003,1,4,35,"A 53","Letter","N",FALSE,"CV","q",1736,"shuf","A","3","v","c",FALSE,0
"780","CVOE_C",2003,1,4,36,"E 43","Letter","N",FALSE,"CV","q",800,"shuf","E","3","v","c",FALSE,0
"782","CVOE_C",2003,1,4,38,"O 19","Letter","Y",FALSE,"CV","q",1034,"shuf","O","9","v","c",FALSE,0
"787","CVOE_C",2003,1,4,43,"P 79","Letter","Y",TRUE,"CV","q",1180,"shuf","P","9","c","c",TRUE,1
"792","CVOE_C",2003,1,4,48,"E 54","Letter","Y",TRUE,"CV","p",1162,"shuf","E","4","v","v",TRUE,1
"793","CVOE_C",2003,1,4,49,"A 53","Letter","N",FALSE,"CV","q",928,"shuf","A","3","v","c",FALSE,0
"794","CVOE_C",2003,1,4,50,"P 34","Letter","N",FALSE,"CV","p",2390,"shuf","P","4","c","v",FALSE,0
"796","CVOE_C",2003,1,4,52,"A 03","Letter","Y",FALSE,"CV","q",788,"shuf","A","3","v","c",FALSE,0
"798","CVOE_C",2003,1,4,54,"I 58","Letter","Y",TRUE,"CV","p",801,"shuf","I","8","v","v",TRUE,1
"801","CVOE_C",2003,1,4,57,"I 20","Letter","Y",TRUE,"CV","p",913,"shuf","I","0","v","v",TRUE,1
"802","CVOE_C",2003,1,4,58,"J 52","Letter","N",FALSE,"CV","p",3184,"shuf","J","2","c","v",FALSE,0
"804","CVOE_C",2003,1,4,60,"I 60","Letter","Y",TRUE,"CV","p",741,"shuf","I","0","v","v",TRUE,1
"806","CVOE_C",2003,1,4,62,"D 63","Letter","Y",TRUE,"CV","q",836,"shuf","D","3","c","c",TRUE,1
"807","CVOE_C",2003,1,4,63,"U 27","Letter","N",FALSE,"CV","q",750,"shuf","U","7","v","c",FALSE,0
"808","CVOE_C",2003,1,4,64,"J 77","Letter","N",TRUE,"CV","q",916,"shuf","J","7","c","c",TRUE,1
"810","CVOE_C",2003,1,4,66,"J 20","Letter","Y",FALSE,"CV","p",1917,"shuf","J","0","c","v",FALSE,0
"813","CVOE_C",2003,1,4,69,"O 04","Letter","Y",TRUE,"CV","p",837,"shuf","O","4","v","v",TRUE,1
"814","CVOE_C",2003,1,4,70,"E 10","Letter","N",TRUE,"CV","p",1040,"shuf","E","0","v","v",TRUE,1
"815","CVOE_C",2003,1,4,71,"I 52","Letter","N",TRUE,"CV","p",1042,"shuf","I","2","v","v",TRUE,1
"818","CVOE_C",2003,1,4,74,"U 19","Letter","Y",FALSE,"CV","q",1159,"shuf","U","9","v","c",FALSE,0
"821","CVOE_C",2003,1,4,77,"P 93","Letter","Y",TRUE,"CV","q",920,"shuf","P","3","c","c",TRUE,1
"822","CVOE_C",2003,1,4,78,"E 59","Letter","N",FALSE,"CV","q",1039,"shuf","E","9","v","c",FALSE,0
"823","CVOE_C",2003,1,4,79,"O 53","Letter","N",FALSE,"CV","q",674,"shuf","O","3","v","c",FALSE,0
"824","CVOE_C",2003,1,4,80,"A 96","Letter","N",TRUE,"CV","p",2699,"shuf","A","6","v","v",TRUE,1
"825","CVOE_C",2003,1,4,81,"H 36","Letter","Y",FALSE,"CV","p",4292,"shuf","H","6","c","v",FALSE,0
"826","CVOE_C",2003,1,4,82,"A 63","Letter","N",FALSE,"CV","q",878,"shuf","A","3","v","c",FALSE,0
"827","CVOE_C",2003,1,4,83,"I 38","Letter","N",TRUE,"CV","p",831,"shuf","I","8","v","v",TRUE,1
"830","CVOE_C",2003,1,4,86,"S 34","Letter","Y",FALSE,"CV","p",915,"shuf","S","4","c","v",FALSE,0
"833","CVOE_C",2003,1,4,89,"I 73","Letter","Y",FALSE,"CV","q",1663,"shuf","I","3","v","c",FALSE,0
"836","CVOE_C",2003,1,4,92,"P 72","Letter","Y",FALSE,"CV","p",1015,"shuf","P","2","c","v",FALSE,0
"838","CVOE_C",2003,1,4,94,"U 25","Letter","Y",FALSE,"CV","q",4298,"shuf","U","5","v","c",FALSE,0
"839","CVOE_C",2003,1,4,95,"O 32","Letter","N",TRUE,"CV","p",2508,"shuf","O","2","v","v",TRUE,1
"840","CVOE_C",2003,1,4,96,"E 80","Letter","N",TRUE,"CV","p",997,"shuf","E","0","v","v",TRUE,1
"844","CVOE_C",2003,1,4,100,"U 35","Letter","Y",FALSE,"CV","q",2038,"shuf","U","5","v","c",FALSE,0
"845","CVOE_C",2003,1,4,101,"H 14","Letter","N",FALSE,"CV","p",1450,"shuf","H","4","c","v",FALSE,0
"847","CVOE_C",2003,1,4,103,"E 36","Letter","Y",TRUE,"CV","p",1165,"shuf","E","6","v","v",TRUE,1
"848","CVOE_C",2003,1,4,104,"P 70","Letter","N",FALSE,"CV","p",1162,"shuf","P","0","c","v",FALSE,0
"850","CVOE_C",2003,1,4,106,"S 41","Letter","Y",TRUE,"CV","q",775,"shuf","S","1","c","c",TRUE,1
"851","CVOE_C",2003,1,4,107,"D 83","Letter","N",TRUE,"CV","q",996,"shuf","D","3","c","c",TRUE,1
"852","CVOE_C",2003,1,4,108,"J 39","Letter","N",TRUE,"CV","q",1072,"shuf","J","9","c","c",TRUE,1
"854","CVOE_C",2003,1,4,110,"D 89","Letter","Y",TRUE,"CV","q",1017,"shuf","D","9","c","c",TRUE,1
"855","CVOE_C",2003,1,4,111,"P 87","Letter","N",TRUE,"CV","q",1061,"shuf","P","7","c","c",TRUE,1
"856","CVOE_C",2003,1,4,112,"H 42","Letter","N",FALSE,"CV","p",1534,"shuf","H","2","c","v",FALSE,0
"857","CVOE_C",2003,1,4,113,"S 49","Letter","N",TRUE,"CV","q",941,"shuf","S","9","c","c",TRUE,1
"859","CVOE_C",2003,1,4,115,"O 19","Letter","Y",FALSE,"CV","q",2103,"shuf","O","9","v","c",FALSE,0
"860","CVOE_C",2003,1,4,116,"H 50","Letter","N",FALSE,"CV","p",927,"shuf","H","0","c","v",FALSE,0
"195","CVOE updated",1001,1,3,13,"E 75","Number","Y",FALSE,"OE","q",2554,"alt","E","5","o","o",TRUE,1
"196","CVOE updated",1001,1,3,14,"H 81","Number","N",TRUE,"OE","q",1177,"alt","H","1","o","o",TRUE,1
"199","CVOE updated",1001,1,3,17,"O 23","Number","Y",FALSE,"OE","q",1781,"alt","O","3","o","o",TRUE,1
"200","CVOE updated",1001,1,3,18,"P 05","Number","N",TRUE,"OE","q",1403,"alt","P","5","o","o",TRUE,1
"203","CVOE updated",1001,1,3,21,"A 70","Number","Y",TRUE,"OE","p",3851,"alt","A","0","e","e",TRUE,1
"204","CVOE updated",1001,1,3,22,"D 12","Number","N",FALSE,"OE","p",1694,"alt","D","2","e","e",TRUE,1
"207","CVOE updated",1001,1,3,25,"I 41","Number","Y",FALSE,"OE","q",1513,"alt","I","1","o","o",TRUE,1
"208","CVOE updated",1001,1,3,26,"J 63","Number","N",TRUE,"OE","q",2600,"alt","J","3","o","o",TRUE,1
"211","CVOE updated",1001,1,3,29,"S 61","Number","Y",TRUE,"OE","q",1557,"alt","S","1","o","o",TRUE,1
"212","CVOE updated",1001,1,3,30,"U 28","Number","N",TRUE,"OE","p",1731,"alt","U","8","e","e",TRUE,1
"215","CVOE updated",1001,1,3,33,"E 35","Number","Y",FALSE,"OE","q",1375,"alt","E","5","o","o",TRUE,1
"216","CVOE updated",1001,1,3,34,"H 62","Number","N",FALSE,"OE","p",1676,"alt","H","2","e","e",TRUE,1
"219","CVOE updated",1001,1,3,37,"O 12","Number","Y",TRUE,"OE","p",1371,"alt","O","2","e","e",TRUE,1
"220","CVOE updated",1001,1,3,38,"P 13","Number","N",TRUE,"OE","q",4352,"alt","P","3","o","o",TRUE,1
"223","CVOE updated",1001,1,3,41,"A 96","Number","Y",TRUE,"OE","p",2475,"alt","A","6","e","e",TRUE,1
"224","CVOE updated",1001,1,3,42,"D 04","Number","N",FALSE,"OE","p",1141,"alt","D","4","e","e",TRUE,1
"227","CVOE updated",1001,1,3,45,"I 64","Number","Y",TRUE,"OE","p",1307,"alt","I","4","e","e",TRUE,1
"228","CVOE updated",1001,1,3,46,"J 76","Number","N",FALSE,"OE","p",1668,"alt","J","6","e","e",TRUE,1
"231","CVOE updated",1001,1,3,49,"S 72","Number","Y",FALSE,"OE","p",1175,"alt","S","2","e","e",TRUE,1
"232","CVOE updated",1001,1,3,50,"U 47","Number","N",FALSE,"OE","q",1188,"alt","U","7","o","o",TRUE,1
"235","CVOE updated",1001,1,3,53,"E 40","Number","Y",TRUE,"OE","p",1744,"alt","E","0","e","e",TRUE,1
"236","CVOE updated",1001,1,3,54,"H 79","Number","N",TRUE,"OE","q",1182,"alt","H","9","o","o",TRUE,1
"239","CVOE updated",1001,1,3,57,"O 61","Number","Y",FALSE,"OE","q",2189,"alt","O","1","o","o",TRUE,1
"240","CVOE updated",1001,1,3,58,"P 58","Number","N",FALSE,"OE","p",2458,"alt","P","8","e","e",TRUE,1
"243","CVOE updated",1001,1,3,61,"A 17","Number","Y",FALSE,"OE","q",2023,"alt","A","7","o","o",TRUE,1
"244","CVOE updated",1001,1,3,62,"D 85","Number","N",TRUE,"OE","q",2467,"alt","D","5","o","o",TRUE,1
"247","CVOE updated",1001,1,3,65,"I 21","Number","Y",FALSE,"OE","q",2416,"alt","I","1","o","o",TRUE,1
"248","CVOE updated",1001,1,3,66,"J 29","Number","N",TRUE,"OE","q",1524,"alt","J","9","o","o",TRUE,1
"251","CVOE updated",1001,1,3,69,"S 72","Number","Y",FALSE,"OE","p",2014,"alt","S","2","e","e",TRUE,1
"252","CVOE updated",1001,1,3,70,"U 84","Number","N",TRUE,"OE","p",1722,"alt","U","4","e","e",TRUE,1
"255","CVOE updated",1001,1,3,73,"E 99","Number","Y",FALSE,"OE","q",1850,"alt","E","9","o","o",TRUE,1
"256","CVOE updated",1001,1,3,74,"H 16","Number","N",FALSE,"OE","p",2516,"alt","H","6","e","e",TRUE,1
"259","CVOE updated",1001,1,3,77,"O 22","Number","Y",TRUE,"OE","p",1940,"alt","O","2","e","e",TRUE,1
"260","CVOE updated",1001,1,3,78,"P 41","Number","N",TRUE,"OE","q",1883,"alt","P","1","o","o",TRUE,1
"263","CVOE updated",1001,1,3,81,"A 42","Number","Y",TRUE,"OE","p",2299,"alt","A","2","e","e",TRUE,1
"264","CVOE updated",1001,1,3,82,"D 85","Number","N",TRUE,"OE","q",2267,"alt","D","5","o","o",TRUE,1
"267","CVOE updated",1001,1,3,85,"I 70","Number","Y",TRUE,"OE","p",1902,"alt","I","0","e","e",TRUE,1
"268","CVOE updated",1001,1,3,86,"J 88","Number","N",FALSE,"OE","p",1206,"alt","J","8","e","e",TRUE,1
"271","CVOE updated",1001,1,3,89,"S 98","Number","Y",FALSE,"OE","p",2087,"alt","S","8","e","e",TRUE,1
"272","CVOE updated",1001,1,3,90,"U 37","Number","N",FALSE,"OE","p",1312,"alt","U","7","o","e",FALSE,0
"275","CVOE updated",1001,1,3,93,"E 93","Number","Y",FALSE,"OE","q",1912,"alt","E","3","o","o",TRUE,1
"276","CVOE updated",1001,1,3,94,"H 27","Number","N",TRUE,"OE","q",2696,"alt","H","7","o","o",TRUE,1
"279","CVOE updated",1001,1,3,97,"O 28","Number","Y",TRUE,"OE","p",1781,"alt","O","8","e","e",TRUE,1
"280","CVOE updated",1001,1,3,98,"P 59","Number","N",TRUE,"OE","p",1419,"alt","P","9","o","e",FALSE,0
"283","CVOE updated",1001,1,3,101,"A 56","Number","Y",TRUE,"OE","p",3279,"alt","A","6","e","e",TRUE,1
"284","CVOE updated",1001,1,3,102,"D 01","Number","N",TRUE,"OE","q",3721,"alt","D","1","o","o",TRUE,1
"287","CVOE updated",1001,1,3,105,"I 05","Number","Y",FALSE,"OE","q",2018,"alt","I","5","o","o",TRUE,1
"288","CVOE updated",1001,1,3,106,"J 55","Number","N",TRUE,"OE","q",1438,"alt","J","5","o","o",TRUE,1
"291","CVOE updated",1001,1,3,109,"S 92","Number","Y",FALSE,"OE","p",2043,"alt","S","2","e","e",TRUE,1
"292","CVOE updated",1001,1,3,110,"U 34","Number","N",TRUE,"OE","p",1477,"alt","U","4","e","e",TRUE,1
"295","CVOE updated",1001,1,3,113,"E 48","Number","Y",TRUE,"OE","p",2221,"alt","E","8","e","e",TRUE,1
"296","CVOE updated",1001,1,3,114,"H 76","Number","N",FALSE,"OE","p",1801,"alt","H","6","e","e",TRUE,1
"299","CVOE updated",1001,1,3,117,"O 48","Number","Y",TRUE,"OE","p",1607,"alt","O","8","e","e",TRUE,1
"300","CVOE updated",1001,1,3,118,"P 22","Number","N",FALSE,"OE","p",1308,"alt","P","2","e","e",TRUE,1
"303","CVOE updated",1001,1,3,121,"A 91","Number","Y",FALSE,"OE","q",2015,"alt","A","1","o","o",TRUE,1
"304","CVOE updated",1001,1,3,122,"D 78","Number","N",FALSE,"OE","p",3218,"alt","D","8","e","e",TRUE,1
"307","CVOE updated",1001,1,3,125,"I 65","Number","Y",FALSE,"OE","q",1597,"alt","I","5","o","o",TRUE,1
"308","CVOE updated",1001,1,3,126,"J 52","Number","N",FALSE,"OE","p",1922,"alt","J","2","e","e",TRUE,1
"311","CVOE updated",1001,1,3,129,"S 45","Number","Y",TRUE,"OE","q",1823,"alt","S","5","o","o",TRUE,1
"312","CVOE updated",1001,1,3,130,"U 26","Number","N",TRUE,"OE","p",1227,"alt","U","6","e","e",TRUE,1
"313","CVOE updated",1001,1,4,1,"U 38","Number","N",TRUE,"OE","p",6435,"shuf","U","8","e","e",TRUE,1
"314","CVOE updated",1001,1,4,2,"P 73","Number","N",TRUE,"OE","q",2449,"shuf","P","3","o","o",TRUE,1
"316","CVOE updated",1001,1,4,4,"J 61","Number","Y",TRUE,"OE","q",1933,"shuf","J","1","o","o",TRUE,1
"317","CVOE updated",1001,1,4,5,"D 51","Number","N",TRUE,"OE","q",3109,"shuf","D","1","o","o",TRUE,1
"318","CVOE updated",1001,1,4,6,"S 28","Number","N",FALSE,"OE","p",2165,"shuf","S","8","e","e",TRUE,1
"322","CVOE updated",1001,1,4,10,"E 05","Number","Y",FALSE,"OE","q",2050,"shuf","E","5","o","o",TRUE,1
"324","CVOE updated",1001,1,4,12,"D 88","Number","Y",FALSE,"OE","p",1571,"shuf","D","8","e","e",TRUE,1
"326","CVOE updated",1001,1,4,14,"U 43","Number","Y",FALSE,"OE","q",3347,"shuf","U","3","o","o",TRUE,1
"327","CVOE updated",1001,1,4,15,"H 10","Number","N",FALSE,"OE","p",1819,"shuf","H","0","e","e",TRUE,1
"330","CVOE updated",1001,1,4,18,"H 54","Number","Y",FALSE,"OE","p",1618,"shuf","H","4","e","e",TRUE,1
"331","CVOE updated",1001,1,4,19,"E 99","Number","N",FALSE,"OE","q",1654,"shuf","E","9","o","o",TRUE,1
"335","CVOE updated",1001,1,4,23,"H 79","Number","Y",TRUE,"OE","q",1738,"shuf","H","9","o","o",TRUE,1
"336","CVOE updated",1001,1,4,24,"J 60","Number","N",FALSE,"OE","p",2081,"shuf","J","0","e","e",TRUE,1
"338","CVOE updated",1001,1,4,26,"P 11","Number","Y",TRUE,"OE","q",1499,"shuf","P","1","o","o",TRUE,1
"339","CVOE updated",1001,1,4,27,"D 39","Number","N",TRUE,"OE","q",1171,"shuf","D","9","o","o",TRUE,1
"340","CVOE updated",1001,1,4,28,"E 90","Number","N",TRUE,"OE","p",1233,"shuf","E","0","e","e",TRUE,1
"341","CVOE updated",1001,1,4,29,"I 38","Number","N",TRUE,"OE","p",1051,"shuf","I","8","e","e",TRUE,1
"343","CVOE updated",1001,1,4,31,"D 41","Number","Y",TRUE,"OE","q",2226,"shuf","D","1","o","o",TRUE,1
"344","CVOE updated",1001,1,4,32,"E 06","Number","N",TRUE,"OE","p",2326,"shuf","E","6","e","e",TRUE,1
"345","CVOE updated",1001,1,4,33,"A 27","Number","N",FALSE,"OE","q",2749,"shuf","A","7","o","o",TRUE,1
"349","CVOE updated",1001,1,4,37,"P 05","Number","Y",TRUE,"OE","q",2747,"shuf","P","5","o","o",TRUE,1
"351","CVOE updated",1001,1,4,39,"I 96","Number","Y",TRUE,"OE","p",1900,"shuf","I","6","e","e",TRUE,1
"352","CVOE updated",1001,1,4,40,"A 88","Number","N",TRUE,"OE","p",1437,"shuf","A","8","e","e",TRUE,1
"353","CVOE updated",1001,1,4,41,"I 67","Number","N",FALSE,"OE","q",1352,"shuf","I","7","o","o",TRUE,1
"354","CVOE updated",1001,1,4,42,"D 40","Number","N",FALSE,"OE","p",1390,"shuf","D","0","e","e",TRUE,1
"356","CVOE updated",1001,1,4,44,"U 24","Number","Y",TRUE,"OE","p",3958,"shuf","U","4","e","e",TRUE,1
"357","CVOE updated",1001,1,4,45,"P 74","Number","N",FALSE,"OE","p",3117,"shuf","P","4","e","e",TRUE,1
"358","CVOE updated",1001,1,4,46,"E 70","Number","N",TRUE,"OE","p",1149,"shuf","E","0","e","e",TRUE,1
"359","CVOE updated",1001,1,4,47,"S 27","Number","N",TRUE,"OE","q",1108,"shuf","S","7","o","o",TRUE,1
"363","CVOE updated",1001,1,4,51,"D 74","Number","Y",FALSE,"OE","p",2525,"shuf","D","4","e","e",TRUE,1
"365","CVOE updated",1001,1,4,53,"E 24","Number","Y",TRUE,"OE","p",2181,"shuf","E","4","e","e",TRUE,1
"367","CVOE updated",1001,1,4,55,"D 77","Number","Y",TRUE,"OE","q",1864,"shuf","D","7","o","o",TRUE,1
"368","CVOE updated",1001,1,4,56,"S 75","Number","N",TRUE,"OE","q",1586,"shuf","S","5","o","o",TRUE,1
"371","CVOE updated",1001,1,4,59,"A 38","Number","Y",TRUE,"OE","p",1927,"shuf","A","8","e","e",TRUE,1
"373","CVOE updated",1001,1,4,61,"S 51","Number","Y",TRUE,"OE","q",1880,"shuf","S","1","o","o",TRUE,1
"377","CVOE updated",1001,1,4,65,"O 15","Number","Y",FALSE,"OE","q",1204,"shuf","O","5","o","o",TRUE,1
"379","CVOE updated",1001,1,4,67,"U 97","Number","Y",FALSE,"OE","q",1222,"shuf","U","7","o","o",TRUE,1
"380","CVOE updated",1001,1,4,68,"H 03","Number","N",TRUE,"OE","q",1170,"shuf","H","3","o","o",TRUE,1
"384","CVOE updated",1001,1,4,72,"H 81","Number","Y",TRUE,"OE","q",1936,"shuf","H","1","o","o",TRUE,1
"385","CVOE updated",1001,1,4,73,"I 41","Number","N",FALSE,"OE","q",1488,"shuf","I","1","o","o",TRUE,1
"387","CVOE updated",1001,1,4,75,"O 17","Number","Y",FALSE,"OE","q",2126,"shuf","O","7","o","o",TRUE,1
"388","CVOE updated",1001,1,4,76,"A 10","Number","N",TRUE,"OE","p",2710,"shuf","A","0","e","e",TRUE,1
"396","CVOE updated",1001,1,4,84,"O 51","Number","Y",FALSE,"OE","q",1556,"shuf","O","1","o","o",TRUE,1
"397","CVOE updated",1001,1,4,85,"J 26","Number","N",FALSE,"OE","p",1666,"shuf","J","6","e","e",TRUE,1
"399","CVOE updated",1001,1,4,87,"U 85","Number","Y",FALSE,"OE","q",1289,"shuf","U","5","o","o",TRUE,1
"400","CVOE updated",1001,1,4,88,"J 77","Number","N",TRUE,"OE","q",1138,"shuf","J","7","o","o",TRUE,1
"402","CVOE updated",1001,1,4,90,"H 46","Number","Y",FALSE,"OE","p",2846,"shuf","H","6","e","e",TRUE,1
"403","CVOE updated",1001,1,4,91,"D 04","Number","N",FALSE,"OE","p",3489,"shuf","D","4","e","e",TRUE,1
"405","CVOE updated",1001,1,4,93,"D 99","Number","Y",TRUE,"OE","q",1821,"shuf","D","9","o","o",TRUE,1
"409","CVOE updated",1001,1,4,97,"O 84","Number","Y",TRUE,"OE","p",1784,"shuf","O","4","e","e",TRUE,1
"410","CVOE updated",1001,1,4,98,"A 78","Number","N",TRUE,"OE","p",1590,"shuf","A","8","e","e",TRUE,1
"411","CVOE updated",1001,1,4,99,"S 05","Number","N",TRUE,"OE","q",1323,"shuf","S","5","o","o",TRUE,1
"414","CVOE updated",1001,1,4,102,"U 15","Number","Y",FALSE,"OE","q",3974,"shuf","U","5","o","o",TRUE,1
"417","CVOE updated",1001,1,4,105,"O 44","Number","Y",TRUE,"OE","p",3953,"shuf","O","4","e","e",TRUE,1
"421","CVOE updated",1001,1,4,109,"S 22","Number","Y",FALSE,"OE","p",1739,"shuf","S","2","e","e",TRUE,1
"426","CVOE updated",1001,1,4,114,"J 20","Number","Y",FALSE,"OE","p",1906,"shuf","J","0","e","e",TRUE,1
"429","CVOE updated",1001,1,4,117,"I 68","Number","Y",TRUE,"OE","p",3350,"shuf","I","8","e","e",TRUE,1
"430","CVOE updated",1001,1,4,118,"J 72","Number","N",FALSE,"OE","p",1222,"shuf","J","2","e","e",TRUE,1
"431","CVOE updated",1001,1,4,119,"O 21","Number","N",FALSE,"OE","q",1353,"shuf","O","1","o","o",TRUE,1
"432","CVOE updated",1001,1,4,120,"H 22","Number","N",FALSE,"OE","p",1040,"shuf","H","2","e","e",TRUE,1
"627","CVOE_C",2003,1,3,13,"E 75","Number","Y",FALSE,"OE","p",5802,"alt","E","5","o","e",FALSE,0
"628","CVOE_C",2003,1,3,14,"H 81","Number","N",TRUE,"OE","q",3465,"alt","H","1","o","o",TRUE,1
"631","CVOE_C",2003,1,3,17,"O 23","Number","Y",FALSE,"OE","p",3105,"alt","O","3","o","e",FALSE,0
"632","CVOE_C",2003,1,3,18,"P 05","Number","N",TRUE,"OE","q",4858,"alt","P","5","o","o",TRUE,1
"635","CVOE_C",2003,1,3,21,"A 70","Number","Y",TRUE,"OE","p",1377,"alt","A","0","e","e",TRUE,1
"636","CVOE_C",2003,1,3,22,"D 12","Number","N",FALSE,"OE","q",1782,"alt","D","2","e","o",FALSE,0
"639","CVOE_C",2003,1,3,25,"I 41","Number","Y",FALSE,"OE","p",1946,"alt","I","1","o","e",FALSE,0
"640","CVOE_C",2003,1,3,26,"J 63","Number","N",TRUE,"OE","q",1073,"alt","J","3","o","o",TRUE,1
"643","CVOE_C",2003,1,3,29,"S 61","Number","Y",TRUE,"OE","q",1625,"alt","S","1","o","o",TRUE,1
"644","CVOE_C",2003,1,3,30,"U 28","Number","N",TRUE,"OE","p",2868,"alt","U","8","e","e",TRUE,1
"647","CVOE_C",2003,1,3,33,"E 35","Number","Y",FALSE,"OE","p",2319,"alt","E","5","o","e",FALSE,0
"648","CVOE_C",2003,1,3,34,"H 62","Number","N",FALSE,"OE","q",1287,"alt","H","2","e","o",FALSE,0
"651","CVOE_C",2003,1,3,37,"O 12","Number","Y",TRUE,"OE","p",1526,"alt","O","2","e","e",TRUE,1
"652","CVOE_C",2003,1,3,38,"P 13","Number","N",TRUE,"OE","q",1381,"alt","P","3","o","o",TRUE,1
"655","CVOE_C",2003,1,3,41,"A 96","Number","Y",TRUE,"OE","p",1234,"alt","A","6","e","e",TRUE,1
"656","CVOE_C",2003,1,3,42,"D 04","Number","N",FALSE,"OE","q",1309,"alt","D","4","e","o",FALSE,0
"659","CVOE_C",2003,1,3,45,"I 64","Number","Y",TRUE,"OE","p",1434,"alt","I","4","e","e",TRUE,1
"660","CVOE_C",2003,1,3,46,"J 76","Number","N",FALSE,"OE","q",1933,"alt","J","6","e","o",FALSE,0
"663","CVOE_C",2003,1,3,49,"S 72","Number","Y",FALSE,"OE","q",1620,"alt","S","2","e","o",FALSE,0
"664","CVOE_C",2003,1,3,50,"U 47","Number","N",FALSE,"OE","p",1392,"alt","U","7","o","e",FALSE,0
"667","CVOE_C",2003,1,3,53,"E 40","Number","Y",TRUE,"OE","p",2144,"alt","E","0","e","e",TRUE,1
"668","CVOE_C",2003,1,3,54,"H 79","Number","N",TRUE,"OE","q",1119,"alt","H","9","o","o",TRUE,1
"671","CVOE_C",2003,1,3,57,"O 61","Number","Y",FALSE,"OE","p",3151,"alt","O","1","o","e",FALSE,0
"672","CVOE_C",2003,1,3,58,"P 58","Number","N",FALSE,"OE","p",1766,"alt","P","8","e","e",TRUE,1
"675","CVOE_C",2003,1,3,61,"A 17","Number","Y",FALSE,"OE","p",1089,"alt","A","7","o","e",FALSE,0
"676","CVOE_C",2003,1,3,62,"D 85","Number","N",TRUE,"OE","q",1242,"alt","D","5","o","o",TRUE,1
"679","CVOE_C",2003,1,3,65,"I 21","Number","Y",FALSE,"OE","p",1474,"alt","I","1","o","e",FALSE,0
"680","CVOE_C",2003,1,3,66,"J 29","Number","N",TRUE,"OE","q",1148,"alt","J","9","o","o",TRUE,1
"683","CVOE_C",2003,1,3,69,"S 72","Number","Y",FALSE,"OE","q",1936,"alt","S","2","e","o",FALSE,0
"684","CVOE_C",2003,1,3,70,"U 84","Number","N",TRUE,"OE","p",823,"alt","U","4","e","e",TRUE,1
"687","CVOE_C",2003,1,3,73,"E 99","Number","Y",FALSE,"OE","p",1441,"alt","E","9","o","e",FALSE,0
"688","CVOE_C",2003,1,3,74,"H 16","Number","N",FALSE,"OE","q",852,"alt","H","6","e","o",FALSE,0
"691","CVOE_C",2003,1,3,77,"O 22","Number","Y",TRUE,"OE","p",1724,"alt","O","2","e","e",TRUE,1
"692","CVOE_C",2003,1,3,78,"P 41","Number","N",TRUE,"OE","q",1748,"alt","P","1","o","o",TRUE,1
"695","CVOE_C",2003,1,3,81,"A 42","Number","Y",TRUE,"OE","p",1113,"alt","A","2","e","e",TRUE,1
"696","CVOE_C",2003,1,3,82,"D 85","Number","N",TRUE,"OE","q",1168,"alt","D","5","o","o",TRUE,1
"699","CVOE_C",2003,1,3,85,"I 70","Number","Y",TRUE,"OE","p",828,"alt","I","0","e","e",TRUE,1
"700","CVOE_C",2003,1,3,86,"J 88","Number","N",FALSE,"OE","q",1967,"alt","J","8","e","o",FALSE,0
"703","CVOE_C",2003,1,3,89,"S 98","Number","Y",FALSE,"OE","q",1548,"alt","S","8","e","o",FALSE,0
"704","CVOE_C",2003,1,3,90,"U 37","Number","N",FALSE,"OE","p",986,"alt","U","7","o","e",FALSE,0
"707","CVOE_C",2003,1,3,93,"E 93","Number","Y",FALSE,"OE","p",1309,"alt","E","3","o","e",FALSE,0
"708","CVOE_C",2003,1,3,94,"H 27","Number","N",TRUE,"OE","q",1284,"alt","H","7","o","o",TRUE,1
"711","CVOE_C",2003,1,3,97,"O 28","Number","Y",TRUE,"OE","p",1120,"alt","O","8","e","e",TRUE,1
"712","CVOE_C",2003,1,3,98,"P 59","Number","N",TRUE,"OE","q",1639,"alt","P","9","o","o",TRUE,1
"715","CVOE_C",2003,1,3,101,"A 56","Number","Y",TRUE,"OE","p",1100,"alt","A","6","e","e",TRUE,1
"716","CVOE_C",2003,1,3,102,"D 01","Number","N",TRUE,"OE","q",1365,"alt","D","1","o","o",TRUE,1
"719","CVOE_C",2003,1,3,105,"I 05","Number","Y",FALSE,"OE","p",1115,"alt","I","5","o","e",FALSE,0
"720","CVOE_C",2003,1,3,106,"J 55","Number","N",TRUE,"OE","q",1282,"alt","J","5","o","o",TRUE,1
"723","CVOE_C",2003,1,3,109,"S 92","Number","Y",FALSE,"OE","q",1099,"alt","S","2","e","o",FALSE,0
"724","CVOE_C",2003,1,3,110,"U 34","Number","N",TRUE,"OE","p",747,"alt","U","4","e","e",TRUE,1
"727","CVOE_C",2003,1,3,113,"E 48","Number","Y",TRUE,"OE","p",1203,"alt","E","8","e","e",TRUE,1
"728","CVOE_C",2003,1,3,114,"H 76","Number","N",FALSE,"OE","q",960,"alt","H","6","e","o",FALSE,0
"731","CVOE_C",2003,1,3,117,"O 48","Number","Y",TRUE,"OE","p",958,"alt","O","8","e","e",TRUE,1
"732","CVOE_C",2003,1,3,118,"P 22","Number","N",FALSE,"OE","q",1180,"alt","P","2","e","o",FALSE,0
"735","CVOE_C",2003,1,3,121,"A 91","Number","Y",FALSE,"OE","p",1623,"alt","A","1","o","e",FALSE,0
"736","CVOE_C",2003,1,3,122,"D 78","Number","N",FALSE,"OE","q",1187,"alt","D","8","e","o",FALSE,0
"739","CVOE_C",2003,1,3,125,"I 65","Number","Y",FALSE,"OE","p",816,"alt","I","5","o","e",FALSE,0
"740","CVOE_C",2003,1,3,126,"J 52","Number","N",FALSE,"OE","q",1420,"alt","J","2","e","o",FALSE,0
"743","CVOE_C",2003,1,3,129,"S 45","Number","Y",TRUE,"OE","q",1449,"alt","S","5","o","o",TRUE,1
"744","CVOE_C",2003,1,3,130,"U 26","Number","N",TRUE,"OE","p",939,"alt","U","6","e","e",TRUE,1
"745","CVOE_C",2003,1,4,1,"U 38","Number","N",TRUE,"OE","p",47351,"shuf","U","8","e","e",TRUE,1
"746","CVOE_C",2003,1,4,2,"P 73","Number","N",TRUE,"OE","q",2445,"shuf","P","3","o","o",TRUE,1
"748","CVOE_C",2003,1,4,4,"J 61","Number","Y",TRUE,"OE","q",1277,"shuf","J","1","o","o",TRUE,1
"749","CVOE_C",2003,1,4,5,"D 51","Number","N",TRUE,"OE","q",1342,"shuf","D","1","o","o",TRUE,1
"750","CVOE_C",2003,1,4,6,"S 28","Number","N",FALSE,"OE","p",860,"shuf","S","8","e","e",TRUE,1
"754","CVOE_C",2003,1,4,10,"E 05","Number","Y",FALSE,"OE","q",1711,"shuf","E","5","o","o",TRUE,1
"756","CVOE_C",2003,1,4,12,"D 88","Number","Y",FALSE,"OE","p",1211,"shuf","D","8","e","e",TRUE,1
"758","CVOE_C",2003,1,4,14,"U 43","Number","Y",FALSE,"OE","q",1191,"shuf","U","3","o","o",TRUE,1
"759","CVOE_C",2003,1,4,15,"H 10","Number","N",FALSE,"OE","p",996,"shuf","H","0","e","e",TRUE,1
"762","CVOE_C",2003,1,4,18,"H 54","Number","Y",FALSE,"OE","p",3712,"shuf","H","4","e","e",TRUE,1
"763","CVOE_C",2003,1,4,19,"E 99","Number","N",FALSE,"OE","q",993,"shuf","E","9","o","o",TRUE,1
"767","CVOE_C",2003,1,4,23,"H 79","Number","Y",TRUE,"OE","q",1433,"shuf","H","9","o","o",TRUE,1
"768","CVOE_C",2003,1,4,24,"J 60","Number","N",FALSE,"OE","p",796,"shuf","J","0","e","e",TRUE,1
"770","CVOE_C",2003,1,4,26,"P 11","Number","Y",TRUE,"OE","q",706,"shuf","P","1","o","o",TRUE,1
"771","CVOE_C",2003,1,4,27,"D 39","Number","N",TRUE,"OE","q",1634,"shuf","D","9","o","o",TRUE,1
"772","CVOE_C",2003,1,4,28,"E 90","Number","N",TRUE,"OE","p",1077,"shuf","E","0","e","e",TRUE,1
"773","CVOE_C",2003,1,4,29,"I 38","Number","N",TRUE,"OE","p",854,"shuf","I","8","e","e",TRUE,1
"775","CVOE_C",2003,1,4,31,"D 41","Number","Y",TRUE,"OE","q",1023,"shuf","D","1","o","o",TRUE,1
"776","CVOE_C",2003,1,4,32,"E 06","Number","N",TRUE,"OE","p",922,"shuf","E","6","e","e",TRUE,1
"777","CVOE_C",2003,1,4,33,"A 27","Number","N",FALSE,"OE","q",1362,"shuf","A","7","o","o",TRUE,1
"781","CVOE_C",2003,1,4,37,"P 05","Number","Y",TRUE,"OE","q",1156,"shuf","P","5","o","o",TRUE,1
"783","CVOE_C",2003,1,4,39,"I 96","Number","Y",TRUE,"OE","p",1037,"shuf","I","6","e","e",TRUE,1
"784","CVOE_C",2003,1,4,40,"A 88","Number","N",TRUE,"OE","p",1047,"shuf","A","8","e","e",TRUE,1
"785","CVOE_C",2003,1,4,41,"I 67","Number","N",FALSE,"OE","q",1026,"shuf","I","7","o","o",TRUE,1
"786","CVOE_C",2003,1,4,42,"D 40","Number","N",FALSE,"OE","p",1532,"shuf","D","0","e","e",TRUE,1
"788","CVOE_C",2003,1,4,44,"U 24","Number","Y",TRUE,"OE","p",1417,"shuf","U","4","e","e",TRUE,1
"789","CVOE_C",2003,1,4,45,"P 74","Number","N",FALSE,"OE","p",4004,"shuf","P","4","e","e",TRUE,1
"790","CVOE_C",2003,1,4,46,"E 70","Number","N",TRUE,"OE","p",954,"shuf","E","0","e","e",TRUE,1
"791","CVOE_C",2003,1,4,47,"S 27","Number","N",TRUE,"OE","q",1048,"shuf","S","7","o","o",TRUE,1
"795","CVOE_C",2003,1,4,51,"D 74","Number","Y",FALSE,"OE","p",2715,"shuf","D","4","e","e",TRUE,1
"797","CVOE_C",2003,1,4,53,"E 24","Number","Y",TRUE,"OE","p",888,"shuf","E","4","e","e",TRUE,1
"799","CVOE_C",2003,1,4,55,"D 77","Number","Y",TRUE,"OE","q",877,"shuf","D","7","o","o",TRUE,1
"800","CVOE_C",2003,1,4,56,"S 75","Number","N",TRUE,"OE","q",1230,"shuf","S","5","o","o",TRUE,1
"803","CVOE_C",2003,1,4,59,"A 38","Number","Y",TRUE,"OE","p",1750,"shuf","A","8","e","e",TRUE,1
"805","CVOE_C",2003,1,4,61,"S 51","Number","Y",TRUE,"OE","q",683,"shuf","S","1","o","o",TRUE,1
"809","CVOE_C",2003,1,4,65,"O 15","Number","Y",FALSE,"OE","q",1484,"shuf","O","5","o","o",TRUE,1
"811","CVOE_C",2003,1,4,67,"U 97","Number","Y",FALSE,"OE","q",1557,"shuf","U","7","o","o",TRUE,1
"812","CVOE_C",2003,1,4,68,"H 03","Number","N",TRUE,"OE","q",867,"shuf","H","3","o","o",TRUE,1
"816","CVOE_C",2003,1,4,72,"H 81","Number","Y",TRUE,"OE","q",3805,"shuf","H","1","o","o",TRUE,1
"817","CVOE_C",2003,1,4,73,"I 41","Number","N",FALSE,"OE","q",986,"shuf","I","1","o","o",TRUE,1
"819","CVOE_C",2003,1,4,75,"O 17","Number","Y",FALSE,"OE","q",957,"shuf","O","7","o","o",TRUE,1
"820","CVOE_C",2003,1,4,76,"A 10","Number","N",TRUE,"OE","p",787,"shuf","A","0","e","e",TRUE,1
"828","CVOE_C",2003,1,4,84,"O 51","Number","Y",FALSE,"OE","q",882,"shuf","O","1","o","o",TRUE,1
"829","CVOE_C",2003,1,4,85,"J 26","Number","N",FALSE,"OE","p",1082,"shuf","J","6","e","e",TRUE,1
"831","CVOE_C",2003,1,4,87,"U 85","Number","Y",FALSE,"OE","q",835,"shuf","U","5","o","o",TRUE,1
"832","CVOE_C",2003,1,4,88,"J 77","Number","N",TRUE,"OE","q",870,"shuf","J","7","o","o",TRUE,1
"834","CVOE_C",2003,1,4,90,"H 46","Number","Y",FALSE,"OE","p",1665,"shuf","H","6","e","e",TRUE,1
"835","CVOE_C",2003,1,4,91,"D 04","Number","N",FALSE,"OE","p",1003,"shuf","D","4","e","e",TRUE,1
"837","CVOE_C",2003,1,4,93,"D 99","Number","Y",TRUE,"OE","q",898,"shuf","D","9","o","o",TRUE,1
"841","CVOE_C",2003,1,4,97,"O 84","Number","Y",TRUE,"OE","p",793,"shuf","O","4","e","e",TRUE,1
"842","CVOE_C",2003,1,4,98,"A 78","Number","N",TRUE,"OE","q",3693,"shuf","A","8","e","o",FALSE,0
"843","CVOE_C",2003,1,4,99,"S 05","Number","N",TRUE,"OE","q",1111,"shuf","S","5","o","o",TRUE,1
"846","CVOE_C",2003,1,4,102,"U 15","Number","Y",FALSE,"OE","q",1892,"shuf","U","5","o","o",TRUE,1
"849","CVOE_C",2003,1,4,105,"O 44","Number","Y",TRUE,"OE","p",920,"shuf","O","4","e","e",TRUE,1
"853","CVOE_C",2003,1,4,109,"S 22","Number","Y",FALSE,"OE","p",922,"shuf","S","2","e","e",TRUE,1
"858","CVOE_C",2003,1,4,114,"J 20","Number","Y",FALSE,"OE","p",828,"shuf","J","0","e","e",TRUE,1
"861","CVOE_C",2003,1,4,117,"I 68","Number","Y",TRUE,"OE","p",1022,"shuf","I","8","e","e",TRUE,1
"862","CVOE_C",2003,1,4,118,"J 72","Number","N",FALSE,"OE","p",3746,"shuf","J","2","e","e",TRUE,1
"863","CVOE_C",2003,1,4,119,"O 21","Number","N",FALSE,"OE","q",889,"shuf","O","1","o","o",TRUE,1
"864","CVOE_C",2003,1,4,120,"H 22","Number","N",FALSE,"OE","p",1106,"shuf","H","2","e","e",TRUE,1
