"ExperimentName","Subject","Group","Block","Trial","STIM","TASK","Switch","Congruent","CVOE","Response","RT","block_type","letter","number","key2","response2","match2","score2","zRT"
"CVOE updated",1001,1,1,11,"A 71","","",FALSE,"CV","p",4811,"cv","A",1,"v","v",TRUE,1,1.16187433166619
"CVOE updated",1001,1,1,12,"I 66","","",TRUE,"CV","p",1960,"cv","I",6,"v","v",TRUE,1,0.00629472406320106
"CVOE updated",1001,1,1,13,"S 30","","",FALSE,"CV","q",918,"cv","S",0,"c","c",TRUE,1,-0.416053206881139
"CVOE updated",1001,1,1,14,"D 20","","",FALSE,"CV","q",790,"cv","D",0,"c","c",TRUE,1,-0.467934718551844
"CVOE updated",1001,1,1,15,"I 31","","",FALSE,"CV","p",874,"cv","I",1,"v","v",TRUE,1,-0.433887476517944
"CVOE updated",1001,1,1,16,"P 16","","",FALSE,"CV","q",700,"cv","P",6,"c","c",TRUE,1,-0.504413906445309
"CVOE updated",1001,1,1,17,"A 49","","",FALSE,"CV","p",1100,"cv","A",9,"v","v",TRUE,1,-0.342284182474354
"CVOE updated",1001,1,1,18,"O 64","","",TRUE,"CV","p",1100,"cv","O",4,"v","v",TRUE,1,-0.342284182474354
"CVOE updated",1001,1,1,19,"D 02","","",FALSE,"CV","q",892,"cv","D",2,"c","c",TRUE,1,-0.426591638939251
"CVOE updated",1001,1,1,20,"P 81","","",TRUE,"CV","q",1116,"cv","P",1,"c","c",TRUE,1,-0.335798993515516
"CVOE updated",1001,1,1,21,"J 58","","",FALSE,"CV","q",828,"cv","J",8,"c","c",TRUE,1,-0.452532394774604
"CVOE updated",1001,1,1,22,"A 22","","",TRUE,"CV","p",679,"cv","A",2,"v","v",TRUE,1,-0.512925716953785
"CVOE updated",1001,1,1,23,"J 72","","",FALSE,"CV","q",999,"cv","J",2,"c","c",TRUE,1,-0.38322193777702
"CVOE updated",1001,1,1,24,"P 91","","",TRUE,"CV","q",1027,"cv","P",1,"c","c",TRUE,1,-0.371872857099053
"CVOE updated",1001,1,1,25,"E 19","","",FALSE,"CV","p",622,"cv","E",9,"v","v",TRUE,1,-0.536029202619646
"CVOE updated",1001,1,1,26,"I 30","","",TRUE,"CV","p",618,"cv","I",0,"v","v",TRUE,1,-0.537650499859355
"CVOE updated",1001,1,1,27,"D 91","","",TRUE,"CV","q",717,"cv","D",1,"c","c",TRUE,1,-0.497523393176544
"CVOE updated",1001,1,1,28,"O 48","","",TRUE,"CV","p",636,"cv","O",8,"v","v",TRUE,1,-0.530354662280662
"CVOE updated",1001,1,1,29,"A 89","","",FALSE,"CV","p",1127,"cv","A",9,"v","v",TRUE,1,-0.331340426106314
"CVOE updated",1001,1,1,30,"U 11","","",FALSE,"CV","p",886,"cv","U",1,"v","v",TRUE,1,-0.429023584798815
"CVOE updated",1001,1,1,31,"I 76","","",TRUE,"CV","p",726,"cv","I",6,"v","v",TRUE,1,-0.493875474387197
"CVOE updated",1001,1,1,32,"U 89","","",FALSE,"CV","p",669,"cv","U",9,"v","v",TRUE,1,-0.516978960053059
"CVOE updated",1001,1,1,33,"D 63","","",TRUE,"CV","q",758,"cv","D",3,"c","c",TRUE,1,-0.480905096469521
"CVOE updated",1001,1,1,34,"H 70","","",FALSE,"CV","q",1052,"cv","H",0,"c","c",TRUE,1,-0.361739749350868
"CVOE updated",1001,1,1,35,"D 48","","",FALSE,"CV","q",591,"cv","D",8,"c","c",TRUE,1,-0.548594256227395
"CVOE updated",1001,1,1,36,"P 56","","",FALSE,"CV","q",635,"cv","P",6,"c","c",TRUE,1,-0.53075998659059
"CVOE updated",1001,1,1,37,"O 77","","",FALSE,"CV","p",645,"cv","O",7,"v","v",TRUE,1,-0.526706743491316
"CVOE updated",1001,1,1,38,"P 42","","",FALSE,"CV","q",776,"cv","P",2,"c","c",TRUE,1,-0.473609258890828
"CVOE updated",1001,1,1,39,"H 22","","",FALSE,"CV","q",668,"cv","H",2,"c","c",TRUE,1,-0.517384284362986
"CVOE updated",1001,1,1,40,"E 42","","",TRUE,"CV","p",574,"cv","E",2,"v","v",TRUE,1,-0.55548476949616
"CVOE updated",1001,1,1,41,"J 28","","",FALSE,"CV","q",690,"cv","J",8,"c","c",TRUE,1,-0.508467149544583
"CVOE updated",1001,1,1,42,"E 95","","",FALSE,"CV","p",787,"cv","E",5,"v","v",TRUE,1,-0.469150691481627
"CVOE updated",1001,1,1,43,"S 63","","",TRUE,"CV","q",1031,"cv","S",3,"c","c",TRUE,1,-0.370251559859344
"CVOE updated",1001,1,1,44,"H 50","","",FALSE,"CV","q",602,"cv","H",0,"c","c",TRUE,1,-0.544135688818194
"CVOE updated",1001,1,1,45,"S 33","","",TRUE,"CV","q",646,"cv","S",3,"c","c",TRUE,1,-0.526301419181388
"CVOE updated",1001,1,1,46,"P 57","","",TRUE,"CV","q",632,"cv","P",7,"c","c",TRUE,1,-0.531975959520372
"CVOE updated",1001,1,1,47,"E 23","","",FALSE,"CV","p",699,"cv","E",3,"v","v",TRUE,1,-0.504819230755237
"CVOE updated",1001,1,1,48,"S 61","","",TRUE,"CV","q",763,"cv","S",1,"c","c",TRUE,1,-0.478878474919884
"CVOE updated",1001,1,1,49,"U 67","","",FALSE,"CV","p",560,"cv","U",7,"v","v",TRUE,1,-0.561159309835144
"CVOE updated",1001,1,1,50,"H 32","","",FALSE,"CV","q",685,"cv","H",2,"c","c",TRUE,1,-0.51049377109422
"CVOE updated",1001,1,1,51,"U 50","","",TRUE,"CV","p",502,"cv","U",0,"v","v",TRUE,1,-0.584668119810932
"CVOE updated",1001,1,1,52,"O 49","","",FALSE,"CV","p",630,"cv","O",9,"v","v",TRUE,1,-0.532786608140227
"CVOE updated",1001,1,1,53,"U 32","","",TRUE,"CV","p",609,"cv","U",2,"v","v",TRUE,1,-0.541298418648702
"CVOE updated",1001,1,1,54,"J 78","","",FALSE,"CV","q",716,"cv","J",8,"c","c",TRUE,1,-0.497928717486471
"CVOE updated",1001,1,1,55,"S 54","","",FALSE,"CV","q",635,"cv","S",4,"c","c",TRUE,1,-0.53075998659059
"CVOE updated",1001,1,1,56,"J 27","","",TRUE,"CV","q",566,"cv","J",7,"c","c",TRUE,1,-0.55872736397558
"CVOE updated",1001,1,1,57,"S 06","","",FALSE,"CV","q",635,"cv","S",6,"c","c",TRUE,1,-0.53075998659059
"CVOE updated",1001,1,1,58,"D 67","","",TRUE,"CV","q",766,"cv","D",7,"c","c",TRUE,1,-0.477662501990102
"CVOE updated",1001,1,1,59,"A 79","","",FALSE,"CV","p",771,"cv","A",9,"v","v",TRUE,1,-0.475635880440465
"CVOE updated",1001,1,1,60,"S 52","","",FALSE,"CV","q",768,"cv","S",2,"c","c",TRUE,1,-0.476851853370247
"CVOE updated",1001,1,1,61,"U 16","","",TRUE,"CV","p",702,"cv","U",6,"v","v",TRUE,1,-0.503603257825455
"CVOE updated",1001,1,1,62,"O 82","","",TRUE,"CV","p",590,"cv","O",2,"v","v",TRUE,1,-0.548999580537322
"CVOE updated",1001,1,1,63,"H 87","","",TRUE,"CV","q",722,"cv","H",7,"c","c",TRUE,1,-0.495496771626907
"CVOE updated",1001,1,1,64,"I 32","","",TRUE,"CV","p",1330,"cv","I",2,"v","v",TRUE,1,-0.249059591191054
"CVOE updated",1001,1,1,65,"U 37","","",FALSE,"CV","p",833,"cv","U",7,"v","v",TRUE,1,-0.450505773224967
"CVOE updated",1001,1,1,66,"I 42","","",TRUE,"CV","p",620,"cv","I",2,"v","v",TRUE,1,-0.536839851239501
"CVOE updated",1001,1,1,67,"D 65","","",TRUE,"CV","q",679,"cv","D",5,"c","c",TRUE,1,-0.512925716953785
"CVOE updated",1001,1,1,68,"U 77","","",FALSE,"CV","p",743,"cv","U",7,"v","v",TRUE,1,-0.486984961118432
"CVOE updated",1001,1,1,69,"E 12","","",TRUE,"CV","p",1326,"cv","E",2,"v","v",TRUE,1,-0.250680888430764
"CVOE updated",1001,1,1,70,"I 60","","",TRUE,"CV","p",565,"cv","I",0,"v","v",TRUE,1,-0.559132688285507
"CVOE updated",1001,1,1,71,"J 36","","",FALSE,"CV","q",698,"cv","J",6,"c","c",TRUE,1,-0.505224555065164
"CVOE updated",1001,1,1,72,"H 75","","",TRUE,"CV","q",778,"cv","H",5,"c","c",TRUE,1,-0.472798610270973
"CVOE updated",1001,1,1,73,"I 50","","",TRUE,"CV","p",742,"cv","I",0,"v","v",TRUE,1,-0.487390285428359
"CVOE updated",1001,1,1,74,"E 99","","",FALSE,"CV","p",725,"cv","E",9,"v","v",TRUE,1,-0.494280798697125
"CVOE updated",1001,1,1,75,"A 86","","",TRUE,"CV","p",1019,"cv","A",6,"v","v",TRUE,1,-0.375115451578472
"CVOE updated",1001,1,1,76,"U 48","","",TRUE,"CV","p",631,"cv","U",8,"v","v",TRUE,1,-0.532381283830299
"CVOE updated",1001,1,1,77,"E 01","","",FALSE,"CV","p",649,"cv","E",1,"v","v",TRUE,1,-0.525085446251606
"CVOE updated",1001,1,1,78,"A 78","","",TRUE,"CV","p",699,"cv","A",8,"v","v",TRUE,1,-0.504819230755237
"CVOE updated",1001,1,1,79,"P 60","","",FALSE,"CV","q",803,"cv","P",0,"c","c",TRUE,1,-0.462665502522788
"CVOE updated",1001,1,1,80,"E 43","","",FALSE,"CV","p",975,"cv","E",3,"v","v",TRUE,1,-0.392949721215277
"CVOE updated",1001,1,1,81,"D 69","","",TRUE,"CV","q",924,"cv","D",9,"c","c",TRUE,1,-0.413621261021574
"CVOE updated",1001,1,1,82,"H 11","","",TRUE,"CV","q",612,"cv","H",1,"c","c",TRUE,1,-0.54008244571892
"CVOE updated",1001,1,1,83,"P 43","","",TRUE,"CV","q",543,"cv","P",3,"c","c",TRUE,1,-0.56804982310391
"CVOE updated",1001,1,1,84,"O 67","","",FALSE,"CV","p",613,"cv","O",7,"v","v",TRUE,1,-0.539677121408992
"CVOE updated",1001,1,1,85,"S 91","","",FALSE,"CV","q",728,"cv","S",1,"c","c",TRUE,1,-0.493064825767343
"CVOE updated",1001,1,1,86,"J 68","","",TRUE,"CV","q",671,"cv","J",8,"c","c",TRUE,1,-0.516168311433204
"CVOE updated",1001,1,1,87,"S 47","","",FALSE,"CV","q",624,"cv","S",7,"c","c",TRUE,1,-0.535218553999791
"CVOE updated",1001,1,1,88,"I 81","","",TRUE,"CV","p",659,"cv","I",1,"v","v",TRUE,1,-0.521032203152332
"CVOE updated",1001,1,1,89,"J 39","","",FALSE,"CV","q",805,"cv","J",9,"c","c",TRUE,1,-0.461854853902934
"CVOE updated",1001,1,1,90,"A 11","","",TRUE,"CV","p",793,"cv","A",1,"v","v",TRUE,1,-0.466718745622062
"CVOE updated",1001,1,1,91,"O 76","","",FALSE,"CV","p",541,"cv","O",6,"v","v",TRUE,1,-0.568860471723764
"CVOE updated",1001,1,1,92,"A 62","","",FALSE,"CV","p",547,"cv","A",2,"v","v",TRUE,1,-0.5664285258642
"CVOE updated",1001,1,1,93,"O 27","","",TRUE,"CV","p",545,"cv","O",7,"v","v",TRUE,1,-0.567239174484055
"CVOE updated",1001,1,1,94,"E 66","","",FALSE,"CV","p",607,"cv","E",6,"v","v",TRUE,1,-0.542109067268557
"CVOE updated",1001,1,1,95,"J 62","","",TRUE,"CV","q",531,"cv","J",2,"c","c",TRUE,1,-0.572913714823038
"CVOE updated",1001,1,1,96,"H 72","","",TRUE,"CV","q",546,"cv","H",2,"c","c",TRUE,1,-0.566833850174127
"CVOE updated",1001,1,1,97,"E 49","","",TRUE,"CV","p",680,"cv","E",9,"v","v",TRUE,1,-0.512520392643857
"CVOE updated",1001,1,1,98,"D 52","","",TRUE,"CV","q",800,"cv","D",2,"c","c",TRUE,1,-0.463881475452571
"CVOE updated",1001,1,1,99,"H 62","","",TRUE,"CV","q",516,"cv","H",2,"c","c",TRUE,1,-0.578993579471949
"CVOE updated",1001,1,1,100,"I 11","","",TRUE,"CV","p",660,"cv","I",1,"v","v",TRUE,1,-0.520626878842405
"CVOE updated",1001,1,1,101,"A 98","","",FALSE,"CV","p",1221,"cv","A",8,"v","v",TRUE,1,-0.29323994097314
"CVOE updated",1001,1,1,102,"H 29","","",FALSE,"CV","q",776,"cv","H",9,"c","c",TRUE,1,-0.473609258890828
"CVOE updated",1001,1,1,103,"E 83","","",TRUE,"CV","p",773,"cv","E",3,"v","v",TRUE,1,-0.47482523182061
"CVOE updated",1001,1,1,104,"D 43","","",FALSE,"CV","q",627,"cv","D",3,"c","c",TRUE,1,-0.534002581070009
"CVOE updated",1001,1,1,105,"P 45","","",TRUE,"CV","q",1253,"cv","P",5,"c","c",TRUE,1,-0.280269563055463
"CVOE updated",1001,1,1,106,"J 17","","",TRUE,"CV","q",1015,"cv","J",7,"c","c",TRUE,1,-0.376736748818182
"CVOE_C",2003,1,2,13,"S 30","","",FALSE,"CV","q",8787,"cv","S",0,"c","c",TRUE,1,2.77344378793749
"CVOE_C",2003,1,2,14,"D 20","","",FALSE,"CV","q",6059,"cv","D",0,"c","c",TRUE,1,1.66771907045557
"CVOE_C",2003,1,2,15,"I 31","","",FALSE,"CV","p",7456,"cv","I",1,"v","v",TRUE,1,2.23395713142413
"CVOE_C",2003,1,2,16,"P 16","","",FALSE,"CV","q",3365,"cv","P",6,"c","c",TRUE,1,0.575775379511183
"CVOE_C",2003,1,2,17,"A 49","","",FALSE,"CV","p",4379,"cv","A",9,"v","v",TRUE,1,0.986774229777556
"CVOE_C",2003,1,2,19,"D 02","","",FALSE,"CV","q",4660,"cv","D",2,"c","c",TRUE,1,1.10067036086715
"CVOE_C",2003,1,2,20,"P 81","","",TRUE,"CV","q",7495,"cv","P",1,"c","c",TRUE,1,2.2497647795113
"CVOE_C",2003,1,2,21,"J 58","","",FALSE,"CV","q",1930,"cv","J",8,"c","c",TRUE,1,-0.00586500523462062
"CVOE_C",2003,1,2,22,"A 22","","",TRUE,"CV","p",1737,"cv","A",2,"v","v",TRUE,1,-0.0840925970506067
"CVOE_C",2003,1,2,23,"J 72","","",FALSE,"CV","q",1793,"cv","J",2,"c","c",TRUE,1,-0.0613944356946729
"CVOE_C",2003,1,2,24,"P 91","","",TRUE,"CV","q",1853,"cv","P",1,"c","c",TRUE,1,-0.0370749770990296
"CVOE_C",2003,1,2,25,"E 19","","",FALSE,"CV","p",4512,"cv","E",9,"v","v",TRUE,1,1.0406823629979
"CVOE_C",2003,1,2,27,"D 91","","",TRUE,"CV","q",1259,"cv","D",1,"c","c",TRUE,1,-0.277837617195899
"CVOE_C",2003,1,2,28,"O 48","","",TRUE,"CV","p",3972,"cv","O",8,"v","v",TRUE,1,0.821807235637108
"CVOE_C",2003,1,2,29,"A 89","","",FALSE,"CV","p",1315,"cv","A",9,"v","v",TRUE,1,-0.255139455839965
"CVOE_C",2003,1,2,30,"U 11","","",FALSE,"CV","p",2275,"cv","U",1,"v","v",TRUE,1,0.133971881690329
"CVOE_C",2003,1,2,31,"I 76","","",TRUE,"CV","p",6389,"cv","I",6,"v","v",TRUE,1,1.80147609273161
"CVOE_C",2003,1,2,32,"U 89","","",FALSE,"CV","q",2796,"cv","U",9,"v","c",FALSE,0,0.345145847162499
"CVOE_C",2003,1,2,33,"D 63","","",TRUE,"CV","q",2449,"cv","D",3,"c","c",TRUE,1,0.204498311617694
"CVOE_C",2003,1,2,34,"H 70","","",FALSE,"CV","q",1572,"cv","H",0,"c","c",TRUE,1,-0.150971108188626
"CVOE_C",2003,1,2,35,"D 48","","",FALSE,"CV","q",1426,"cv","D",8,"c","c",TRUE,1,-0.210148457438025
"CVOE_C",2003,1,2,36,"P 56","","",FALSE,"CV","q",2693,"cv","P",6,"c","c",TRUE,1,0.303397443239977
"CVOE_C",2003,1,2,37,"O 77","","",FALSE,"CV","p",2982,"cv","O",7,"v","v",TRUE,1,0.420536168808993
"CVOE_C",2003,1,2,38,"P 42","","",FALSE,"CV","q",1972,"cv","P",2,"c","c",TRUE,1,0.0111586157823297
"CVOE_C",2003,1,2,40,"E 42","","",TRUE,"CV","p",2898,"cv","E",2,"v","v",TRUE,1,0.386488926775092
"CVOE_C",2003,1,2,41,"J 28","","",FALSE,"CV","q",3203,"cv","J",8,"c","c",TRUE,1,0.510112841302946
"CVOE_C",2003,1,2,42,"E 95","","",FALSE,"CV","p",4152,"cv","E",5,"v","v",TRUE,1,0.894765611424038
"CVOE_C",2003,1,2,43,"S 63","","",TRUE,"CV","q",1904,"cv","S",3,"c","c",TRUE,1,-0.0164034372927327
"CVOE_C",2003,1,2,44,"H 50","","",FALSE,"CV","q",1361,"cv","H",0,"c","c",TRUE,1,-0.236494537583305
"CVOE_C",2003,1,2,45,"S 33","","",TRUE,"CV","q",1086,"cv","S",3,"c","c",TRUE,1,-0.347958722813337
"CVOE_C",2003,1,2,46,"P 57","","",TRUE,"CV","q",1287,"cv","P",7,"c","c",TRUE,1,-0.266488536517932
"CVOE_C",2003,1,2,47,"E 23","","",FALSE,"CV","p",2384,"cv","E",3,"v","v",TRUE,1,0.178152231472414
"CVOE_C",2003,1,2,48,"S 61","","",TRUE,"CV","q",2086,"cv","S",1,"c","c",TRUE,1,0.0573655871140521
"CVOE_C",2003,1,2,49,"U 67","","",FALSE,"CV","p",2423,"cv","U",7,"v","v",TRUE,1,0.193959879559582
"CVOE_C",2003,1,2,50,"H 32","","",FALSE,"CV","q",2699,"cv","H",2,"c","c",TRUE,1,0.305829389099542
"CVOE_C",2003,1,2,51,"U 50","","",TRUE,"CV","q",1813,"cv","U",0,"v","c",FALSE,0,-0.0532879494961252
"CVOE_C",2003,1,2,52,"O 49","","",FALSE,"CV","p",5305,"cv","O",9,"v","v",TRUE,1,1.36210454077032
"CVOE_C",2003,1,2,54,"J 78","","",FALSE,"CV","q",1864,"cv","J",8,"c","c",TRUE,1,-0.0326164096898283
"CVOE_C",2003,1,2,55,"S 54","","",FALSE,"CV","q",1978,"cv","S",4,"c","c",TRUE,1,0.0135905616418941
"CVOE_C",2003,1,2,56,"J 27","","",TRUE,"CV","q",1615,"cv","J",7,"c","c",TRUE,1,-0.133542162861748
"CVOE_C",2003,1,2,57,"S 06","","",FALSE,"CV","q",1483,"cv","S",6,"c","c",TRUE,1,-0.187044971772164
"CVOE_C",2003,1,2,58,"D 67","","",TRUE,"CV","q",1660,"cv","D",7,"c","c",TRUE,1,-0.115302568915016
"CVOE_C",2003,1,2,59,"A 79","","",FALSE,"CV","p",1798,"cv","A",9,"v","v",TRUE,1,-0.059367814145036
"CVOE_C",2003,1,2,60,"S 52","","",FALSE,"CV","q",1283,"cv","S",2,"c","c",TRUE,1,-0.268109833757641
"CVOE_C",2003,1,2,61,"U 16","","",TRUE,"CV","q",1883,"cv","U",6,"v","c",FALSE,0,-0.0249152478012079
"CVOE_C",2003,1,2,62,"O 82","","",TRUE,"CV","p",2933,"cv","O",2,"v","v",TRUE,1,0.400675277622551
"CVOE_C",2003,1,2,63,"H 87","","",TRUE,"CV","q",1741,"cv","H",7,"c","c",TRUE,1,-0.0824712998108972
"CVOE_C",2003,1,2,64,"I 32","","",TRUE,"CV","p",7972,"cv","I",2,"v","v",TRUE,1,2.44310447534667
"CVOE_C",2003,1,2,65,"U 37","","",FALSE,"CV","q",2141,"cv","U",7,"v","c",FALSE,0,0.0796584241600585
"CVOE_C",2003,1,2,66,"I 42","","",TRUE,"CV","p",2524,"cv","I",2,"v","v",TRUE,1,0.234897634862249
"CVOE_C",2003,1,2,67,"D 65","","",TRUE,"CV","q",3244,"cv","D",5,"c","c",TRUE,1,0.526731138009969
"CVOE_C",2003,1,2,68,"U 77","","",FALSE,"CV","p",2288,"cv","U",7,"v","v",TRUE,1,0.139241097719385
"CVOE_C",2003,1,2,70,"I 60","","",TRUE,"CV","p",7080,"cv","I",0,"v","v",TRUE,1,2.08155519089143
"CVOE_C",2003,1,2,71,"J 36","","",FALSE,"CV","q",2132,"cv","J",6,"c","c",TRUE,1,0.076010505370712
"CVOE_C",2003,1,2,72,"H 75","","",TRUE,"CV","q",1979,"cv","H",5,"c","c",TRUE,1,0.0139958859518215
"CVOE_C",2003,1,2,73,"I 50","","",TRUE,"CV","p",2232,"cv","I",0,"v","v",TRUE,1,0.116542936363451
"CVOE_C",2003,1,2,74,"E 99","","",FALSE,"CV","p",6068,"cv","E",9,"v","v",TRUE,1,1.67136698924492
"CVOE_C",2003,1,2,75,"A 86","","",TRUE,"CV","p",2272,"cv","A",6,"v","v",TRUE,1,0.132755908760547
"CVOE_C",2003,1,2,76,"U 48","","",TRUE,"CV","p",3234,"cv","U",8,"v","v",TRUE,1,0.522677894910695
"CVOE_C",2003,1,2,77,"E 01","","",FALSE,"CV","p",6230,"cv","E",1,"v","v",TRUE,1,1.73702952745315
"CVOE_C",2003,1,2,78,"A 78","","",TRUE,"CV","p",2644,"cv","A",8,"v","v",TRUE,1,0.283536552053535
"CVOE_C",2003,1,2,79,"P 60","","",FALSE,"CV","q",4191,"cv","P",0,"c","c",TRUE,1,0.910573259511206
"CVOE_C",2003,1,2,80,"E 43","","",FALSE,"CV","p",4877,"cv","E",3,"v","v",TRUE,1,1.1886257361214
"CVOE_C",2003,1,2,81,"D 69","","",TRUE,"CV","q",3680,"cv","D",9,"c","c",TRUE,1,0.703452537138311
"CVOE_C",2003,1,2,82,"H 11","","",TRUE,"CV","q",1386,"cv","H",1,"c","c",TRUE,1,-0.22636142983512
"CVOE_C",2003,1,2,83,"P 43","","",TRUE,"CV","q",1351,"cv","P",3,"c","c",TRUE,1,-0.240547780682579
"CVOE_C",2003,1,2,84,"O 67","","",FALSE,"CV","p",3565,"cv","O",7,"v","v",TRUE,1,0.656840241496661
"CVOE_C",2003,1,2,85,"S 91","","",FALSE,"CV","q",1756,"cv","S",1,"c","c",TRUE,1,-0.0763914351619863
"CVOE_C",2003,1,2,86,"J 68","","",TRUE,"CV","q",1259,"cv","J",8,"c","c",TRUE,1,-0.277837617195899
"CVOE_C",2003,1,2,87,"S 47","","",FALSE,"CV","q",1452,"cv","S",7,"c","c",TRUE,1,-0.199610025379913
"CVOE_C",2003,1,2,88,"I 81","","",TRUE,"CV","p",2511,"cv","I",1,"v","v",TRUE,1,0.229628418833193
"CVOE_C",2003,1,2,89,"J 39","","",FALSE,"CV","q",2263,"cv","J",9,"c","c",TRUE,1,0.1291079899712
"CVOE_C",2003,1,2,90,"A 11","","",TRUE,"CV","p",3945,"cv","A",1,"v","v",TRUE,1,0.810863479269069
"CVOE_C",2003,1,2,91,"O 76","","",FALSE,"CV","p",3041,"cv","O",6,"v","v",TRUE,1,0.444450303094709
"CVOE_C",2003,1,2,92,"A 62","","",FALSE,"CV","p",4052,"cv","A",2,"v","v",TRUE,1,0.854233180431299
"CVOE_C",2003,1,2,93,"O 27","","",TRUE,"CV","p",5488,"cv","O",7,"v","v",TRUE,1,1.43627888948703
"CVOE_C",2003,1,2,94,"E 66","","",FALSE,"CV","p",4084,"cv","E",6,"v","v",TRUE,1,0.867203558348976
"CVOE_C",2003,1,2,95,"J 62","","",TRUE,"CV","q",1814,"cv","J",2,"c","c",TRUE,1,-0.0528826251861978
"CVOE_C",2003,1,2,96,"H 72","","",TRUE,"CV","q",1730,"cv","H",2,"c","c",TRUE,1,-0.0869298672200985
"CVOE_C",2003,1,2,97,"E 49","","",TRUE,"CV","p",2281,"cv","E",9,"v","v",TRUE,1,0.136403827549893
"CVOE_C",2003,1,2,98,"D 52","","",TRUE,"CV","q",1955,"cv","D",2,"c","c",TRUE,1,0.00426810251356411
"CVOE_C",2003,1,2,99,"H 62","","",TRUE,"CV","q",1697,"cv","H",2,"c","c",TRUE,1,-0.100305569447702
"CVOE_C",2003,1,2,100,"I 11","","",TRUE,"CV","p",2418,"cv","I",1,"v","v",TRUE,1,0.191933258009945
"CVOE_C",2003,1,2,101,"A 98","","",FALSE,"CV","p",2798,"cv","A",8,"v","v",TRUE,1,0.345956495782353
"CVOE_C",2003,1,2,102,"H 29","","",FALSE,"CV","q",4971,"cv","H",9,"c","c",TRUE,1,1.22672622125457
"CVOE_C",2003,1,2,103,"E 83","","",TRUE,"CV","p",3643,"cv","E",3,"v","v",TRUE,1,0.688455537670997
"CVOE_C",2003,1,2,104,"D 43","","",FALSE,"CV","q",2207,"cv","D",3,"c","c",TRUE,1,0.106409828615266
"CVOE_C",2003,1,2,105,"P 45","","",TRUE,"CV","q",1323,"cv","P",5,"c","c",TRUE,1,-0.251896861360546
"CVOE_C",2003,1,2,106,"J 17","","",TRUE,"CV","q",1619,"cv","J",7,"c","c",TRUE,1,-0.131920865622039
"CVOE updated",1001,1,2,11,"A 24","","",TRUE,"OE","p",2238,"oe","A",4,"e","e",TRUE,1,0.118974882223015
"CVOE updated",1001,1,2,12,"O 83","","",FALSE,"OE","q",818,"oe","O",3,"o","o",TRUE,1,-0.456585637873878
"CVOE updated",1001,1,2,13,"H 55","","",TRUE,"OE","q",701,"oe","H",5,"o","o",TRUE,1,-0.504008582135382
"CVOE updated",1001,1,2,14,"P 10","","",FALSE,"OE","p",653,"oe","P",0,"e","e",TRUE,1,-0.523464149011897
"CVOE updated",1001,1,2,15,"D 30","","",FALSE,"OE","p",599,"oe","D",0,"e","e",TRUE,1,-0.545351661747976
"CVOE updated",1001,1,2,16,"U 62","","",TRUE,"OE","p",611,"oe","U",2,"e","e",TRUE,1,-0.540487770028847
"CVOE updated",1001,1,2,17,"P 95","","",TRUE,"OE","q",734,"oe","P",5,"o","o",TRUE,1,-0.490632879907778
"CVOE updated",1001,1,2,18,"U 06","","",TRUE,"OE","p",757,"oe","U",6,"e","e",TRUE,1,-0.481310420779448
"CVOE updated",1001,1,2,19,"E 75","","",FALSE,"OE","q",659,"oe","E",5,"o","o",TRUE,1,-0.521032203152332
"CVOE updated",1001,1,2,20,"I 67","","",FALSE,"OE","q",589,"oe","I",7,"o","o",TRUE,1,-0.54940490484725
"CVOE updated",1001,1,2,21,"S 13","","",TRUE,"OE","q",649,"oe","S",3,"o","o",TRUE,1,-0.525085446251606
"CVOE updated",1001,1,2,22,"P 78","","",FALSE,"OE","p",787,"oe","P",8,"e","e",TRUE,1,-0.469150691481627
"CVOE updated",1001,1,2,23,"I 15","","",FALSE,"OE","q",672,"oe","I",5,"o","o",TRUE,1,-0.515762987123276
"CVOE updated",1001,1,2,24,"D 27","","",TRUE,"OE","q",673,"oe","D",7,"o","o",TRUE,1,-0.515357662813349
"CVOE updated",1001,1,2,25,"O 94","","",TRUE,"OE","p",714,"oe","O",4,"e","e",TRUE,1,-0.498739366106326
"CVOE updated",1001,1,2,26,"A 65","","",FALSE,"OE","q",690,"oe","A",5,"o","o",TRUE,1,-0.508467149544583
"CVOE updated",1001,1,2,27,"I 42","","",TRUE,"OE","p",546,"oe","I",2,"e","e",TRUE,1,-0.566833850174127
"CVOE updated",1001,1,2,28,"E 25","","",FALSE,"OE","q",680,"oe","E",5,"o","o",TRUE,1,-0.512520392643857
"CVOE updated",1001,1,2,29,"H 49","","",TRUE,"OE","q",745,"oe","H",9,"o","o",TRUE,1,-0.486174312498577
"CVOE updated",1001,1,2,30,"S 18","","",FALSE,"OE","p",1271,"oe","S",8,"e","e",TRUE,1,-0.27297372547677
"CVOE updated",1001,1,2,31,"H 51","","",TRUE,"OE","q",1393,"oe","H",1,"o","o",TRUE,1,-0.223524159665629
"CVOE updated",1001,1,2,32,"U 14","","",TRUE,"OE","p",677,"oe","U",4,"e","e",TRUE,1,-0.513736365573639
"CVOE updated",1001,1,2,33,"E 02","","",TRUE,"OE","p",526,"oe","E",2,"e","e",TRUE,1,-0.574940336372675
"CVOE updated",1001,1,2,34,"J 26","","",FALSE,"OE","p",532,"oe","J",6,"e","e",TRUE,1,-0.572508390513111
"CVOE updated",1001,1,2,35,"D 24","","",FALSE,"OE","p",515,"oe","D",4,"e","e",TRUE,1,-0.579398903781876
"CVOE updated",1001,1,2,36,"O 50","","",TRUE,"OE","p",618,"oe","O",0,"e","e",TRUE,1,-0.537650499859355
"CVOE updated",1001,1,2,37,"U 16","","",TRUE,"OE","p",605,"oe","U",6,"e","e",TRUE,1,-0.542919715888411
"CVOE updated",1001,1,2,38,"O 15","","",FALSE,"OE","q",801,"oe","O",5,"o","o",TRUE,1,-0.463476151142643
"CVOE updated",1001,1,2,39,"D 32","","",FALSE,"OE","p",941,"oe","D",2,"e","e",TRUE,1,-0.406730747752809
"CVOE updated",1001,1,2,40,"S 67","","",TRUE,"OE","q",620,"oe","S",7,"o","o",TRUE,1,-0.536839851239501
"CVOE updated",1001,1,2,41,"J 74","","",FALSE,"OE","p",1095,"oe","J",4,"e","e",TRUE,1,-0.344310804023991
"CVOE updated",1001,1,2,42,"D 92","","",FALSE,"OE","p",600,"oe","D",2,"e","e",TRUE,1,-0.544946337438048
"CVOE updated",1001,1,2,43,"A 65","","",FALSE,"OE","q",644,"oe","A",5,"o","o",TRUE,1,-0.527112067801243
"CVOE updated",1001,1,2,44,"I 87","","",FALSE,"OE","q",558,"oe","I",7,"o","o",TRUE,1,-0.561969958454999
"CVOE updated",1001,1,2,45,"H 61","","",TRUE,"OE","q",643,"oe","H",1,"o","o",TRUE,1,-0.527517392111171
"CVOE updated",1001,1,2,46,"E 59","","",FALSE,"OE","q",517,"oe","E",9,"o","o",TRUE,1,-0.578588255162022
"CVOE updated",1001,1,2,47,"I 33","","",FALSE,"OE","q",605,"oe","I",3,"o","o",TRUE,1,-0.542919715888411
"CVOE updated",1001,1,2,48,"O 90","","",TRUE,"OE","p",793,"oe","O",0,"e","e",TRUE,1,-0.466718745622062
"CVOE updated",1001,1,2,49,"U 51","","",FALSE,"OE","q",901,"oe","U",1,"o","o",TRUE,1,-0.422943720149904
"CVOE updated",1001,1,2,50,"A 10","","",TRUE,"OE","p",869,"oe","A",0,"e","e",TRUE,1,-0.435914098067581
"CVOE updated",1001,1,2,51,"E 50","","",TRUE,"OE","p",686,"oe","E",0,"e","e",TRUE,1,-0.510088446784293
"CVOE updated",1001,1,2,52,"D 92","","",FALSE,"OE","p",527,"oe","D",2,"e","e",TRUE,1,-0.574535012062748
"CVOE updated",1001,1,2,53,"E 60","","",TRUE,"OE","p",573,"oe","E",0,"e","e",TRUE,1,-0.555890093806088
"CVOE updated",1001,1,2,54,"A 95","","",FALSE,"OE","q",715,"oe","A",5,"o","o",TRUE,1,-0.498334041796399
"CVOE updated",1001,1,2,55,"E 64","","",TRUE,"OE","p",842,"oe","E",4,"e","e",TRUE,1,-0.44685785443562
"CVOE updated",1001,1,2,56,"P 20","","",FALSE,"OE","p",788,"oe","P",0,"e","e",TRUE,1,-0.468745367171699
"CVOE updated",1001,1,2,57,"S 06","","",FALSE,"OE","p",681,"oe","S",6,"e","e",TRUE,1,-0.51211506833393
"CVOE updated",1001,1,2,58,"P 64","","",FALSE,"OE","p",624,"oe","P",4,"e","e",TRUE,1,-0.535218553999791
"CVOE updated",1001,1,2,59,"U 70","","",TRUE,"OE","p",660,"oe","U",0,"e","e",TRUE,1,-0.520626878842405
"CVOE updated",1001,1,2,60,"S 16","","",FALSE,"OE","p",613,"oe","S",6,"e","e",TRUE,1,-0.539677121408992
"CVOE updated",1001,1,2,61,"E 35","","",FALSE,"OE","q",760,"oe","E",5,"o","o",TRUE,1,-0.480094447849666
"CVOE updated",1001,1,2,62,"I 93","","",FALSE,"OE","q",789,"oe","I",3,"o","o",TRUE,1,-0.468340042861772
"CVOE updated",1001,1,2,63,"D 63","","",TRUE,"OE","q",562,"oe","D",3,"o","o",TRUE,1,-0.560348661215289
"CVOE updated",1001,1,2,64,"U 89","","",FALSE,"OE","q",655,"oe","U",9,"o","o",TRUE,1,-0.522653500392042
"CVOE updated",1001,1,2,65,"E 91","","",FALSE,"OE","q",649,"oe","E",1,"o","o",TRUE,1,-0.525085446251606
"CVOE updated",1001,1,2,66,"A 12","","",TRUE,"OE","p",755,"oe","A",2,"e","e",TRUE,1,-0.482121069399303
"CVOE updated",1001,1,2,67,"P 56","","",FALSE,"OE","p",985,"oe","P",6,"e","e",TRUE,1,-0.388896478116003
"CVOE updated",1001,1,2,68,"S 65","","",TRUE,"OE","q",758,"oe","S",5,"o","o",TRUE,1,-0.480905096469521
"CVOE updated",1001,1,2,69,"P 07","","",TRUE,"OE","q",883,"oe","P",7,"o","o",TRUE,1,-0.430239557728597
"CVOE updated",1001,1,2,70,"I 77","","",FALSE,"OE","q",548,"oe","I",7,"o","o",TRUE,1,-0.566023201554273
"CVOE updated",1001,1,2,71,"J 19","","",TRUE,"OE","q",634,"oe","J",9,"o","o",TRUE,1,-0.531165310900517
"CVOE updated",1001,1,2,72,"O 59","","",FALSE,"OE","q",644,"oe","O",9,"o","o",TRUE,1,-0.527112067801243
"CVOE updated",1001,1,2,73,"J 15","","",TRUE,"OE","q",702,"oe","J",5,"o","o",TRUE,1,-0.503603257825455
"CVOE updated",1001,1,2,74,"I 89","","",FALSE,"OE","q",910,"oe","I",9,"o","o",TRUE,1,-0.419295801360558
"CVOE updated",1001,1,2,75,"O 97","","",FALSE,"OE","q",750,"oe","O",7,"o","o",TRUE,1,-0.48414769094894
"CVOE updated",1001,1,2,76,"A 92","","",TRUE,"OE","p",868,"oe","A",2,"e","e",TRUE,1,-0.436319422377508
"CVOE updated",1001,1,2,77,"J 90","","",FALSE,"OE","p",565,"oe","J",0,"e","e",TRUE,1,-0.559132688285507
"CVOE updated",1001,1,2,78,"H 65","","",TRUE,"OE","q",763,"oe","H",5,"o","o",TRUE,1,-0.478878474919884
"CVOE updated",1001,1,2,79,"H 17","","",TRUE,"OE","q",648,"oe","H",7,"o","o",TRUE,1,-0.525490770561534
"CVOE updated",1001,1,2,80,"S 26","","",FALSE,"OE","p",690,"oe","S",6,"e","e",TRUE,1,-0.508467149544583
"CVOE updated",1001,1,2,81,"D 56","","",FALSE,"OE","p",507,"oe","D",6,"e","e",TRUE,1,-0.582641498261296
"CVOE updated",1001,1,2,82,"I 91","","",FALSE,"OE","q",738,"oe","I",1,"o","o",TRUE,1,-0.489011582668069
"CVOE updated",1001,1,2,83,"J 11","","",TRUE,"OE","q",673,"oe","J",1,"o","o",TRUE,1,-0.515357662813349
"CVOE updated",1001,1,2,84,"O 28","","",TRUE,"OE","p",1050,"oe","O",8,"e","e",TRUE,1,-0.362550397970723
"CVOE updated",1001,1,2,85,"H 29","","",TRUE,"OE","q",685,"oe","H",9,"o","o",TRUE,1,-0.51049377109422
"CVOE updated",1001,1,2,86,"J 25","","",TRUE,"OE","q",813,"oe","J",5,"o","o",TRUE,1,-0.458612259423514
"CVOE updated",1001,1,2,87,"A 73","","",FALSE,"OE","q",521,"oe","A",3,"o","o",TRUE,1,-0.576966957922312
"CVOE updated",1001,1,2,88,"J 63","","",TRUE,"OE","q",552,"oe","J",3,"o","o",TRUE,1,-0.564401904314563
"CVOE updated",1001,1,2,89,"U 84","","",TRUE,"OE","p",758,"oe","U",4,"e","e",TRUE,1,-0.480905096469521
"CVOE updated",1001,1,2,90,"A 58","","",TRUE,"OE","p",547,"oe","A",8,"e","e",TRUE,1,-0.5664285258642
"CVOE updated",1001,1,2,91,"S 43","","",TRUE,"OE","q",681,"oe","S",3,"o","o",TRUE,1,-0.51211506833393
"CVOE updated",1001,1,2,92,"H 54","","",FALSE,"OE","p",794,"oe","H",4,"e","e",TRUE,1,-0.466313421312135
"CVOE updated",1001,1,2,93,"D 4","","",FALSE,"OE","p",798,"oe","D",NA,"o","e",FALSE,0,-0.464692124072425
"CVOE updated",1001,1,2,94,"J 75","","",TRUE,"OE","q",786,"oe","J",5,"o","o",TRUE,1,-0.469556015791554
"CVOE updated",1001,1,2,95,"D 19","","",TRUE,"OE","q",1327,"oe","D",9,"o","o",TRUE,1,-0.250275564120836
"CVOE updated",1001,1,2,96,"J 38","","",FALSE,"OE","p",1046,"oe","J",8,"e","e",TRUE,1,-0.364171695210433
"CVOE updated",1001,1,2,97,"I 56","","",TRUE,"OE","p",1232,"oe","I",6,"e","e",TRUE,1,-0.288781373563938
"CVOE updated",1001,1,2,98,"P 87","","",TRUE,"OE","q",763,"oe","P",7,"o","o",TRUE,1,-0.478878474919884
"CVOE updated",1001,1,2,99,"O 80","","",TRUE,"OE","p",1008,"oe","O",0,"e","e",TRUE,1,-0.379574018987674
"CVOE updated",1001,1,2,100,"U 60","","",TRUE,"OE","p",676,"oe","U",0,"e","e",TRUE,1,-0.514141689883567
"CVOE updated",1001,1,2,101,"P 48","","",FALSE,"OE","p",844,"oe","P",8,"e","e",TRUE,1,-0.446047205815765
"CVOE updated",1001,1,2,102,"H 64","","",FALSE,"OE","p",702,"oe","H",4,"e","e",TRUE,1,-0.503603257825455
"CVOE updated",1001,1,2,103,"A 13","","",FALSE,"OE","q",726,"oe","A",3,"o","o",TRUE,1,-0.493875474387197
"CVOE updated",1001,1,2,104,"H 68","","",FALSE,"OE","p",813,"oe","H",8,"e","e",TRUE,1,-0.458612259423514
"CVOE updated",1001,1,2,105,"E 16","","",TRUE,"OE","p",696,"oe","E",6,"e","e",TRUE,1,-0.506035203685019
"CVOE updated",1001,1,2,106,"S 71","","",TRUE,"OE","q",528,"oe","S",1,"o","o",TRUE,1,-0.57412968775282
"CVOE_C",2003,1,1,12,"O 83","","",FALSE,"OE","q",4426,"oe","O",3,"o","o",TRUE,1,1.00582447234414
"CVOE_C",2003,1,1,13,"H 55","","",TRUE,"OE","q",2678,"oe","H",5,"o","o",TRUE,1,0.297317578591067
"CVOE_C",2003,1,1,14,"P 10","","",FALSE,"OE","p",2056,"oe","P",0,"e","e",TRUE,1,0.0452058578162304
"CVOE_C",2003,1,1,15,"D 30","","",FALSE,"OE","p",3555,"oe","D",0,"e","e",TRUE,1,0.652786998397387
"CVOE_C",2003,1,1,16,"U 62","","",TRUE,"OE","p",4066,"oe","U",2,"e","e",TRUE,1,0.859907720770283
"CVOE_C",2003,1,1,17,"P 95","","",TRUE,"OE","q",2062,"oe","P",5,"o","o",TRUE,1,0.0476378036757948
"CVOE_C",2003,1,1,18,"U 06","","",TRUE,"OE","p",5272,"oe","U",6,"e","e",TRUE,1,1.34872883854271
"CVOE_C",2003,1,1,19,"E 75","","",FALSE,"OE","q",2956,"oe","E",5,"o","o",TRUE,1,0.409997736750881
"CVOE_C",2003,1,1,20,"I 67","","",FALSE,"OE","q",2019,"oe","I",7,"o","o",TRUE,1,0.030208858348917
"CVOE_C",2003,1,1,21,"S 13","","",TRUE,"OE","q",2351,"oe","S",3,"o","o",TRUE,1,0.16477652924481
"CVOE_C",2003,1,1,22,"P 78","","",FALSE,"OE","p",4190,"oe","P",8,"e","e",TRUE,1,0.910167935201279
"CVOE_C",2003,1,1,23,"I 15","","",FALSE,"OE","q",1340,"oe","I",5,"o","o",TRUE,1,-0.24500634809178
"CVOE_C",2003,1,1,24,"D 27","","",TRUE,"OE","q",1331,"oe","D",7,"o","o",TRUE,1,-0.248654266881127
"CVOE_C",2003,1,1,25,"O 94","","",TRUE,"OE","q",3250,"oe","O",4,"e","o",FALSE,0,0.529163083869533
"CVOE_C",2003,1,1,26,"A 65","","",FALSE,"OE","q",2949,"oe","A",5,"o","o",TRUE,1,0.407160466581389
"CVOE_C",2003,1,1,27,"I 42","","",TRUE,"OE","p",2188,"oe","I",2,"e","e",TRUE,1,0.0987086667266458
"CVOE_C",2003,1,1,28,"E 25","","",FALSE,"OE","q",1466,"oe","E",5,"o","o",TRUE,1,-0.193935485040929
"CVOE_C",2003,1,1,29,"H 49","","",TRUE,"OE","q",1643,"oe","H",9,"o","o",TRUE,1,-0.122193082183781
"CVOE_C",2003,1,1,30,"S 18","","",FALSE,"OE","p",3054,"oe","S",8,"e","e",TRUE,1,0.449719519123765
"CVOE_C",2003,1,1,31,"H 51","","",TRUE,"OE","q",1369,"oe","H",1,"o","o",TRUE,1,-0.233251943103886
"CVOE_C",2003,1,1,32,"U 14","","",TRUE,"OE","p",1807,"oe","U",4,"e","e",TRUE,1,-0.0557198953556895
"CVOE_C",2003,1,1,33,"E 02","","",TRUE,"OE","p",2388,"oe","E",2,"e","e",TRUE,1,0.179773528712124
"CVOE_C",2003,1,1,34,"J 26","","",FALSE,"OE","p",1281,"oe","J",6,"e","e",TRUE,1,-0.268920482377496
"CVOE_C",2003,1,1,35,"D 24","","",FALSE,"OE","p",1154,"oe","D",4,"e","e",TRUE,1,-0.320396669738275
"CVOE_C",2003,1,1,36,"O 50","","",TRUE,"OE","p",2200,"oe","O",0,"e","e",TRUE,1,0.103572558445774
"CVOE_C",2003,1,1,37,"U 16","","",TRUE,"OE","p",1741,"oe","U",6,"e","e",TRUE,1,-0.0824712998108972
"CVOE_C",2003,1,1,38,"O 15","","",FALSE,"OE","q",1604,"oe","O",5,"o","o",TRUE,1,-0.13800073027095
"CVOE_C",2003,1,1,39,"D 32","","",FALSE,"OE","q",1488,"oe","D",2,"e","o",FALSE,0,-0.185018350222527
"CVOE_C",2003,1,1,40,"S 67","","",TRUE,"OE","q",9033,"oe","S",7,"o","o",TRUE,1,2.87315356817963
"CVOE_C",2003,1,1,41,"J 74","","",FALSE,"OE","p",5256,"oe","J",4,"e","e",TRUE,1,1.34224364958388
"CVOE_C",2003,1,1,42,"D 92","","",FALSE,"OE","p",7844,"oe","D",2,"e","e",TRUE,1,2.39122296367596
"CVOE_C",2003,1,1,43,"A 65","","",FALSE,"OE","q",1874,"oe","A",5,"o","o",TRUE,1,-0.0285631665905544
"CVOE_C",2003,1,1,44,"I 87","","",FALSE,"OE","q",2124,"oe","I",7,"o","o",TRUE,1,0.0727679108912929
"CVOE_C",2003,1,1,45,"H 61","","",TRUE,"OE","q",1636,"oe","H",1,"o","o",TRUE,1,-0.125030352353273
"CVOE_C",2003,1,1,46,"E 59","","",FALSE,"OE","q",1799,"oe","E",9,"o","o",TRUE,1,-0.0589624898351086
"CVOE_C",2003,1,1,47,"I 33","","",FALSE,"OE","q",7483,"oe","I",3,"o","o",TRUE,1,2.24490088779217
"CVOE_C",2003,1,1,48,"O 90","","",TRUE,"OE","p",5391,"oe","O",0,"e","e",TRUE,1,1.39696243142407
"CVOE_C",2003,1,1,49,"U 51","","",FALSE,"OE","q",1493,"oe","U",1,"o","o",TRUE,1,-0.18299172867289
"CVOE_C",2003,1,1,50,"A 10","","",TRUE,"OE","p",1910,"oe","A",0,"e","e",TRUE,1,-0.0139714914331684
"CVOE_C",2003,1,1,51,"E 50","","",TRUE,"OE","p",1350,"oe","E",0,"e","e",TRUE,1,-0.240953104992506
"CVOE_C",2003,1,1,52,"D 92","","",FALSE,"OE","q",2396,"oe","D",2,"e","o",FALSE,0,0.183016123191543
"CVOE_C",2003,1,1,53,"E 60","","",TRUE,"OE","p",1697,"oe","E",0,"e","e",TRUE,1,-0.100305569447702
"CVOE_C",2003,1,1,54,"A 95","","",FALSE,"OE","q",2898,"oe","A",5,"o","o",TRUE,1,0.386488926775092
"CVOE_C",2003,1,1,55,"E 64","","",TRUE,"OE","p",7619,"oe","E",4,"e","e",TRUE,1,2.3000249939423
"CVOE_C",2003,1,1,56,"P 20","","",FALSE,"OE","p",1362,"oe","P",0,"e","e",TRUE,1,-0.236089213273378
"CVOE_C",2003,1,1,57,"S 06","","",FALSE,"OE","p",1376,"oe","S",6,"e","e",TRUE,1,-0.230414672934394
"CVOE_C",2003,1,1,58,"P 64","","",FALSE,"OE","p",1285,"oe","P",4,"e","e",TRUE,1,-0.267299185137787
"CVOE_C",2003,1,1,59,"U 70","","",TRUE,"OE","p",1342,"oe","U",0,"e","e",TRUE,1,-0.244195699471926
"CVOE_C",2003,1,1,60,"S 16","","",FALSE,"OE","p",1260,"oe","S",6,"e","e",TRUE,1,-0.277432292885971
"CVOE_C",2003,1,1,61,"E 35","","",FALSE,"OE","q",1902,"oe","E",5,"o","o",TRUE,1,-0.0172140859125875
"CVOE_C",2003,1,1,62,"I 93","","",FALSE,"OE","q",2542,"oe","I",3,"o","o",TRUE,1,0.242193472440942
"CVOE_C",2003,1,1,63,"D 63","","",TRUE,"OE","q",2077,"oe","D",3,"o","o",TRUE,1,0.0537176683247056
"CVOE_C",2003,1,1,64,"U 89","","",FALSE,"OE","q",2063,"oe","U",9,"o","o",TRUE,1,0.0480431279857222
"CVOE_C",2003,1,1,65,"E 91","","",FALSE,"OE","q",1513,"oe","E",1,"o","o",TRUE,1,-0.174885242474342
"CVOE_C",2003,1,1,66,"A 12","","",TRUE,"OE","p",1688,"oe","A",2,"e","e",TRUE,1,-0.103953488237049
"CVOE_C",2003,1,1,67,"P 56","","",FALSE,"OE","p",4426,"oe","P",6,"e","e",TRUE,1,1.00582447234414
"CVOE_C",2003,1,1,68,"S 65","","",TRUE,"OE","q",1286,"oe","S",5,"o","o",TRUE,1,-0.266893860827859
"CVOE_C",2003,1,1,69,"P 07","","",TRUE,"OE","q",1455,"oe","P",7,"o","o",TRUE,1,-0.198394052450131
"CVOE_C",2003,1,1,70,"I 77","","",FALSE,"OE","q",1066,"oe","I",7,"o","o",TRUE,1,-0.356065209011885
"CVOE_C",2003,1,1,71,"J 19","","",TRUE,"OE","q",1715,"oe","J",9,"o","o",TRUE,1,-0.0930097318690093
"CVOE_C",2003,1,1,72,"O 59","","",FALSE,"OE","q",1443,"oe","O",9,"o","o",TRUE,1,-0.203257944169259
"CVOE_C",2003,1,1,73,"J 15","","",TRUE,"OE","q",1126,"oe","J",5,"o","o",TRUE,1,-0.331745750416242
"CVOE_C",2003,1,1,74,"I 89","","",FALSE,"OE","q",1596,"oe","I",9,"o","o",TRUE,1,-0.141243324750369
"CVOE_C",2003,1,1,75,"O 97","","",FALSE,"OE","q",1225,"oe","O",7,"o","o",TRUE,1,-0.29161864373343
"CVOE_C",2003,1,1,76,"A 92","","",TRUE,"OE","q",2284,"oe","A",2,"e","o",FALSE,0,0.137619800479675
"CVOE_C",2003,1,1,77,"J 90","","",FALSE,"OE","p",3853,"oe","J",0,"e","e",TRUE,1,0.773573642755749
"CVOE_C",2003,1,1,78,"H 65","","",TRUE,"OE","q",1569,"oe","H",5,"o","o",TRUE,1,-0.152187081118408
"CVOE_C",2003,1,1,79,"H 17","","",TRUE,"OE","q",863,"oe","H",7,"o","o",TRUE,1,-0.438346043927145
"CVOE_C",2003,1,1,80,"S 26","","",FALSE,"OE","p",1752,"oe","S",6,"e","e",TRUE,1,-0.0780127324016959
"CVOE_C",2003,1,1,81,"D 56","","",FALSE,"OE","q",3007,"oe","D",6,"e","o",FALSE,0,0.430669276557178
"CVOE_C",2003,1,1,82,"I 91","","",FALSE,"OE","q",1948,"oe","I",1,"o","o",TRUE,1,0.00143083234407239
"CVOE_C",2003,1,1,83,"J 11","","",TRUE,"OE","q",1474,"oe","J",1,"o","o",TRUE,1,-0.19069289056151
"CVOE_C",2003,1,1,84,"O 28","","",TRUE,"OE","p",2235,"oe","O",8,"e","e",TRUE,1,0.117758909293233
"CVOE_C",2003,1,1,85,"H 29","","",TRUE,"OE","q",1775,"oe","H",9,"o","o",TRUE,1,-0.068690273273366
"CVOE_C",2003,1,1,86,"J 25","","",TRUE,"OE","p",1956,"oe","J",5,"o","e",FALSE,0,0.0046734268234915
"CVOE_C",2003,1,1,87,"A 73","","",FALSE,"OE","q",1819,"oe","A",3,"o","o",TRUE,1,-0.0508560036365608
"CVOE_C",2003,1,1,88,"J 63","","",TRUE,"OE","q",1679,"oe","J",3,"o","o",TRUE,1,-0.107601407026395
"CVOE_C",2003,1,1,89,"U 84","","",TRUE,"OE","p",1592,"oe","U",4,"e","e",TRUE,1,-0.142864621990078
"CVOE_C",2003,1,1,90,"A 58","","",TRUE,"OE","p",4252,"oe","A",8,"e","e",TRUE,1,0.935298042416777
"CVOE_C",2003,1,1,91,"S 43","","",TRUE,"OE","q",1624,"oe","S",3,"o","o",TRUE,1,-0.129894244072402
"CVOE_C",2003,1,1,92,"H 54","","",FALSE,"OE","p",2587,"oe","H",4,"e","e",TRUE,1,0.260433066387674
"CVOE_C",2003,1,1,93,"D 4","","",FALSE,"OE","p",729,"oe","D",NA,"o","e",FALSE,0,-0.492659501457415
"CVOE_C",2003,1,1,94,"J 75","","",TRUE,"OE","q",3568,"oe","J",5,"o","o",TRUE,1,0.658056214426443
"CVOE_C",2003,1,1,95,"D 19","","",TRUE,"OE","q",2455,"oe","D",9,"o","o",TRUE,1,0.206930257477259
"CVOE_C",2003,1,1,96,"J 38","","",FALSE,"OE","p",8202,"oe","J",8,"e","e",TRUE,1,2.53632906662996
"CVOE_C",2003,1,1,97,"I 56","","",TRUE,"OE","q",4314,"oe","I",6,"e","o",FALSE,0,0.960428149632275
"CVOE_C",2003,1,1,98,"P 87","","",TRUE,"OE","q",1819,"oe","P",7,"o","o",TRUE,1,-0.0508560036365608
"CVOE_C",2003,1,1,99,"O 80","","",TRUE,"OE","p",2399,"oe","O",0,"e","e",TRUE,1,0.184232096121325
"CVOE_C",2003,1,1,100,"U 60","","",TRUE,"OE","p",676,"oe","U",0,"e","e",TRUE,1,-0.514141689883567
"CVOE_C",2003,1,1,101,"P 48","","",FALSE,"OE","p",973,"oe","P",8,"e","e",TRUE,1,-0.393760369835132
"CVOE_C",2003,1,1,102,"H 64","","",FALSE,"OE","p",1210,"oe","H",4,"e","e",TRUE,1,-0.297698508382341
"CVOE_C",2003,1,1,103,"A 13","","",FALSE,"OE","q",1334,"oe","A",3,"o","o",TRUE,1,-0.247438293951345
"CVOE_C",2003,1,1,104,"H 68","","",FALSE,"OE","p",2245,"oe","H",8,"e","e",TRUE,1,0.121812152392507
"CVOE_C",2003,1,1,105,"E 16","","",TRUE,"OE","p",927,"oe","E",6,"e","e",TRUE,1,-0.412405288091792
"CVOE_C",2003,1,1,106,"S 71","","",TRUE,"OE","q",1190,"oe","S",1,"o","o",TRUE,1,-0.305804994580889
"CVOE updated",1001,1,3,11,"A 44","Letter","N",TRUE,"CV","p",4437,"alt","A",4,"v","v",TRUE,1,1.01028303975334
"CVOE updated",1001,1,3,12,"D 94","Letter","N",FALSE,"CV","q",1098,"alt","D",4,"c","c",TRUE,1,-0.343094831094209
"CVOE updated",1001,1,3,15,"I 64","Letter","Y",TRUE,"CV","p",1734,"alt","I",4,"v","v",TRUE,1,-0.0853085699803889
"CVOE updated",1001,1,3,16,"J 54","Letter","N",FALSE,"CV","q",4941,"alt","J",4,"c","c",TRUE,1,1.21456649195675
"CVOE updated",1001,1,3,19,"S 34","Letter","Y",FALSE,"CV","q",2199,"alt","S",4,"c","c",TRUE,1,0.103167234135847
"CVOE updated",1001,1,3,20,"U 88","Letter","N",TRUE,"CV","p",1332,"alt","U",8,"v","v",TRUE,1,-0.248248942571199
"CVOE updated",1001,1,3,23,"E 79","Letter","Y",FALSE,"CV","p",3911,"alt","E",9,"v","v",TRUE,1,0.797082452731538
"CVOE updated",1001,1,3,24,"H 72","Letter","N",FALSE,"CV","q",2912,"alt","H",2,"c","c",TRUE,1,0.392163467114076
"CVOE updated",1001,1,3,27,"O 03","Letter","Y",FALSE,"CV","p",1693,"alt","O",3,"v","v",TRUE,1,-0.101926866687412
"CVOE updated",1001,1,3,28,"P 75","Letter","N",TRUE,"CV","q",2342,"alt","P",5,"c","c",TRUE,1,0.161128610455464
"CVOE updated",1001,1,3,31,"A 21","Letter","Y",FALSE,"CV","p",1835,"alt","A",1,"v","v",TRUE,1,-0.0443708146777226
"CVOE updated",1001,1,3,32,"D 18","Letter","N",FALSE,"CV","q",1262,"alt","D",8,"c","c",TRUE,1,-0.276621644266117
"CVOE updated",1001,1,3,35,"I 82","Letter","Y",TRUE,"CV","p",1310,"alt","I",2,"v","v",TRUE,1,-0.257166077389602
"CVOE updated",1001,1,3,36,"J 78","Letter","N",FALSE,"CV","q",1589,"alt","J",8,"c","c",TRUE,1,-0.14408059491986
"CVOE updated",1001,1,3,39,"S 07","Letter","Y",TRUE,"CV","q",2224,"alt","S",7,"c","c",TRUE,1,0.113300341884032
"CVOE updated",1001,1,3,40,"U 36","Letter","N",TRUE,"CV","p",1756,"alt","U",6,"v","v",TRUE,1,-0.0763914351619863
"CVOE updated",1001,1,3,43,"E 60","Letter","Y",TRUE,"CV","p",1906,"alt","E",0,"v","v",TRUE,1,-0.015592788672878
"CVOE updated",1001,1,3,44,"H 83","Letter","N",TRUE,"CV","q",2115,"alt","H",3,"c","c",TRUE,1,0.0691199921019464
"CVOE updated",1001,1,3,47,"O 78","Letter","Y",TRUE,"CV","p",2021,"alt","O",8,"v","v",TRUE,1,0.0310195069687718
"CVOE updated",1001,1,3,48,"P 09","Letter","N",TRUE,"CV","q",2577,"alt","P",9,"c","c",TRUE,1,0.2563798232884
"CVOE updated",1001,1,3,51,"A 31","Letter","Y",FALSE,"CV","p",1817,"alt","A",1,"v","v",TRUE,1,-0.0516666522564156
"CVOE updated",1001,1,3,52,"D 96","Letter","N",FALSE,"CV","q",1437,"alt","D",6,"c","c",TRUE,1,-0.205689890028824
"CVOE updated",1001,1,3,55,"I 15","Letter","Y",FALSE,"CV","p",2131,"alt","I",5,"v","v",TRUE,1,0.0756051810607846
"CVOE updated",1001,1,3,56,"J 07","Letter","N",TRUE,"CV","q",1459,"alt","J",7,"c","c",TRUE,1,-0.196772755210421
"CVOE updated",1001,1,3,59,"S 37","Letter","Y",TRUE,"CV","q",3532,"alt","S",7,"c","c",TRUE,1,0.643464539269057
"CVOE updated",1001,1,3,60,"U 61","Letter","N",FALSE,"CV","p",1453,"alt","U",1,"v","v",TRUE,1,-0.199204701069985
"CVOE updated",1001,1,3,63,"E 20","Letter","Y",TRUE,"CV","p",1957,"alt","E",0,"v","v",TRUE,1,0.00507875113341889
"CVOE updated",1001,1,3,64,"H 86","Letter","N",FALSE,"CV","q",3435,"alt","H",6,"c","c",TRUE,1,0.6041480812061
"CVOE updated",1001,1,3,67,"O 13","Letter","Y",FALSE,"CV","p",1492,"alt","O",3,"v","v",TRUE,1,-0.183397052982817
"CVOE updated",1001,1,3,68,"P 82","Letter","N",FALSE,"CV","q",1444,"alt","P",2,"c","c",TRUE,1,-0.202852619859332
"CVOE updated",1001,1,3,71,"A 49","Letter","Y",FALSE,"CV","p",1658,"alt","A",9,"v","v",TRUE,1,-0.11611321753487
"CVOE updated",1001,1,3,72,"D 91","Letter","N",TRUE,"CV","q",3404,"alt","D",1,"c","c",TRUE,1,0.591583027598351
"CVOE updated",1001,1,3,75,"I 45","Letter","Y",FALSE,"CV","p",1837,"alt","I",5,"v","v",TRUE,1,-0.0435601660578678
"CVOE updated",1001,1,3,76,"J 70","Letter","N",FALSE,"CV","q",4056,"alt","J",0,"c","c",TRUE,1,0.855854477671009
"CVOE updated",1001,1,3,79,"S 93","Letter","Y",TRUE,"CV","q",2476,"alt","S",3,"c","c",TRUE,1,0.215442067985734
"CVOE updated",1001,1,3,80,"U 70","Letter","N",TRUE,"CV","p",1798,"alt","U",0,"v","v",TRUE,1,-0.059367814145036
"CVOE updated",1001,1,3,83,"E 68","Letter","Y",TRUE,"CV","p",2366,"alt","E",8,"v","v",TRUE,1,0.170856393893721
"CVOE updated",1001,1,3,84,"H 17","Letter","N",TRUE,"CV","q",1668,"alt","H",7,"c","c",TRUE,1,-0.112059974435597
"CVOE updated",1001,1,3,87,"O 32","Letter","Y",TRUE,"CV","p",2411,"alt","O",2,"v","v",TRUE,1,0.189095987840454
"CVOE updated",1001,1,3,88,"P 95","Letter","N",TRUE,"CV","q",2119,"alt","P",5,"c","c",TRUE,1,0.070741289341656
"CVOE updated",1001,1,3,91,"A 56","Letter","Y",TRUE,"CV","p",1704,"alt","A",6,"v","v",TRUE,1,-0.0974682992782106
"CVOE updated",1001,1,3,92,"D 57","Letter","N",TRUE,"CV","q",1529,"alt","D",7,"c","c",TRUE,1,-0.168400053515504
"CVOE updated",1001,1,3,95,"I 35","Letter","Y",FALSE,"CV","p",1345,"alt","I",5,"v","v",TRUE,1,-0.242979726542143
"CVOE updated",1001,1,3,96,"J 03","Letter","N",TRUE,"CV","q",2167,"alt","J",3,"c","c",TRUE,1,0.0901968562181706
"CVOE updated",1001,1,3,99,"S 77","Letter","Y",TRUE,"CV","q",5550,"alt","S",7,"c","c",TRUE,1,1.46140899670253
"CVOE updated",1001,1,3,100,"U 05","Letter","N",FALSE,"CV","p",1503,"alt","U",5,"v","v",TRUE,1,-0.178938485573616
"CVOE updated",1001,1,3,103,"E 02","Letter","Y",TRUE,"CV","p",2010,"alt","E",2,"v","v",TRUE,1,0.0265609395595705
"CVOE updated",1001,1,3,104,"H 68","Letter","N",FALSE,"CV","q",2854,"alt","H",8,"c","c",TRUE,1,0.368654657138287
"CVOE updated",1001,1,3,107,"O 73","Letter","Y",FALSE,"CV","p",1689,"alt","O",3,"v","v",TRUE,1,-0.103548163927121
"CVOE updated",1001,1,3,108,"P 41","Letter","N",TRUE,"CV","q",1698,"alt","P",1,"c","c",TRUE,1,-0.0999002451377749
"CVOE updated",1001,1,3,111,"A 09","Letter","Y",FALSE,"CV","p",1782,"alt","A",9,"v","v",TRUE,1,-0.0658530031038742
"CVOE updated",1001,1,3,112,"D 92","Letter","N",FALSE,"CV","q",2492,"alt","D",2,"c","c",TRUE,1,0.221927256944572
"CVOE updated",1001,1,3,115,"I 44","Letter","Y",TRUE,"CV","p",2021,"alt","I",4,"v","v",TRUE,1,0.0310195069687718
"CVOE updated",1001,1,3,116,"J 67","Letter","N",TRUE,"CV","q",1969,"alt","J",7,"c","c",TRUE,1,0.00994264285254756
"CVOE updated",1001,1,3,119,"S 86","Letter","Y",FALSE,"CV","q",1540,"alt","S",6,"c","c",TRUE,1,-0.163941486106302
"CVOE updated",1001,1,3,120,"U 35","Letter","N",FALSE,"CV","p",1818,"alt","U",5,"v","v",TRUE,1,-0.0512613279464882
"CVOE updated",1001,1,3,123,"E 91","Letter","Y",FALSE,"CV","p",1879,"alt","E",1,"v","v",TRUE,1,-0.0265365450409175
"CVOE updated",1001,1,3,124,"H 54","Letter","N",FALSE,"CV","q",4624,"alt","H",4,"c","c",TRUE,1,1.08607868570977
"CVOE updated",1001,1,3,127,"O 19","Letter","Y",FALSE,"CV","p",2650,"alt","O",9,"v","v",TRUE,1,0.2859684979131
"CVOE updated",1001,1,3,128,"P 48","Letter","N",FALSE,"CV","q",3485,"alt","P",8,"c","c",TRUE,1,0.62441429670247
"CVOE updated",1001,1,4,3,"U 95","Letter","Y",FALSE,"CV","p",2676,"shuf","U",5,"v","v",TRUE,1,0.296506929971212
"CVOE updated",1001,1,4,7,"A 56","Letter","Y",TRUE,"CV","p",1739,"shuf","A",6,"v","v",TRUE,1,-0.083281948430752
"CVOE updated",1001,1,4,8,"H 78","Letter","N",FALSE,"CV","q",2139,"shuf","H",8,"c","c",TRUE,1,0.0788477755402037
"CVOE updated",1001,1,4,9,"P 92","Letter","N",FALSE,"CV","q",1514,"shuf","P",2,"c","c",TRUE,1,-0.174479918164415
"CVOE updated",1001,1,4,11,"P 57","Letter","Y",TRUE,"CV","q",2565,"shuf","P",7,"c","c",TRUE,1,0.251515931569272
"CVOE updated",1001,1,4,13,"O 89","Letter","Y",FALSE,"CV","p",1857,"shuf","O",9,"v","v",TRUE,1,-0.03545367985932
"CVOE updated",1001,1,4,16,"S 07","Letter","Y",TRUE,"CV","q",1999,"shuf","S",7,"c","c",TRUE,1,0.0221023721503692
"CVOE updated",1001,1,4,17,"J 10","Letter","N",FALSE,"CV","q",1131,"shuf","J",0,"c","c",TRUE,1,-0.329719128866605
"CVOE updated",1001,1,4,20,"J 36","Letter","Y",FALSE,"CV","q",2937,"shuf","J",6,"c","c",TRUE,1,0.40229657486226
"CVOE updated",1001,1,4,21,"I 94","Letter","N",TRUE,"CV","p",1785,"shuf","I",4,"v","v",TRUE,1,-0.0646370301740921
"CVOE updated",1001,1,4,22,"A 82","Letter","N",TRUE,"CV","p",1614,"shuf","A",2,"v","v",TRUE,1,-0.133947487171676
"CVOE updated",1001,1,4,25,"S 28","Letter","Y",FALSE,"CV","q",1106,"shuf","S",8,"c","c",TRUE,1,-0.339852236614789
"CVOE updated",1001,1,4,30,"S 35","Letter","Y",TRUE,"CV","q",1798,"shuf","S",5,"c","c",TRUE,1,-0.059367814145036
"CVOE updated",1001,1,4,34,"U 95","Letter","Y",FALSE,"CV","p",1852,"shuf","U",5,"v","v",TRUE,1,-0.037480301408957
"CVOE updated",1001,1,4,35,"A 53","Letter","N",FALSE,"CV","p",1575,"shuf","A",3,"v","v",TRUE,1,-0.149755135258844
"CVOE updated",1001,1,4,36,"E 43","Letter","N",FALSE,"CV","p",332,"shuf","E",3,"v","v",TRUE,1,-0.653573252498589
"CVOE updated",1001,1,4,38,"O 19","Letter","Y",FALSE,"CV","p",4498,"shuf","O",9,"v","v",TRUE,1,1.03500782265891
"CVOE updated",1001,1,4,43,"P 79","Letter","Y",TRUE,"CV","q",1851,"shuf","P",9,"c","c",TRUE,1,-0.0378856257188844
"CVOE updated",1001,1,4,48,"E 54","Letter","Y",TRUE,"CV","p",1412,"shuf","E",4,"v","v",TRUE,1,-0.215822997777008
"CVOE updated",1001,1,4,49,"A 53","Letter","N",FALSE,"CV","p",1480,"shuf","A",3,"v","v",TRUE,1,-0.188260944701946
"CVOE updated",1001,1,4,50,"P 34","Letter","N",FALSE,"CV","q",1809,"shuf","P",4,"c","c",TRUE,1,-0.0549092467358347
"CVOE updated",1001,1,4,52,"A 03","Letter","Y",FALSE,"CV","p",1676,"shuf","A",3,"v","v",TRUE,1,-0.108817379956177
"CVOE updated",1001,1,4,54,"I 58","Letter","Y",TRUE,"CV","p",1987,"shuf","I",8,"v","v",TRUE,1,0.0172384804312406
"CVOE updated",1001,1,4,57,"I 20","Letter","Y",TRUE,"CV","p",1695,"shuf","I",0,"v","v",TRUE,1,-0.101116218067557
"CVOE updated",1001,1,4,58,"J 52","Letter","N",FALSE,"CV","q",1928,"shuf","J",2,"c","c",TRUE,1,-0.0066756538544754
"CVOE updated",1001,1,4,60,"I 60","Letter","Y",TRUE,"CV","p",2495,"shuf","I",0,"v","v",TRUE,1,0.223143229874354
"CVOE updated",1001,1,4,62,"D 63","Letter","Y",TRUE,"CV","q",2800,"shuf","D",3,"c","c",TRUE,1,0.346767144402208
"CVOE updated",1001,1,4,63,"U 27","Letter","N",FALSE,"CV","p",1381,"shuf","U",7,"v","v",TRUE,1,-0.228388051384757
"CVOE updated",1001,1,4,64,"J 77","Letter","N",TRUE,"CV","q",1050,"shuf","J",7,"c","c",TRUE,1,-0.362550397970723
"CVOE updated",1001,1,4,66,"J 20","Letter","Y",FALSE,"CV","q",3392,"shuf","J",0,"c","c",TRUE,1,0.586719135879223
"CVOE updated",1001,1,4,69,"O 04","Letter","Y",TRUE,"CV","p",1503,"shuf","O",4,"v","v",TRUE,1,-0.178938485573616
"CVOE updated",1001,1,4,70,"E 10","Letter","N",TRUE,"CV","p",1672,"shuf","E",0,"v","v",TRUE,1,-0.110438677195887
"CVOE updated",1001,1,4,71,"I 52","Letter","N",TRUE,"CV","p",1337,"shuf","I",2,"v","v",TRUE,1,-0.246222321021562
"CVOE updated",1001,1,4,74,"U 19","Letter","Y",FALSE,"CV","p",1985,"shuf","U",9,"v","v",TRUE,1,0.0164278318113858
"CVOE updated",1001,1,4,77,"P 93","Letter","Y",TRUE,"CV","q",1646,"shuf","P",3,"c","c",TRUE,1,-0.120977109253999
"CVOE updated",1001,1,4,78,"E 59","Letter","N",FALSE,"CV","p",3297,"shuf","E",9,"v","v",TRUE,1,0.548213326436121
"CVOE updated",1001,1,4,79,"O 53","Letter","N",FALSE,"CV","p",1066,"shuf","O",3,"v","v",TRUE,1,-0.356065209011885
"CVOE updated",1001,1,4,80,"A 96","Letter","N",TRUE,"CV","p",1044,"shuf","A",6,"v","v",TRUE,1,-0.364982343830287
"CVOE updated",1001,1,4,81,"H 36","Letter","Y",FALSE,"CV","q",1310,"shuf","H",6,"c","c",TRUE,1,-0.257166077389602
"CVOE updated",1001,1,4,82,"A 63","Letter","N",FALSE,"CV","p",1061,"shuf","A",3,"v","v",TRUE,1,-0.358091830561522
"CVOE updated",1001,1,4,83,"I 38","Letter","N",TRUE,"CV","p",983,"shuf","I",8,"v","v",TRUE,1,-0.389707126735858
"CVOE updated",1001,1,4,86,"S 34","Letter","Y",FALSE,"CV","q",1604,"shuf","S",4,"c","c",TRUE,1,-0.13800073027095
"CVOE updated",1001,1,4,89,"I 73","Letter","Y",FALSE,"CV","p",1576,"shuf","I",3,"v","v",TRUE,1,-0.149349810948916
"CVOE updated",1001,1,4,92,"P 72","Letter","Y",FALSE,"CV","q",2875,"shuf","P",2,"c","c",TRUE,1,0.377166467646762
"CVOE updated",1001,1,4,94,"U 25","Letter","Y",FALSE,"CV","p",1673,"shuf","U",5,"v","v",TRUE,1,-0.11003335288596
"CVOE updated",1001,1,4,95,"O 32","Letter","N",TRUE,"CV","p",2051,"shuf","O",2,"v","v",TRUE,1,0.0431792362665935
"CVOE updated",1001,1,4,96,"E 80","Letter","N",TRUE,"CV","p",1237,"shuf","E",0,"v","v",TRUE,1,-0.286754752014301
"CVOE updated",1001,1,4,100,"U 35","Letter","Y",FALSE,"CV","p",1938,"shuf","U",5,"v","v",TRUE,1,-0.0026224107552015
"CVOE updated",1001,1,4,101,"H 14","Letter","N",FALSE,"CV","q",1818,"shuf","H",4,"c","c",TRUE,1,-0.0512613279464882
"CVOE updated",1001,1,4,103,"E 36","Letter","Y",TRUE,"CV","p",1212,"shuf","E",6,"v","v",TRUE,1,-0.296887859762486
"CVOE updated",1001,1,4,104,"P 70","Letter","N",FALSE,"CV","q",1080,"shuf","P",0,"c","c",TRUE,1,-0.350390668672902
"CVOE updated",1001,1,4,106,"S 41","Letter","Y",TRUE,"CV","q",2136,"shuf","S",1,"c","c",TRUE,1,0.0776318026104216
"CVOE updated",1001,1,4,107,"D 83","Letter","N",TRUE,"CV","q",1280,"shuf","D",3,"c","c",TRUE,1,-0.269325806687424
"CVOE updated",1001,1,4,108,"J 39","Letter","N",TRUE,"CV","q",1249,"shuf","J",9,"c","c",TRUE,1,-0.281890860295173
"CVOE updated",1001,1,4,110,"D 89","Letter","Y",TRUE,"CV","q",1578,"shuf","D",9,"c","c",TRUE,1,-0.148539162329062
"CVOE updated",1001,1,4,111,"P 87","Letter","N",TRUE,"CV","q",1575,"shuf","P",7,"c","c",TRUE,1,-0.149755135258844
"CVOE updated",1001,1,4,112,"H 42","Letter","N",FALSE,"CV","q",1093,"shuf","H",2,"c","c",TRUE,1,-0.345121452643845
"CVOE updated",1001,1,4,113,"S 49","Letter","N",TRUE,"CV","q",1373,"shuf","S",9,"c","c",TRUE,1,-0.231630645864176
"CVOE updated",1001,1,4,115,"O 19","Letter","Y",FALSE,"CV","p",2019,"shuf","O",9,"v","v",TRUE,1,0.030208858348917
"CVOE updated",1001,1,4,116,"H 50","Letter","N",FALSE,"CV","q",1727,"shuf","H",0,"c","c",TRUE,1,-0.0881458401498806
"CVOE_C",2003,1,3,12,"D 94","Letter","N",FALSE,"CV","q",4121,"alt","D",4,"c","c",TRUE,1,0.882200557816289
"CVOE_C",2003,1,3,15,"I 64","Letter","Y",TRUE,"CV","p",2268,"alt","I",4,"v","v",TRUE,1,0.131134611520837
"CVOE_C",2003,1,3,16,"J 54","Letter","N",FALSE,"CV","q",2030,"alt","J",4,"c","c",TRUE,1,0.0346674257581183
"CVOE_C",2003,1,3,19,"S 34","Letter","Y",FALSE,"CV","q",3822,"alt","S",4,"c","c",TRUE,1,0.761008589148
"CVOE_C",2003,1,3,20,"U 88","Letter","N",TRUE,"CV","p",2179,"alt","U",8,"v","v",TRUE,1,0.0950607479372993
"CVOE_C",2003,1,3,23,"E 79","Letter","Y",FALSE,"CV","p",2963,"alt","E",9,"v","v",TRUE,1,0.412835006920373
"CVOE_C",2003,1,3,24,"H 72","Letter","N",FALSE,"CV","q",3080,"alt","H",2,"c","c",TRUE,1,0.460257951181877
"CVOE_C",2003,1,3,27,"O 03","Letter","Y",FALSE,"CV","p",1987,"alt","O",3,"v","v",TRUE,1,0.0172384804312406
"CVOE_C",2003,1,3,28,"P 75","Letter","N",TRUE,"CV","q",1480,"alt","P",5,"c","c",TRUE,1,-0.188260944701946
"CVOE_C",2003,1,3,31,"A 21","Letter","Y",FALSE,"CV","p",1231,"alt","A",1,"v","v",TRUE,1,-0.289186697873866
"CVOE_C",2003,1,3,32,"D 18","Letter","N",FALSE,"CV","q",1386,"alt","D",8,"c","c",TRUE,1,-0.22636142983512
"CVOE_C",2003,1,3,35,"I 82","Letter","Y",TRUE,"CV","p",1656,"alt","I",2,"v","v",TRUE,1,-0.116923866154725
"CVOE_C",2003,1,3,36,"J 78","Letter","N",FALSE,"CV","q",1410,"alt","J",8,"c","c",TRUE,1,-0.216633646396863
"CVOE_C",2003,1,3,39,"S 07","Letter","Y",TRUE,"CV","q",1714,"alt","S",7,"c","c",TRUE,1,-0.0934150561789367
"CVOE_C",2003,1,3,40,"U 36","Letter","N",TRUE,"CV","p",1322,"alt","U",6,"v","v",TRUE,1,-0.252302185670473
"CVOE_C",2003,1,3,43,"E 60","Letter","Y",TRUE,"CV","p",2868,"alt","E",0,"v","v",TRUE,1,0.374329197477271
"CVOE_C",2003,1,3,44,"H 83","Letter","N",TRUE,"CV","q",2231,"alt","H",3,"c","c",TRUE,1,0.116137612053524
"CVOE_C",2003,1,3,47,"O 78","Letter","Y",TRUE,"CV","p",1389,"alt","O",8,"v","v",TRUE,1,-0.225145456905338
"CVOE_C",2003,1,3,48,"P 09","Letter","N",TRUE,"CV","q",2058,"alt","P",9,"c","c",TRUE,1,0.0460165064360852
"CVOE_C",2003,1,3,51,"A 31","Letter","Y",FALSE,"CV","q",828,"alt","A",1,"v","c",FALSE,0,-0.452532394774604
"CVOE_C",2003,1,3,52,"D 96","Letter","N",FALSE,"CV","q",2903,"alt","D",6,"c","c",TRUE,1,0.388515548324729
"CVOE_C",2003,1,3,55,"I 15","Letter","Y",FALSE,"CV","p",1166,"alt","I",5,"v","v",TRUE,1,-0.315532778019146
"CVOE_C",2003,1,3,56,"J 07","Letter","N",TRUE,"CV","q",2652,"alt","J",7,"c","c",TRUE,1,0.286779146532954
"CVOE_C",2003,1,3,59,"S 37","Letter","Y",TRUE,"CV","q",3884,"alt","S",7,"c","c",TRUE,1,0.786138696363498
"CVOE_C",2003,1,3,60,"U 61","Letter","N",FALSE,"CV","p",1655,"alt","U",1,"v","v",TRUE,1,-0.117329190464653
"CVOE_C",2003,1,3,63,"E 20","Letter","Y",TRUE,"CV","p",1628,"alt","E",0,"v","v",TRUE,1,-0.128272946832692
"CVOE_C",2003,1,3,64,"H 86","Letter","N",FALSE,"CV","q",1248,"alt","H",6,"c","c",TRUE,1,-0.2822961846051
"CVOE_C",2003,1,3,67,"O 13","Letter","Y",FALSE,"CV","p",1386,"alt","O",3,"v","v",TRUE,1,-0.22636142983512
"CVOE_C",2003,1,3,68,"P 82","Letter","N",FALSE,"CV","q",1679,"alt","P",2,"c","c",TRUE,1,-0.107601407026395
"CVOE_C",2003,1,3,71,"A 49","Letter","Y",FALSE,"CV","p",1683,"alt","A",9,"v","v",TRUE,1,-0.105980109786686
"CVOE_C",2003,1,3,72,"D 91","Letter","N",TRUE,"CV","q",2180,"alt","D",1,"c","c",TRUE,1,0.0954660722472267
"CVOE_C",2003,1,3,75,"I 45","Letter","Y",FALSE,"CV","p",1254,"alt","I",5,"v","v",TRUE,1,-0.279864238745536
"CVOE_C",2003,1,3,76,"J 70","Letter","N",FALSE,"CV","q",1224,"alt","J",0,"c","c",TRUE,1,-0.292023968043357
"CVOE_C",2003,1,3,79,"S 93","Letter","Y",TRUE,"CV","q",1466,"alt","S",3,"c","c",TRUE,1,-0.193935485040929
"CVOE_C",2003,1,3,80,"U 70","Letter","N",TRUE,"CV","p",1796,"alt","U",0,"v","v",TRUE,1,-0.0601784627648908
"CVOE_C",2003,1,3,83,"E 68","Letter","Y",TRUE,"CV","p",1310,"alt","E",8,"v","v",TRUE,1,-0.257166077389602
"CVOE_C",2003,1,3,84,"H 17","Letter","N",TRUE,"CV","q",1549,"alt","H",7,"c","c",TRUE,1,-0.160293567316956
"CVOE_C",2003,1,3,87,"O 32","Letter","Y",TRUE,"CV","p",1221,"alt","O",2,"v","v",TRUE,1,-0.29323994097314
"CVOE_C",2003,1,3,88,"P 95","Letter","N",TRUE,"CV","q",1224,"alt","P",5,"c","c",TRUE,1,-0.292023968043357
"CVOE_C",2003,1,3,91,"A 56","Letter","Y",TRUE,"CV","p",1303,"alt","A",6,"v","v",TRUE,1,-0.260003347559094
"CVOE_C",2003,1,3,92,"D 57","Letter","N",TRUE,"CV","q",1376,"alt","D",7,"c","c",TRUE,1,-0.230414672934394
"CVOE_C",2003,1,3,95,"I 35","Letter","Y",FALSE,"CV","p",893,"alt","I",5,"v","v",TRUE,1,-0.426186314629323
"CVOE_C",2003,1,3,96,"J 03","Letter","N",TRUE,"CV","q",1653,"alt","J",3,"c","c",TRUE,1,-0.118139839084507
"CVOE_C",2003,1,3,99,"S 77","Letter","Y",TRUE,"CV","q",1411,"alt","S",7,"c","c",TRUE,1,-0.216228322086936
"CVOE_C",2003,1,3,100,"U 05","Letter","N",FALSE,"CV","p",742,"alt","U",5,"v","v",TRUE,1,-0.487390285428359
"CVOE_C",2003,1,3,103,"E 02","Letter","Y",TRUE,"CV","p",850,"alt","E",2,"v","v",TRUE,1,-0.443615259956201
"CVOE_C",2003,1,3,104,"H 68","Letter","N",FALSE,"CV","q",1356,"alt","H",8,"c","c",TRUE,1,-0.238521159132942
"CVOE_C",2003,1,3,107,"O 73","Letter","Y",FALSE,"CV","p",1323,"alt","O",3,"v","v",TRUE,1,-0.251896861360546
"CVOE_C",2003,1,3,108,"P 41","Letter","N",TRUE,"CV","q",1307,"alt","P",1,"c","c",TRUE,1,-0.258382050319384
"CVOE_C",2003,1,3,111,"A 09","Letter","Y",FALSE,"CV","p",1313,"alt","A",9,"v","v",TRUE,1,-0.25595010445982
"CVOE_C",2003,1,3,112,"D 92","Letter","N",FALSE,"CV","q",1057,"alt","D",2,"c","c",TRUE,1,-0.359713127801231
"CVOE_C",2003,1,3,115,"I 44","Letter","Y",TRUE,"CV","p",925,"alt","I",4,"v","v",TRUE,1,-0.413215936711647
"CVOE_C",2003,1,3,116,"J 67","Letter","N",TRUE,"CV","q",1460,"alt","J",7,"c","c",TRUE,1,-0.196367430900494
"CVOE_C",2003,1,3,119,"S 86","Letter","Y",FALSE,"CV","q",1081,"alt","S",6,"c","c",TRUE,1,-0.349985344362974
"CVOE_C",2003,1,3,120,"U 35","Letter","N",FALSE,"CV","p",753,"alt","U",5,"v","v",TRUE,1,-0.482931718019158
"CVOE_C",2003,1,3,123,"E 91","Letter","Y",FALSE,"CV","p",1896,"alt","E",1,"v","v",TRUE,1,-0.0196460317721519
"CVOE_C",2003,1,3,124,"H 54","Letter","N",FALSE,"CV","q",1696,"alt","H",4,"c","c",TRUE,1,-0.10071089375763
"CVOE_C",2003,1,3,127,"O 19","Letter","Y",FALSE,"CV","p",2056,"alt","O",9,"v","v",TRUE,1,0.0452058578162304
"CVOE_C",2003,1,3,128,"P 48","Letter","N",FALSE,"CV","q",2154,"alt","P",8,"c","c",TRUE,1,0.0849276401891146
"CVOE_C",2003,1,4,3,"U 95","Letter","Y",FALSE,"CV","q",3392,"shuf","U",5,"v","c",FALSE,0,0.586719135879223
"CVOE_C",2003,1,4,7,"A 56","Letter","Y",TRUE,"CV","p",2494,"shuf","A",6,"v","v",TRUE,1,0.222737905564427
"CVOE_C",2003,1,4,8,"H 78","Letter","N",FALSE,"CV","p",1271,"shuf","H",8,"c","v",FALSE,0,-0.27297372547677
"CVOE_C",2003,1,4,9,"P 92","Letter","N",FALSE,"CV","p",1152,"shuf","P",2,"c","v",FALSE,0,-0.321207318358129
"CVOE_C",2003,1,4,11,"P 57","Letter","Y",TRUE,"CV","q",1191,"shuf","P",7,"c","c",TRUE,1,-0.305399670270961
"CVOE_C",2003,1,4,13,"O 89","Letter","Y",FALSE,"CV","q",1111,"shuf","O",9,"v","c",FALSE,0,-0.337825615065152
"CVOE_C",2003,1,4,16,"S 07","Letter","Y",TRUE,"CV","q",2008,"shuf","S",7,"c","c",TRUE,1,0.0257502909397157
"CVOE_C",2003,1,4,17,"J 10","Letter","N",FALSE,"CV","p",1612,"shuf","J",0,"c","v",FALSE,0,-0.13475813579153
"CVOE_C",2003,1,4,20,"J 36","Letter","Y",FALSE,"CV","p",1061,"shuf","J",6,"c","v",FALSE,0,-0.358091830561522
"CVOE_C",2003,1,4,21,"I 94","Letter","N",TRUE,"CV","p",3278,"shuf","I",4,"v","v",TRUE,1,0.5405121645475
"CVOE_C",2003,1,4,22,"A 82","Letter","N",TRUE,"CV","p",1288,"shuf","A",2,"v","v",TRUE,1,-0.266083212208005
"CVOE_C",2003,1,4,25,"S 28","Letter","Y",FALSE,"CV","p",1688,"shuf","S",8,"c","v",FALSE,0,-0.103953488237049
"CVOE_C",2003,1,4,30,"S 35","Letter","Y",TRUE,"CV","q",1136,"shuf","S",5,"c","c",TRUE,1,-0.327692507316968
"CVOE_C",2003,1,4,34,"U 95","Letter","Y",FALSE,"CV","q",3711,"shuf","U",5,"v","c",FALSE,0,0.71601759074606
"CVOE_C",2003,1,4,35,"A 53","Letter","N",FALSE,"CV","q",1736,"shuf","A",3,"v","c",FALSE,0,-0.0844979213605341
"CVOE_C",2003,1,4,36,"E 43","Letter","N",FALSE,"CV","q",800,"shuf","E",3,"v","c",FALSE,0,-0.463881475452571
"CVOE_C",2003,1,4,38,"O 19","Letter","Y",FALSE,"CV","q",1034,"shuf","O",9,"v","c",FALSE,0,-0.369035586929561
"CVOE_C",2003,1,4,43,"P 79","Letter","Y",TRUE,"CV","q",1180,"shuf","P",9,"c","c",TRUE,1,-0.309858237680163
"CVOE_C",2003,1,4,48,"E 54","Letter","Y",TRUE,"CV","p",1162,"shuf","E",4,"v","v",TRUE,1,-0.317154075258856
"CVOE_C",2003,1,4,49,"A 53","Letter","N",FALSE,"CV","q",928,"shuf","A",3,"v","c",FALSE,0,-0.411999963781865
"CVOE_C",2003,1,4,50,"P 34","Letter","N",FALSE,"CV","p",2390,"shuf","P",4,"c","v",FALSE,0,0.180584177331978
"CVOE_C",2003,1,4,52,"A 03","Letter","Y",FALSE,"CV","q",788,"shuf","A",3,"v","c",FALSE,0,-0.468745367171699
"CVOE_C",2003,1,4,54,"I 58","Letter","Y",TRUE,"CV","p",801,"shuf","I",8,"v","v",TRUE,1,-0.463476151142643
"CVOE_C",2003,1,4,57,"I 20","Letter","Y",TRUE,"CV","p",913,"shuf","I",0,"v","v",TRUE,1,-0.418079828430776
"CVOE_C",2003,1,4,58,"J 52","Letter","N",FALSE,"CV","p",3184,"shuf","J",2,"c","v",FALSE,0,0.502411679414326
"CVOE_C",2003,1,4,60,"I 60","Letter","Y",TRUE,"CV","p",741,"shuf","I",0,"v","v",TRUE,1,-0.487795609738286
"CVOE_C",2003,1,4,62,"D 63","Letter","Y",TRUE,"CV","q",836,"shuf","D",3,"c","c",TRUE,1,-0.449289800295185
"CVOE_C",2003,1,4,63,"U 27","Letter","N",FALSE,"CV","q",750,"shuf","U",7,"v","c",FALSE,0,-0.48414769094894
"CVOE_C",2003,1,4,64,"J 77","Letter","N",TRUE,"CV","q",916,"shuf","J",7,"c","c",TRUE,1,-0.416863855500993
"CVOE_C",2003,1,4,66,"J 20","Letter","Y",FALSE,"CV","p",1917,"shuf","J",0,"c","v",FALSE,0,-0.0111342212636767
"CVOE_C",2003,1,4,69,"O 04","Letter","Y",TRUE,"CV","p",837,"shuf","O",4,"v","v",TRUE,1,-0.448884475985257
"CVOE_C",2003,1,4,70,"E 10","Letter","N",TRUE,"CV","p",1040,"shuf","E",0,"v","v",TRUE,1,-0.366603641069997
"CVOE_C",2003,1,4,71,"I 52","Letter","N",TRUE,"CV","p",1042,"shuf","I",2,"v","v",TRUE,1,-0.365792992450142
"CVOE_C",2003,1,4,74,"U 19","Letter","Y",FALSE,"CV","q",1159,"shuf","U",9,"v","c",FALSE,0,-0.318370048188638
"CVOE_C",2003,1,4,77,"P 93","Letter","Y",TRUE,"CV","q",920,"shuf","P",3,"c","c",TRUE,1,-0.415242558261284
"CVOE_C",2003,1,4,78,"E 59","Letter","N",FALSE,"CV","q",1039,"shuf","E",9,"v","c",FALSE,0,-0.367008965379924
"CVOE_C",2003,1,4,79,"O 53","Letter","N",FALSE,"CV","q",674,"shuf","O",3,"v","c",FALSE,0,-0.514952338503422
"CVOE_C",2003,1,4,80,"A 96","Letter","N",TRUE,"CV","p",2699,"shuf","A",6,"v","v",TRUE,1,0.305829389099542
"CVOE_C",2003,1,4,81,"H 36","Letter","Y",FALSE,"CV","p",4292,"shuf","H",6,"c","v",FALSE,0,0.951511014813873
"CVOE_C",2003,1,4,82,"A 63","Letter","N",FALSE,"CV","q",878,"shuf","A",3,"v","c",FALSE,0,-0.432266179278234
"CVOE_C",2003,1,4,83,"I 38","Letter","N",TRUE,"CV","p",831,"shuf","I",8,"v","v",TRUE,1,-0.451316421844821
"CVOE_C",2003,1,4,86,"S 34","Letter","Y",FALSE,"CV","p",915,"shuf","S",4,"c","v",FALSE,0,-0.417269179810921
"CVOE_C",2003,1,4,89,"I 73","Letter","Y",FALSE,"CV","q",1663,"shuf","I",3,"v","c",FALSE,0,-0.114086595985234
"CVOE_C",2003,1,4,92,"P 72","Letter","Y",FALSE,"CV","p",1015,"shuf","P",2,"c","v",FALSE,0,-0.376736748818182
"CVOE_C",2003,1,4,94,"U 25","Letter","Y",FALSE,"CV","q",4298,"shuf","U",5,"v","c",FALSE,0,0.953942960673437
"CVOE_C",2003,1,4,95,"O 32","Letter","N",TRUE,"CV","p",2508,"shuf","O",2,"v","v",TRUE,1,0.22841244590341
"CVOE_C",2003,1,4,96,"E 80","Letter","N",TRUE,"CV","p",997,"shuf","E",0,"v","v",TRUE,1,-0.384032586396875
"CVOE_C",2003,1,4,100,"U 35","Letter","Y",FALSE,"CV","q",2038,"shuf","U",5,"v","c",FALSE,0,0.0379100202375374
"CVOE_C",2003,1,4,101,"H 14","Letter","N",FALSE,"CV","p",1450,"shuf","H",4,"c","v",FALSE,0,-0.200420673999767
"CVOE_C",2003,1,4,103,"E 36","Letter","Y",TRUE,"CV","p",1165,"shuf","E",6,"v","v",TRUE,1,-0.315938102329073
"CVOE_C",2003,1,4,104,"P 70","Letter","N",FALSE,"CV","p",1162,"shuf","P",0,"c","v",FALSE,0,-0.317154075258856
"CVOE_C",2003,1,4,106,"S 41","Letter","Y",TRUE,"CV","q",775,"shuf","S",1,"c","c",TRUE,1,-0.474014583200755
"CVOE_C",2003,1,4,107,"D 83","Letter","N",TRUE,"CV","q",996,"shuf","D",3,"c","c",TRUE,1,-0.384437910706802
"CVOE_C",2003,1,4,108,"J 39","Letter","N",TRUE,"CV","q",1072,"shuf","J",9,"c","c",TRUE,1,-0.353633263152321
"CVOE_C",2003,1,4,110,"D 89","Letter","Y",TRUE,"CV","q",1017,"shuf","D",9,"c","c",TRUE,1,-0.375926100198327
"CVOE_C",2003,1,4,111,"P 87","Letter","N",TRUE,"CV","q",1061,"shuf","P",7,"c","c",TRUE,1,-0.358091830561522
"CVOE_C",2003,1,4,112,"H 42","Letter","N",FALSE,"CV","p",1534,"shuf","H",2,"c","v",FALSE,0,-0.166373431965867
"CVOE_C",2003,1,4,113,"S 49","Letter","N",TRUE,"CV","q",941,"shuf","S",9,"c","c",TRUE,1,-0.406730747752809
"CVOE_C",2003,1,4,115,"O 19","Letter","Y",FALSE,"CV","q",2103,"shuf","O",9,"v","c",FALSE,0,0.0642561003828177
"CVOE_C",2003,1,4,116,"H 50","Letter","N",FALSE,"CV","p",927,"shuf","H",0,"c","v",FALSE,0,-0.412405288091792
"CVOE updated",1001,1,3,13,"E 75","Number","Y",FALSE,"OE","q",2554,"alt","E",5,"o","o",TRUE,1,0.24705736416007
"CVOE updated",1001,1,3,14,"H 81","Number","N",TRUE,"OE","q",1177,"alt","H",1,"o","o",TRUE,1,-0.311074210609945
"CVOE updated",1001,1,3,17,"O 23","Number","Y",FALSE,"OE","q",1781,"alt","O",3,"o","o",TRUE,1,-0.0662583274138016
"CVOE updated",1001,1,3,18,"P 05","Number","N",TRUE,"OE","q",1403,"alt","P",5,"o","o",TRUE,1,-0.219470916566355
"CVOE updated",1001,1,3,21,"A 70","Number","Y",TRUE,"OE","p",3851,"alt","A",0,"e","e",TRUE,1,0.772762994135894
"CVOE updated",1001,1,3,22,"D 12","Number","N",FALSE,"OE","p",1694,"alt","D",2,"e","e",TRUE,1,-0.101521542377484
"CVOE updated",1001,1,3,25,"I 41","Number","Y",FALSE,"OE","q",1513,"alt","I",1,"o","o",TRUE,1,-0.174885242474342
"CVOE updated",1001,1,3,26,"J 63","Number","N",TRUE,"OE","q",2600,"alt","J",3,"o","o",TRUE,1,0.26570228241673
"CVOE updated",1001,1,3,29,"S 61","Number","Y",TRUE,"OE","q",1557,"alt","S",1,"o","o",TRUE,1,-0.157050972837537
"CVOE updated",1001,1,3,30,"U 28","Number","N",TRUE,"OE","p",1731,"alt","U",8,"e","e",TRUE,1,-0.0865245429101711
"CVOE updated",1001,1,3,33,"E 35","Number","Y",FALSE,"OE","q",1375,"alt","E",5,"o","o",TRUE,1,-0.230819997244322
"CVOE updated",1001,1,3,34,"H 62","Number","N",FALSE,"OE","p",1676,"alt","H",2,"e","e",TRUE,1,-0.108817379956177
"CVOE updated",1001,1,3,37,"O 12","Number","Y",TRUE,"OE","p",1371,"alt","O",2,"e","e",TRUE,1,-0.232441294484031
"CVOE updated",1001,1,3,38,"P 13","Number","N",TRUE,"OE","q",4352,"alt","P",3,"o","o",TRUE,1,0.975830473409516
"CVOE updated",1001,1,3,41,"A 96","Number","Y",TRUE,"OE","p",2475,"alt","A",6,"e","e",TRUE,1,0.215036743675807
"CVOE updated",1001,1,3,42,"D 04","Number","N",FALSE,"OE","p",1141,"alt","D",4,"e","e",TRUE,1,-0.325665885767331
"CVOE updated",1001,1,3,45,"I 64","Number","Y",TRUE,"OE","p",1307,"alt","I",4,"e","e",TRUE,1,-0.258382050319384
"CVOE updated",1001,1,3,46,"J 76","Number","N",FALSE,"OE","p",1668,"alt","J",6,"e","e",TRUE,1,-0.112059974435597
"CVOE updated",1001,1,3,49,"S 72","Number","Y",FALSE,"OE","p",1175,"alt","S",2,"e","e",TRUE,1,-0.3118848592298
"CVOE updated",1001,1,3,50,"U 47","Number","N",FALSE,"OE","q",1188,"alt","U",7,"o","o",TRUE,1,-0.306615643200743
"CVOE updated",1001,1,3,53,"E 40","Number","Y",TRUE,"OE","p",1744,"alt","E",0,"e","e",TRUE,1,-0.081255326881115
"CVOE updated",1001,1,3,54,"H 79","Number","N",TRUE,"OE","q",1182,"alt","H",9,"o","o",TRUE,1,-0.309047589060308
"CVOE updated",1001,1,3,57,"O 61","Number","Y",FALSE,"OE","q",2189,"alt","O",1,"o","o",TRUE,1,0.0991139910365732
"CVOE updated",1001,1,3,58,"P 58","Number","N",FALSE,"OE","p",2458,"alt","P",8,"e","e",TRUE,1,0.208146230407041
"CVOE updated",1001,1,3,61,"A 17","Number","Y",FALSE,"OE","q",2023,"alt","A",7,"o","o",TRUE,1,0.0318301555886266
"CVOE updated",1001,1,3,62,"D 85","Number","N",TRUE,"OE","q",2467,"alt","D",5,"o","o",TRUE,1,0.211794149196387
"CVOE updated",1001,1,3,65,"I 21","Number","Y",FALSE,"OE","q",2416,"alt","I",1,"o","o",TRUE,1,0.191122609390091
"CVOE updated",1001,1,3,66,"J 29","Number","N",TRUE,"OE","q",1524,"alt","J",9,"o","o",TRUE,1,-0.170426675065141
"CVOE updated",1001,1,3,69,"S 72","Number","Y",FALSE,"OE","p",2014,"alt","S",2,"e","e",TRUE,1,0.0281822367992801
"CVOE updated",1001,1,3,70,"U 84","Number","N",TRUE,"OE","p",1722,"alt","U",4,"e","e",TRUE,1,-0.0901724616995176
"CVOE updated",1001,1,3,73,"E 99","Number","Y",FALSE,"OE","q",1850,"alt","E",9,"o","o",TRUE,1,-0.0382909500288118
"CVOE updated",1001,1,3,74,"H 16","Number","N",FALSE,"OE","p",2516,"alt","H",6,"e","e",TRUE,1,0.231655040382829
"CVOE updated",1001,1,3,77,"O 22","Number","Y",TRUE,"OE","p",1940,"alt","O",2,"e","e",TRUE,1,-0.00181176213534673
"CVOE updated",1001,1,3,78,"P 41","Number","N",TRUE,"OE","q",1883,"alt","P",1,"o","o",TRUE,1,-0.0249152478012079
"CVOE updated",1001,1,3,81,"A 42","Number","Y",TRUE,"OE","p",2299,"alt","A",2,"e","e",TRUE,1,0.143699665128586
"CVOE updated",1001,1,3,82,"D 85","Number","N",TRUE,"OE","q",2267,"alt","D",5,"o","o",TRUE,1,0.13072928721091
"CVOE updated",1001,1,3,85,"I 70","Number","Y",TRUE,"OE","p",1902,"alt","I",0,"e","e",TRUE,1,-0.0172140859125875
"CVOE updated",1001,1,3,86,"J 88","Number","N",FALSE,"OE","p",1206,"alt","J",8,"e","e",TRUE,1,-0.29931980562205
"CVOE updated",1001,1,3,89,"S 98","Number","Y",FALSE,"OE","p",2087,"alt","S",8,"e","e",TRUE,1,0.0577709114239795
"CVOE updated",1001,1,3,90,"U 37","Number","N",FALSE,"OE","p",1312,"alt","U",7,"o","e",FALSE,0,-0.256355428769747
"CVOE updated",1001,1,3,93,"E 93","Number","Y",FALSE,"OE","q",1912,"alt","E",3,"o","o",TRUE,1,-0.0131608428133136
"CVOE updated",1001,1,3,94,"H 27","Number","N",TRUE,"OE","q",2696,"alt","H",7,"o","o",TRUE,1,0.30461341616976
"CVOE updated",1001,1,3,97,"O 28","Number","Y",TRUE,"OE","p",1781,"alt","O",8,"e","e",TRUE,1,-0.0662583274138016
"CVOE updated",1001,1,3,98,"P 59","Number","N",TRUE,"OE","p",1419,"alt","P",9,"o","e",FALSE,0,-0.212985727607517
"CVOE updated",1001,1,3,101,"A 56","Number","Y",TRUE,"OE","p",3279,"alt","A",6,"e","e",TRUE,1,0.540917488857428
"CVOE updated",1001,1,3,102,"D 01","Number","N",TRUE,"OE","q",3721,"alt","D",1,"o","o",TRUE,1,0.720070833845334
"CVOE updated",1001,1,3,105,"I 05","Number","Y",FALSE,"OE","q",2018,"alt","I",5,"o","o",TRUE,1,0.0298035340389896
"CVOE updated",1001,1,3,106,"J 55","Number","N",TRUE,"OE","q",1438,"alt","J",5,"o","o",TRUE,1,-0.205284565718896
"CVOE updated",1001,1,3,109,"S 92","Number","Y",FALSE,"OE","p",2043,"alt","S",2,"e","e",TRUE,1,0.0399366417871744
"CVOE updated",1001,1,3,110,"U 34","Number","N",TRUE,"OE","p",1477,"alt","U",4,"e","e",TRUE,1,-0.189476917631728
"CVOE updated",1001,1,3,113,"E 48","Number","Y",TRUE,"OE","p",2221,"alt","E",8,"e","e",TRUE,1,0.11208436895425
"CVOE updated",1001,1,3,114,"H 76","Number","N",FALSE,"OE","p",1801,"alt","H",6,"e","e",TRUE,1,-0.0581518412152538
"CVOE updated",1001,1,3,117,"O 48","Number","Y",TRUE,"OE","p",1607,"alt","O",8,"e","e",TRUE,1,-0.136784757341167
"CVOE updated",1001,1,3,118,"P 22","Number","N",FALSE,"OE","p",1308,"alt","P",2,"e","e",TRUE,1,-0.257976726009457
"CVOE updated",1001,1,3,121,"A 91","Number","Y",FALSE,"OE","q",2015,"alt","A",1,"o","o",TRUE,1,0.0285875611092075
"CVOE updated",1001,1,3,122,"D 78","Number","N",FALSE,"OE","p",3218,"alt","D",8,"e","e",TRUE,1,0.516192705951857
"CVOE updated",1001,1,3,125,"I 65","Number","Y",FALSE,"OE","q",1597,"alt","I",5,"o","o",TRUE,1,-0.140838000440441
"CVOE updated",1001,1,3,126,"J 52","Number","N",FALSE,"OE","p",1922,"alt","J",2,"e","e",TRUE,1,-0.00910759971403973
"CVOE updated",1001,1,3,129,"S 45","Number","Y",TRUE,"OE","q",1823,"alt","S",5,"o","o",TRUE,1,-0.0492347063968513
"CVOE updated",1001,1,3,130,"U 26","Number","N",TRUE,"OE","p",1227,"alt","U",6,"e","e",TRUE,1,-0.290807995113575
"CVOE updated",1001,1,4,1,"U 38","Number","N",TRUE,"OE","p",6435,"shuf","U",8,"e","e",TRUE,1,1.82012101098827
"CVOE updated",1001,1,4,2,"P 73","Number","N",TRUE,"OE","q",2449,"shuf","P",3,"o","o",TRUE,1,0.204498311617694
"CVOE updated",1001,1,4,4,"J 61","Number","Y",TRUE,"OE","q",1933,"shuf","J",1,"o","o",TRUE,1,-0.00464903230483845
"CVOE updated",1001,1,4,5,"D 51","Number","N",TRUE,"OE","q",3109,"shuf","D",1,"o","o",TRUE,1,0.472012356169771
"CVOE updated",1001,1,4,6,"S 28","Number","N",FALSE,"OE","p",2165,"shuf","S",8,"e","e",TRUE,1,0.0893862075983159
"CVOE updated",1001,1,4,10,"E 05","Number","Y",FALSE,"OE","q",2050,"shuf","E",5,"o","o",TRUE,1,0.0427739119566661
"CVOE updated",1001,1,4,12,"D 88","Number","Y",FALSE,"OE","p",1571,"shuf","D",8,"e","e",TRUE,1,-0.151376432498553
"CVOE updated",1001,1,4,14,"U 43","Number","Y",FALSE,"OE","q",3347,"shuf","U",3,"o","o",TRUE,1,0.56847954193249
"CVOE updated",1001,1,4,15,"H 10","Number","N",FALSE,"OE","p",1819,"shuf","H",0,"e","e",TRUE,1,-0.0508560036365608
"CVOE updated",1001,1,4,18,"H 54","Number","Y",FALSE,"OE","p",1618,"shuf","H",4,"e","e",TRUE,1,-0.132326189931966
"CVOE updated",1001,1,4,19,"E 99","Number","N",FALSE,"OE","q",1654,"shuf","E",9,"o","o",TRUE,1,-0.11773451477458
"CVOE updated",1001,1,4,23,"H 79","Number","Y",TRUE,"OE","q",1738,"shuf","H",9,"o","o",TRUE,1,-0.0836872727406794
"CVOE updated",1001,1,4,24,"J 60","Number","N",FALSE,"OE","p",2081,"shuf","J",0,"e","e",TRUE,1,0.0553389655644152
"CVOE updated",1001,1,4,26,"P 11","Number","Y",TRUE,"OE","q",1499,"shuf","P",1,"o","o",TRUE,1,-0.180559782813325
"CVOE updated",1001,1,4,27,"D 39","Number","N",TRUE,"OE","q",1171,"shuf","D",9,"o","o",TRUE,1,-0.313506156469509
"CVOE updated",1001,1,4,28,"E 90","Number","N",TRUE,"OE","p",1233,"shuf","E",0,"e","e",TRUE,1,-0.288376049254011
"CVOE updated",1001,1,4,29,"I 38","Number","N",TRUE,"OE","p",1051,"shuf","I",8,"e","e",TRUE,1,-0.362145073660796
"CVOE updated",1001,1,4,31,"D 41","Number","Y",TRUE,"OE","q",2226,"shuf","D",1,"o","o",TRUE,1,0.114110990503887
"CVOE updated",1001,1,4,32,"E 06","Number","N",TRUE,"OE","p",2326,"shuf","E",6,"e","e",TRUE,1,0.154643421496626
"CVOE updated",1001,1,4,33,"A 27","Number","N",FALSE,"OE","q",2749,"shuf","A",7,"o","o",TRUE,1,0.326095604595911
"CVOE updated",1001,1,4,37,"P 05","Number","Y",TRUE,"OE","q",2747,"shuf","P",5,"o","o",TRUE,1,0.325284955976056
"CVOE updated",1001,1,4,39,"I 96","Number","Y",TRUE,"OE","p",1900,"shuf","I",6,"e","e",TRUE,1,-0.0180247345324423
"CVOE updated",1001,1,4,40,"A 88","Number","N",TRUE,"OE","p",1437,"shuf","A",8,"e","e",TRUE,1,-0.205689890028824
"CVOE updated",1001,1,4,41,"I 67","Number","N",FALSE,"OE","q",1352,"shuf","I",7,"o","o",TRUE,1,-0.240142456372652
"CVOE updated",1001,1,4,42,"D 40","Number","N",FALSE,"OE","p",1390,"shuf","D",0,"e","e",TRUE,1,-0.224740132595411
"CVOE updated",1001,1,4,44,"U 24","Number","Y",TRUE,"OE","p",3958,"shuf","U",4,"e","e",TRUE,1,0.816132695298125
"CVOE updated",1001,1,4,45,"P 74","Number","N",FALSE,"OE","p",3117,"shuf","P",4,"e","e",TRUE,1,0.47525495064919
"CVOE updated",1001,1,4,46,"E 70","Number","N",TRUE,"OE","p",1149,"shuf","E",0,"e","e",TRUE,1,-0.322423291287912
"CVOE updated",1001,1,4,47,"S 27","Number","N",TRUE,"OE","q",1108,"shuf","S",7,"o","o",TRUE,1,-0.339041587994935
"CVOE updated",1001,1,4,51,"D 74","Number","Y",FALSE,"OE","p",2525,"shuf","D",4,"e","e",TRUE,1,0.235302959172176
"CVOE updated",1001,1,4,53,"E 24","Number","Y",TRUE,"OE","p",2181,"shuf","E",4,"e","e",TRUE,1,0.0958713965571541
"CVOE updated",1001,1,4,55,"D 77","Number","Y",TRUE,"OE","q",1864,"shuf","D",7,"o","o",TRUE,1,-0.0326164096898283
"CVOE updated",1001,1,4,56,"S 75","Number","N",TRUE,"OE","q",1586,"shuf","S",5,"o","o",TRUE,1,-0.145296567849643
"CVOE updated",1001,1,4,59,"A 38","Number","Y",TRUE,"OE","p",1927,"shuf","A",8,"e","e",TRUE,1,-0.00708097816440279
"CVOE updated",1001,1,4,61,"S 51","Number","Y",TRUE,"OE","q",1880,"shuf","S",1,"o","o",TRUE,1,-0.0261312207309901
"CVOE updated",1001,1,4,65,"O 15","Number","Y",FALSE,"OE","q",1204,"shuf","O",5,"o","o",TRUE,1,-0.300130454241905
"CVOE updated",1001,1,4,67,"U 97","Number","Y",FALSE,"OE","q",1222,"shuf","U",7,"o","o",TRUE,1,-0.292834616663212
"CVOE updated",1001,1,4,68,"H 03","Number","N",TRUE,"OE","q",1170,"shuf","H",3,"o","o",TRUE,1,-0.313911480779436
"CVOE updated",1001,1,4,72,"H 81","Number","Y",TRUE,"OE","q",1936,"shuf","H",1,"o","o",TRUE,1,-0.00343305937505628
"CVOE updated",1001,1,4,73,"I 41","Number","N",FALSE,"OE","q",1488,"shuf","I",1,"o","o",TRUE,1,-0.185018350222527
"CVOE updated",1001,1,4,75,"O 17","Number","Y",FALSE,"OE","q",2126,"shuf","O",7,"o","o",TRUE,1,0.0735785595111477
"CVOE updated",1001,1,4,76,"A 10","Number","N",TRUE,"OE","p",2710,"shuf","A",0,"e","e",TRUE,1,0.310287956508743
"CVOE updated",1001,1,4,84,"O 51","Number","Y",FALSE,"OE","q",1556,"shuf","O",1,"o","o",TRUE,1,-0.157456297147464
"CVOE updated",1001,1,4,85,"J 26","Number","N",FALSE,"OE","p",1666,"shuf","J",6,"e","e",TRUE,1,-0.112870623055451
"CVOE updated",1001,1,4,87,"U 85","Number","Y",FALSE,"OE","q",1289,"shuf","U",5,"o","o",TRUE,1,-0.265677887898077
"CVOE updated",1001,1,4,88,"J 77","Number","N",TRUE,"OE","q",1138,"shuf","J",7,"o","o",TRUE,1,-0.326881858697113
"CVOE updated",1001,1,4,90,"H 46","Number","Y",FALSE,"OE","p",2846,"shuf","H",6,"e","e",TRUE,1,0.365412062658868
"CVOE updated",1001,1,4,91,"D 04","Number","N",FALSE,"OE","p",3489,"shuf","D",4,"e","e",TRUE,1,0.626035593942179
"CVOE updated",1001,1,4,93,"D 99","Number","Y",TRUE,"OE","q",1821,"shuf","D",9,"o","o",TRUE,1,-0.0500453550167061
"CVOE updated",1001,1,4,97,"O 84","Number","Y",TRUE,"OE","p",1784,"shuf","O",4,"e","e",TRUE,1,-0.0650423544840195
"CVOE updated",1001,1,4,98,"A 78","Number","N",TRUE,"OE","p",1590,"shuf","A",8,"e","e",TRUE,1,-0.143675270609933
"CVOE updated",1001,1,4,99,"S 05","Number","N",TRUE,"OE","q",1323,"shuf","S",5,"o","o",TRUE,1,-0.251896861360546
"CVOE updated",1001,1,4,102,"U 15","Number","Y",FALSE,"OE","q",3974,"shuf","U",5,"o","o",TRUE,1,0.822617884256963
"CVOE updated",1001,1,4,105,"O 44","Number","Y",TRUE,"OE","p",3953,"shuf","O",4,"e","e",TRUE,1,0.814106073748488
"CVOE updated",1001,1,4,109,"S 22","Number","Y",FALSE,"OE","p",1739,"shuf","S",2,"e","e",TRUE,1,-0.083281948430752
"CVOE updated",1001,1,4,114,"J 20","Number","Y",FALSE,"OE","p",1906,"shuf","J",0,"e","e",TRUE,1,-0.015592788672878
"CVOE updated",1001,1,4,117,"I 68","Number","Y",TRUE,"OE","p",3350,"shuf","I",8,"e","e",TRUE,1,0.569695514862272
"CVOE updated",1001,1,4,118,"J 72","Number","N",FALSE,"OE","p",1222,"shuf","J",2,"e","e",TRUE,1,-0.292834616663212
"CVOE updated",1001,1,4,119,"O 21","Number","N",FALSE,"OE","q",1353,"shuf","O",1,"o","o",TRUE,1,-0.239737132062724
"CVOE updated",1001,1,4,120,"H 22","Number","N",FALSE,"OE","p",1040,"shuf","H",2,"e","e",TRUE,1,-0.366603641069997
"CVOE_C",2003,1,3,13,"E 75","Number","Y",FALSE,"OE","p",5802,"alt","E",5,"o","e",FALSE,0,1.56355072280423
"CVOE_C",2003,1,3,14,"H 81","Number","N",TRUE,"OE","q",3465,"alt","H",1,"o","o",TRUE,1,0.616307810503922
"CVOE_C",2003,1,3,17,"O 23","Number","Y",FALSE,"OE","p",3105,"alt","O",3,"o","e",FALSE,0,0.470391058930062
"CVOE_C",2003,1,3,18,"P 05","Number","N",TRUE,"OE","q",4858,"alt","P",5,"o","o",TRUE,1,1.18092457423278
"CVOE_C",2003,1,3,21,"A 70","Number","Y",TRUE,"OE","p",1377,"alt","A",0,"e","e",TRUE,1,-0.230009348624467
"CVOE_C",2003,1,3,22,"D 12","Number","N",FALSE,"OE","q",1782,"alt","D",2,"e","o",FALSE,0,-0.0658530031038742
"CVOE_C",2003,1,3,25,"I 41","Number","Y",FALSE,"OE","p",1946,"alt","I",1,"o","e",FALSE,0,0.000620183724217609
"CVOE_C",2003,1,3,26,"J 63","Number","N",TRUE,"OE","q",1073,"alt","J",3,"o","o",TRUE,1,-0.353227938842393
"CVOE_C",2003,1,3,29,"S 61","Number","Y",TRUE,"OE","q",1625,"alt","S",1,"o","o",TRUE,1,-0.129488919762474
"CVOE_C",2003,1,3,30,"U 28","Number","N",TRUE,"OE","p",2868,"alt","U",8,"e","e",TRUE,1,0.374329197477271
"CVOE_C",2003,1,3,33,"E 35","Number","Y",FALSE,"OE","p",2319,"alt","E",5,"o","e",FALSE,0,0.151806151327134
"CVOE_C",2003,1,3,34,"H 62","Number","N",FALSE,"OE","q",1287,"alt","H",2,"e","o",FALSE,0,-0.266488536517932
"CVOE_C",2003,1,3,37,"O 12","Number","Y",TRUE,"OE","p",1526,"alt","O",2,"e","e",TRUE,1,-0.169616026445286
"CVOE_C",2003,1,3,38,"P 13","Number","N",TRUE,"OE","q",1381,"alt","P",3,"o","o",TRUE,1,-0.228388051384757
"CVOE_C",2003,1,3,41,"A 96","Number","Y",TRUE,"OE","p",1234,"alt","A",6,"e","e",TRUE,1,-0.287970724944084
"CVOE_C",2003,1,3,42,"D 04","Number","N",FALSE,"OE","q",1309,"alt","D",4,"e","o",FALSE,0,-0.257571401699529
"CVOE_C",2003,1,3,45,"I 64","Number","Y",TRUE,"OE","p",1434,"alt","I",4,"e","e",TRUE,1,-0.206905862958606
"CVOE_C",2003,1,3,46,"J 76","Number","N",FALSE,"OE","q",1933,"alt","J",6,"e","o",FALSE,0,-0.00464903230483845
"CVOE_C",2003,1,3,49,"S 72","Number","Y",FALSE,"OE","q",1620,"alt","S",2,"e","o",FALSE,0,-0.131515541312111
"CVOE_C",2003,1,3,50,"U 47","Number","N",FALSE,"OE","p",1392,"alt","U",7,"o","e",FALSE,0,-0.223929483975556
"CVOE_C",2003,1,3,53,"E 40","Number","Y",TRUE,"OE","p",2144,"alt","E",0,"e","e",TRUE,1,0.0808743970898407
"CVOE_C",2003,1,3,54,"H 79","Number","N",TRUE,"OE","q",1119,"alt","H",9,"o","o",TRUE,1,-0.334583020585733
"CVOE_C",2003,1,3,57,"O 61","Number","Y",FALSE,"OE","p",3151,"alt","O",1,"o","e",FALSE,0,0.489035977186722
"CVOE_C",2003,1,3,58,"P 58","Number","N",FALSE,"OE","p",1766,"alt","P",8,"e","e",TRUE,1,-0.0723381920627125
"CVOE_C",2003,1,3,61,"A 17","Number","Y",FALSE,"OE","p",1089,"alt","A",7,"o","e",FALSE,0,-0.346742749883555
"CVOE_C",2003,1,3,62,"D 85","Number","N",TRUE,"OE","q",1242,"alt","D",5,"o","o",TRUE,1,-0.284728130464664
"CVOE_C",2003,1,3,65,"I 21","Number","Y",FALSE,"OE","p",1474,"alt","I",1,"o","e",FALSE,0,-0.19069289056151
"CVOE_C",2003,1,3,66,"J 29","Number","N",TRUE,"OE","q",1148,"alt","J",9,"o","o",TRUE,1,-0.322828615597839
"CVOE_C",2003,1,3,69,"S 72","Number","Y",FALSE,"OE","q",1936,"alt","S",2,"e","o",FALSE,0,-0.00343305937505628
"CVOE_C",2003,1,3,70,"U 84","Number","N",TRUE,"OE","p",823,"alt","U",4,"e","e",TRUE,1,-0.454559016324241
"CVOE_C",2003,1,3,73,"E 99","Number","Y",FALSE,"OE","p",1441,"alt","E",9,"o","e",FALSE,0,-0.204068592789114
"CVOE_C",2003,1,3,74,"H 16","Number","N",FALSE,"OE","q",852,"alt","H",6,"e","o",FALSE,0,-0.442804611336346
"CVOE_C",2003,1,3,77,"O 22","Number","Y",TRUE,"OE","p",1724,"alt","O",2,"e","e",TRUE,1,-0.0893618130796628
"CVOE_C",2003,1,3,78,"P 41","Number","N",TRUE,"OE","q",1748,"alt","P",1,"o","o",TRUE,1,-0.0796340296414055
"CVOE_C",2003,1,3,81,"A 42","Number","Y",TRUE,"OE","p",1113,"alt","A",2,"e","e",TRUE,1,-0.337014966445298
"CVOE_C",2003,1,3,82,"D 85","Number","N",TRUE,"OE","q",1168,"alt","D",5,"o","o",TRUE,1,-0.314722129399291
"CVOE_C",2003,1,3,85,"I 70","Number","Y",TRUE,"OE","p",828,"alt","I",0,"e","e",TRUE,1,-0.452532394774604
"CVOE_C",2003,1,3,86,"J 88","Number","N",FALSE,"OE","q",1967,"alt","J",8,"e","o",FALSE,0,0.00913199423269278
"CVOE_C",2003,1,3,89,"S 98","Number","Y",FALSE,"OE","q",1548,"alt","S",8,"e","o",FALSE,0,-0.160698891626883
"CVOE_C",2003,1,3,90,"U 37","Number","N",FALSE,"OE","p",986,"alt","U",7,"o","e",FALSE,0,-0.388491153806076
"CVOE_C",2003,1,3,93,"E 93","Number","Y",FALSE,"OE","p",1309,"alt","E",3,"o","e",FALSE,0,-0.257571401699529
"CVOE_C",2003,1,3,94,"H 27","Number","N",TRUE,"OE","q",1284,"alt","H",7,"o","o",TRUE,1,-0.267704509447714
"CVOE_C",2003,1,3,97,"O 28","Number","Y",TRUE,"OE","p",1120,"alt","O",8,"e","e",TRUE,1,-0.334177696275806
"CVOE_C",2003,1,3,98,"P 59","Number","N",TRUE,"OE","q",1639,"alt","P",9,"o","o",TRUE,1,-0.123814379423491
"CVOE_C",2003,1,3,101,"A 56","Number","Y",TRUE,"OE","p",1100,"alt","A",6,"e","e",TRUE,1,-0.342284182474354
"CVOE_C",2003,1,3,102,"D 01","Number","N",TRUE,"OE","q",1365,"alt","D",1,"o","o",TRUE,1,-0.234873240343596
"CVOE_C",2003,1,3,105,"I 05","Number","Y",FALSE,"OE","p",1115,"alt","I",5,"o","e",FALSE,0,-0.336204317825443
"CVOE_C",2003,1,3,106,"J 55","Number","N",TRUE,"OE","q",1282,"alt","J",5,"o","o",TRUE,1,-0.268515158067569
"CVOE_C",2003,1,3,109,"S 92","Number","Y",FALSE,"OE","q",1099,"alt","S",2,"e","o",FALSE,0,-0.342689506784281
"CVOE_C",2003,1,3,110,"U 34","Number","N",TRUE,"OE","p",747,"alt","U",4,"e","e",TRUE,1,-0.485363663878722
"CVOE_C",2003,1,3,113,"E 48","Number","Y",TRUE,"OE","p",1203,"alt","E",8,"e","e",TRUE,1,-0.300535778551833
"CVOE_C",2003,1,3,114,"H 76","Number","N",FALSE,"OE","q",960,"alt","H",6,"e","o",FALSE,0,-0.399029585864188
"CVOE_C",2003,1,3,117,"O 48","Number","Y",TRUE,"OE","p",958,"alt","O",8,"e","e",TRUE,1,-0.399840234484043
"CVOE_C",2003,1,3,118,"P 22","Number","N",FALSE,"OE","q",1180,"alt","P",2,"e","o",FALSE,0,-0.309858237680163
"CVOE_C",2003,1,3,121,"A 91","Number","Y",FALSE,"OE","p",1623,"alt","A",1,"o","e",FALSE,0,-0.130299568382329
"CVOE_C",2003,1,3,122,"D 78","Number","N",FALSE,"OE","q",1187,"alt","D",8,"e","o",FALSE,0,-0.307020967510671
"CVOE_C",2003,1,3,125,"I 65","Number","Y",FALSE,"OE","p",816,"alt","I",5,"o","e",FALSE,0,-0.457396286493732
"CVOE_C",2003,1,3,126,"J 52","Number","N",FALSE,"OE","q",1420,"alt","J",2,"e","o",FALSE,0,-0.212580403297589
"CVOE_C",2003,1,3,129,"S 45","Number","Y",TRUE,"OE","q",1449,"alt","S",5,"o","o",TRUE,1,-0.200825998309695
"CVOE_C",2003,1,3,130,"U 26","Number","N",TRUE,"OE","p",939,"alt","U",6,"e","e",TRUE,1,-0.407541396372663
"CVOE_C",2003,1,4,2,"P 73","Number","N",TRUE,"OE","q",2445,"shuf","P",3,"o","o",TRUE,1,0.202877014377985
"CVOE_C",2003,1,4,4,"J 61","Number","Y",TRUE,"OE","q",1277,"shuf","J",1,"o","o",TRUE,1,-0.270541779617206
"CVOE_C",2003,1,4,5,"D 51","Number","N",TRUE,"OE","q",1342,"shuf","D",1,"o","o",TRUE,1,-0.244195699471926
"CVOE_C",2003,1,4,6,"S 28","Number","N",FALSE,"OE","p",860,"shuf","S",8,"e","e",TRUE,1,-0.439562016856927
"CVOE_C",2003,1,4,10,"E 05","Number","Y",FALSE,"OE","q",1711,"shuf","E",5,"o","o",TRUE,1,-0.0946310291087189
"CVOE_C",2003,1,4,12,"D 88","Number","Y",FALSE,"OE","p",1211,"shuf","D",8,"e","e",TRUE,1,-0.297293184072414
"CVOE_C",2003,1,4,14,"U 43","Number","Y",FALSE,"OE","q",1191,"shuf","U",3,"o","o",TRUE,1,-0.305399670270961
"CVOE_C",2003,1,4,15,"H 10","Number","N",FALSE,"OE","p",996,"shuf","H",0,"e","e",TRUE,1,-0.384437910706802
"CVOE_C",2003,1,4,18,"H 54","Number","Y",FALSE,"OE","p",3712,"shuf","H",4,"e","e",TRUE,1,0.716422915055987
"CVOE_C",2003,1,4,19,"E 99","Number","N",FALSE,"OE","q",993,"shuf","E",9,"o","o",TRUE,1,-0.385653883636584
"CVOE_C",2003,1,4,23,"H 79","Number","Y",TRUE,"OE","q",1433,"shuf","H",9,"o","o",TRUE,1,-0.207311187268533
"CVOE_C",2003,1,4,24,"J 60","Number","N",FALSE,"OE","p",796,"shuf","J",0,"e","e",TRUE,1,-0.46550277269228
"CVOE_C",2003,1,4,26,"P 11","Number","Y",TRUE,"OE","q",706,"shuf","P",1,"o","o",TRUE,1,-0.501981960585745
"CVOE_C",2003,1,4,27,"D 39","Number","N",TRUE,"OE","q",1634,"shuf","D",9,"o","o",TRUE,1,-0.125841000973128
"CVOE_C",2003,1,4,28,"E 90","Number","N",TRUE,"OE","p",1077,"shuf","E",0,"e","e",TRUE,1,-0.351606641602684
"CVOE_C",2003,1,4,29,"I 38","Number","N",TRUE,"OE","p",854,"shuf","I",8,"e","e",TRUE,1,-0.441993962716491
"CVOE_C",2003,1,4,31,"D 41","Number","Y",TRUE,"OE","q",1023,"shuf","D",1,"o","o",TRUE,1,-0.373494154338763
"CVOE_C",2003,1,4,32,"E 06","Number","N",TRUE,"OE","p",922,"shuf","E",6,"e","e",TRUE,1,-0.414431909641429
"CVOE_C",2003,1,4,33,"A 27","Number","N",FALSE,"OE","q",1362,"shuf","A",7,"o","o",TRUE,1,-0.236089213273378
"CVOE_C",2003,1,4,37,"P 05","Number","Y",TRUE,"OE","q",1156,"shuf","P",5,"o","o",TRUE,1,-0.31958602111842
"CVOE_C",2003,1,4,39,"I 96","Number","Y",TRUE,"OE","p",1037,"shuf","I",6,"e","e",TRUE,1,-0.367819613999779
"CVOE_C",2003,1,4,40,"A 88","Number","N",TRUE,"OE","p",1047,"shuf","A",8,"e","e",TRUE,1,-0.363766370900505
"CVOE_C",2003,1,4,41,"I 67","Number","N",FALSE,"OE","q",1026,"shuf","I",7,"o","o",TRUE,1,-0.372278181408981
"CVOE_C",2003,1,4,42,"D 40","Number","N",FALSE,"OE","p",1532,"shuf","D",0,"e","e",TRUE,1,-0.167184080585722
"CVOE_C",2003,1,4,44,"U 24","Number","Y",TRUE,"OE","p",1417,"shuf","U",4,"e","e",TRUE,1,-0.213796376227371
"CVOE_C",2003,1,4,45,"P 74","Number","N",FALSE,"OE","p",4004,"shuf","P",4,"e","e",TRUE,1,0.834777613554785
"CVOE_C",2003,1,4,46,"E 70","Number","N",TRUE,"OE","p",954,"shuf","E",0,"e","e",TRUE,1,-0.401461531723753
"CVOE_C",2003,1,4,47,"S 27","Number","N",TRUE,"OE","q",1048,"shuf","S",7,"o","o",TRUE,1,-0.363361046590578
"CVOE_C",2003,1,4,51,"D 74","Number","Y",FALSE,"OE","p",2715,"shuf","D",4,"e","e",TRUE,1,0.31231457805838
"CVOE_C",2003,1,4,53,"E 24","Number","Y",TRUE,"OE","p",888,"shuf","E",4,"e","e",TRUE,1,-0.42821293617896
"CVOE_C",2003,1,4,55,"D 77","Number","Y",TRUE,"OE","q",877,"shuf","D",7,"o","o",TRUE,1,-0.432671503588162
"CVOE_C",2003,1,4,56,"S 75","Number","N",TRUE,"OE","q",1230,"shuf","S",5,"o","o",TRUE,1,-0.289592022183793
"CVOE_C",2003,1,4,59,"A 38","Number","Y",TRUE,"OE","p",1750,"shuf","A",8,"e","e",TRUE,1,-0.0788233810215507
"CVOE_C",2003,1,4,61,"S 51","Number","Y",TRUE,"OE","q",683,"shuf","S",1,"o","o",TRUE,1,-0.511304419714075
"CVOE_C",2003,1,4,65,"O 15","Number","Y",FALSE,"OE","q",1484,"shuf","O",5,"o","o",TRUE,1,-0.186639647462236
"CVOE_C",2003,1,4,67,"U 97","Number","Y",FALSE,"OE","q",1557,"shuf","U",7,"o","o",TRUE,1,-0.157050972837537
"CVOE_C",2003,1,4,68,"H 03","Number","N",TRUE,"OE","q",867,"shuf","H",3,"o","o",TRUE,1,-0.436724746687435
"CVOE_C",2003,1,4,72,"H 81","Number","Y",TRUE,"OE","q",3805,"shuf","H",1,"o","o",TRUE,1,0.754118075879234
"CVOE_C",2003,1,4,73,"I 41","Number","N",FALSE,"OE","q",986,"shuf","I",1,"o","o",TRUE,1,-0.388491153806076
"CVOE_C",2003,1,4,75,"O 17","Number","Y",FALSE,"OE","q",957,"shuf","O",7,"o","o",TRUE,1,-0.40024555879397
"CVOE_C",2003,1,4,76,"A 10","Number","N",TRUE,"OE","p",787,"shuf","A",0,"e","e",TRUE,1,-0.469150691481627
"CVOE_C",2003,1,4,84,"O 51","Number","Y",FALSE,"OE","q",882,"shuf","O",1,"o","o",TRUE,1,-0.430644882038525
"CVOE_C",2003,1,4,85,"J 26","Number","N",FALSE,"OE","p",1082,"shuf","J",6,"e","e",TRUE,1,-0.349580020053047
"CVOE_C",2003,1,4,87,"U 85","Number","Y",FALSE,"OE","q",835,"shuf","U",5,"o","o",TRUE,1,-0.449695124605112
"CVOE_C",2003,1,4,88,"J 77","Number","N",TRUE,"OE","q",870,"shuf","J",7,"o","o",TRUE,1,-0.435508773757653
"CVOE_C",2003,1,4,90,"H 46","Number","Y",FALSE,"OE","p",1665,"shuf","H",6,"e","e",TRUE,1,-0.113275947365379
"CVOE_C",2003,1,4,91,"D 04","Number","N",FALSE,"OE","p",1003,"shuf","D",4,"e","e",TRUE,1,-0.38160064053731
"CVOE_C",2003,1,4,93,"D 99","Number","Y",TRUE,"OE","q",898,"shuf","D",9,"o","o",TRUE,1,-0.424159693079686
"CVOE_C",2003,1,4,97,"O 84","Number","Y",TRUE,"OE","p",793,"shuf","O",4,"e","e",TRUE,1,-0.466718745622062
"CVOE_C",2003,1,4,98,"A 78","Number","N",TRUE,"OE","q",3693,"shuf","A",8,"e","o",FALSE,0,0.708721753167367
"CVOE_C",2003,1,4,99,"S 05","Number","N",TRUE,"OE","q",1111,"shuf","S",5,"o","o",TRUE,1,-0.337825615065152
"CVOE_C",2003,1,4,102,"U 15","Number","Y",FALSE,"OE","q",1892,"shuf","U",5,"o","o",TRUE,1,-0.0212673290118614
"CVOE_C",2003,1,4,105,"O 44","Number","Y",TRUE,"OE","p",920,"shuf","O",4,"e","e",TRUE,1,-0.415242558261284
"CVOE_C",2003,1,4,109,"S 22","Number","Y",FALSE,"OE","p",922,"shuf","S",2,"e","e",TRUE,1,-0.414431909641429
"CVOE_C",2003,1,4,114,"J 20","Number","Y",FALSE,"OE","p",828,"shuf","J",0,"e","e",TRUE,1,-0.452532394774604
"CVOE_C",2003,1,4,117,"I 68","Number","Y",TRUE,"OE","p",1022,"shuf","I",8,"e","e",TRUE,1,-0.37389947864869
"CVOE_C",2003,1,4,118,"J 72","Number","N",FALSE,"OE","p",3746,"shuf","J",2,"e","e",TRUE,1,0.730203941593518
"CVOE_C",2003,1,4,119,"O 21","Number","N",FALSE,"OE","q",889,"shuf","O",1,"o","o",TRUE,1,-0.427807611869033
"CVOE_C",2003,1,4,120,"H 22","Number","N",FALSE,"OE","p",1106,"shuf","H",2,"e","e",TRUE,1,-0.339852236614789
