ExperimentName,Subject,Group,Block,Trial,STIM,TASK,Switch,Congruent,CVOE,PCVstim.RESP,PCVstim.RT,PCVstim.RTTime,POEstim.RESP,POEstim.RT,POEstim.RTTime,ShStim.RESP,ShStim.RT,ShStim.RTTime,ARStim1.RESP,ARStim1.RT,ARStim1.RTTime
CVOE updated,3001,1,1,11,A 71,,,FALSE,CV,p,4992,164670,,,,,,,,,
CVOE updated,3001,1,1,12,I 66,,,TRUE,CV,p,2069,167248,,,,,,,,,
CVOE updated,3001,1,1,13,S 30,,,FALSE,CV,q,678,168440,,,,,,,,,
CVOE updated,3001,1,1,14,D 20,,,FALSE,CV,q,1371,170333,,,,,,,,,
CVOE updated,3001,1,1,15,I 31,,,FALSE,CV,p,730,171576,,,,,,,,,
CVOE updated,3001,1,1,16,P 16,,,FALSE,CV,q,2274,174370,,,,,,,,,
CVOE updated,3001,1,1,17,A 49,,,FALSE,CV,p,524,175403,,,,,,,,,
CVOE updated,3001,1,1,18,O 64,,,TRUE,CV,p,609,176522,,,,,,,,,
CVOE updated,3001,1,1,19,D 02,,,FALSE,CV,q,962,178008,,,,,,,,,
CVOE updated,3001,1,1,20,P 81,,,TRUE,CV,q,877,179407,,,,,,,,,
CVOE updated,3001,1,1,21,J 58,,,FALSE,CV,q,1130,181060,,,,,,,,,
CVOE updated,3001,1,1,22,A 22,,,TRUE,CV,p,543,182123,,,,,,,,,
CVOE updated,3001,1,1,23,J 72,,,FALSE,CV,q,1432,184079,,,,,,,,,
CVOE updated,3001,1,1,24,P 91,,,TRUE,CV,q,640,185237,,,,,,,,,
CVOE updated,3001,1,1,25,E 19,,,FALSE,CV,p,571,186318,,,,,,,,,
CVOE updated,3001,1,1,26,I 30,,,TRUE,CV,p,690,187520,,,,,,,,,
CVOE updated,3001,1,1,27,D 91,,,TRUE,CV,q,651,188681,,,,,,,,,
CVOE updated,3001,1,1,28,O 48,,,TRUE,CV,p,713,189910,,,,,,,,,
CVOE updated,3001,1,1,29,A 89,,,FALSE,CV,p,560,190990,,,,,,,,,
CVOE updated,3001,1,1,30,U 11,,,FALSE,CV,p,542,192056,,,,,,,,,
CVOE updated,3001,1,1,31,I 76,,,TRUE,CV,p,709,193290,,,,,,,,,
CVOE updated,3001,1,1,32,U 89,,,FALSE,CV,p,591,194405,,,,,,,,,
CVOE updated,3001,1,1,33,D 63,,,TRUE,CV,q,493,195424,,,,,,,,,
CVOE updated,3001,1,1,34,H 70,,,FALSE,CV,q,806,196753,,,,,,,,,
CVOE updated,3001,1,1,35,D 48,,,FALSE,CV,q,1237,198501,,,,,,,,,
CVOE updated,3001,1,1,36,P 56,,,FALSE,CV,q,1083,200097,,,,,,,,,
CVOE updated,3001,1,1,37,O 77,,,FALSE,CV,p,413,201027,,,,,,,,,
CVOE updated,3001,1,1,38,P 42,,,FALSE,CV,q,629,202177,,,,,,,,,
CVOE updated,3001,1,1,39,H 22,,,FALSE,CV,q,730,203428,,,,,,,,,
CVOE updated,3001,1,1,40,E 42,,,TRUE,CV,p,437,204385,,,,,,,,,
CVOE updated,3001,1,1,41,J 28,,,FALSE,CV,q,971,205869,,,,,,,,,
CVOE updated,3001,1,1,42,E 95,,,FALSE,CV,p,783,207164,,,,,,,,,
CVOE updated,3001,1,1,43,S 63,,,TRUE,CV,q,707,208389,,,,,,,,,
CVOE updated,3001,1,1,44,H 50,,,FALSE,CV,q,738,209636,,,,,,,,,
CVOE updated,3001,1,1,45,S 33,,,TRUE,CV,q,806,210954,,,,,,,,,
CVOE updated,3001,1,1,46,P 57,,,TRUE,CV,q,1137,212602,,,,,,,,,
CVOE updated,3001,1,1,47,E 23,,,FALSE,CV,p,495,213610,,,,,,,,,
CVOE updated,3001,1,1,48,S 61,,,TRUE,CV,q,595,214727,,,,,,,,,
CVOE updated,3001,1,1,49,U 67,,,FALSE,CV,p,726,215975,,,,,,,,,
CVOE updated,3001,1,1,50,H 32,,,FALSE,CV,q,634,217133,,,,,,,,,
CVOE updated,3001,1,1,51,U 50,,,TRUE,CV,p,989,218638,,,,,,,,,
CVOE updated,3001,1,1,52,O 49,,,FALSE,CV,p,651,219800,,,,,,,,,
CVOE updated,3001,1,1,53,U 32,,,TRUE,CV,p,736,221052,,,,,,,,,
CVOE updated,3001,1,1,54,J 78,,,FALSE,CV,q,1009,222575,,,,,,,,,
CVOE updated,3001,1,1,55,S 54,,,FALSE,CV,q,857,223956,,,,,,,,,
CVOE updated,3001,1,1,56,J 27,,,TRUE,CV,q,575,225058,,,,,,,,,
CVOE updated,3001,1,1,57,S 06,,,FALSE,CV,q,569,226152,,,,,,,,,
CVOE updated,3001,1,1,58,D 67,,,TRUE,CV,q,761,227427,,,,,,,,,
CVOE updated,3001,1,1,59,A 79,,,FALSE,CV,p,424,228374,,,,,,,,,
CVOE updated,3001,1,1,60,S 52,,,FALSE,CV,q,580,229480,,,,,,,,,
CVOE updated,3001,1,1,61,U 16,,,TRUE,CV,p,551,230551,,,,,,,,,
CVOE updated,3001,1,1,62,O 82,,,TRUE,CV,p,709,231776,,,,,,,,,
CVOE updated,3001,1,1,63,H 87,,,TRUE,CV,q,559,232859,,,,,,,,,
CVOE updated,3001,1,1,64,I 32,,,TRUE,CV,p,1408,234791,,,,,,,,,
CVOE updated,3001,1,1,65,U 37,,,FALSE,CV,p,558,235875,,,,,,,,,
CVOE updated,3001,1,1,66,I 42,,,TRUE,CV,p,661,237061,,,,,,,,,
CVOE updated,3001,1,1,67,D 65,,,TRUE,CV,q,532,238116,,,,,,,,,
CVOE updated,3001,1,1,68,U 77,,,FALSE,CV,p,754,239388,,,,,,,,,
CVOE updated,3001,1,1,69,E 12,,,TRUE,CV,p,1090,240990,,,,,,,,,
CVOE updated,3001,1,1,70,I 60,,,TRUE,CV,p,718,242235,,,,,,,,,
CVOE updated,3001,1,1,71,J 36,,,FALSE,CV,q,640,243391,,,,,,,,,
CVOE updated,3001,1,1,72,H 75,,,TRUE,CV,q,860,244761,,,,,,,,,
CVOE updated,3001,1,1,73,I 50,,,TRUE,CV,p,709,245993,,,,,,,,,
CVOE updated,3001,1,1,74,E 99,,,FALSE,CV,p,852,247353,,,,,,,,,
CVOE updated,3001,1,1,75,A 86,,,TRUE,CV,p,518,248386,,,,,,,,,
CVOE updated,3001,1,1,76,U 48,,,TRUE,CV,p,641,249542,,,,,,,,,
CVOE updated,3001,1,1,77,E 01,,,FALSE,CV,p,634,250702,,,,,,,,,
CVOE updated,3001,1,1,78,A 78,,,TRUE,CV,p,551,251769,,,,,,,,,
CVOE updated,3001,1,1,79,P 60,,,FALSE,CV,q,546,252831,,,,,,,,,
CVOE updated,3001,1,1,80,E 43,,,FALSE,CV,p,611,253962,,,,,,,,,
CVOE updated,3001,1,1,81,D 69,,,TRUE,CV,q,708,255193,,,,,,,,,
CVOE updated,3001,1,1,82,H 11,,,TRUE,CV,q,607,256325,,,,,,,,,
CVOE updated,3001,1,1,83,P 43,,,TRUE,CV,q,923,257775,,,,,,,,,
CVOE updated,3001,1,1,84,O 67,,,FALSE,CV,p,610,258912,,,,,,,,,
CVOE updated,3001,1,1,85,S 91,,,FALSE,CV,q,489,259924,,,,,,,,,
CVOE updated,3001,1,1,86,J 68,,,TRUE,CV,q,645,261097,,,,,,,,,
CVOE updated,3001,1,1,87,S 47,,,FALSE,CV,q,545,262164,,,,,,,,,
CVOE updated,3001,1,1,88,I 81,,,TRUE,CV,p,686,263371,,,,,,,,,
CVOE updated,3001,1,1,89,J 39,,,FALSE,CV,q,612,264497,,,,,,,,,
CVOE updated,3001,1,1,90,A 11,,,TRUE,CV,p,439,265458,,,,,,,,,
CVOE updated,3001,1,1,91,O 76,,,FALSE,CV,p,482,266451,,,,,,,,,
CVOE updated,3001,1,1,92,A 62,,,FALSE,CV,p,964,267933,,,,,,,,,
CVOE updated,3001,1,1,93,O 27,,,TRUE,CV,p,1300,269752,,,,,,,,,
CVOE updated,3001,1,1,94,E 66,,,FALSE,CV,p,931,271200,,,,,,,,,
CVOE updated,3001,1,1,95,J 62,,,TRUE,CV,q,772,272491,,,,,,,,,
CVOE updated,3001,1,1,96,H 72,,,TRUE,CV,q,733,273736,,,,,,,,,
CVOE updated,3001,1,1,97,E 49,,,TRUE,CV,p,550,274803,,,,,,,,,
CVOE updated,3001,1,1,98,D 52,,,TRUE,CV,q,600,275920,,,,,,,,,
CVOE updated,3001,1,1,99,H 62,,,TRUE,CV,q,589,277025,,,,,,,,,
CVOE updated,3001,1,1,100,I 11,,,TRUE,CV,p,563,278099,,,,,,,,,
CVOE updated,3001,1,1,101,A 98,,,FALSE,CV,p,482,279102,,,,,,,,,
CVOE updated,3001,1,1,102,H 29,,,FALSE,CV,q,507,280127,,,,,,,,,
CVOE updated,3001,1,1,103,E 83,,,TRUE,CV,p,705,281342,,,,,,,,,
CVOE updated,3001,1,1,104,D 43,,,FALSE,CV,q,523,282377,,,,,,,,,
CVOE updated,3001,1,1,105,P 45,,,TRUE,CV,q,1236,284139,,,,,,,,,
CVOE updated,3001,1,1,106,J 17,,,TRUE,CV,q,633,285286,,,,,,,,,
CVOE updated,3001,1,2,11,A 24,,,TRUE,OE,p,5750,343657,,,,,,,,,
CVOE updated,3001,1,2,12,O 83,,,FALSE,OE,q,1053,345227,,,,,,,,,
CVOE updated,3001,1,2,13,H 55,,,TRUE,OE,q,2446,348187,,,,,,,,,
CVOE updated,3001,1,2,14,P 10,,,FALSE,OE,p,897,349605,,,,,,,,,
CVOE updated,3001,1,2,15,D 30,,,FALSE,OE,p,539,350664,,,,,,,,,
CVOE updated,3001,1,2,16,U 62,,,TRUE,OE,p,829,352020,,,,,,,,,
CVOE updated,3001,1,2,17,P 95,,,TRUE,OE,q,868,353410,,,,,,,,,
CVOE updated,3001,1,2,18,U 06,,,TRUE,OE,p,945,354870,,,,,,,,,
CVOE updated,3001,1,2,19,E 75,,,FALSE,OE,q,710,356102,,,,,,,,,
CVOE updated,3001,1,2,20,I 67,,,FALSE,OE,q,619,357244,,,,,,,,,
CVOE updated,3001,1,2,21,S 13,,,TRUE,OE,q,667,358426,,,,,,,,,
CVOE updated,3001,1,2,22,P 78,,,FALSE,OE,p,461,359403,,,,,,,,,
CVOE updated,3001,1,2,23,I 15,,,FALSE,OE,q,632,360557,,,,,,,,,
CVOE updated,3001,1,2,24,D 27,,,TRUE,OE,q,631,361706,,,,,,,,,
CVOE updated,3001,1,2,25,O 94,,,TRUE,OE,p,540,362766,,,,,,,,,
CVOE updated,3001,1,2,26,A 65,,,FALSE,OE,q,654,363930,,,,,,,,,
CVOE updated,3001,1,2,27,I 42,,,TRUE,OE,p,571,365013,,,,,,,,,
CVOE updated,3001,1,2,28,E 25,,,FALSE,OE,q,541,366067,,,,,,,,,
CVOE updated,3001,1,2,29,H 49,,,TRUE,OE,q,732,367325,,,,,,,,,
CVOE updated,3001,1,2,30,S 18,,,FALSE,OE,p,825,368668,,,,,,,,,
CVOE updated,3001,1,2,31,H 51,,,TRUE,OE,q,629,369822,,,,,,,,,
CVOE updated,3001,1,2,32,U 14,,,TRUE,OE,q,643,370986,,,,,,,,,
CVOE updated,3001,1,2,33,E 02,,,TRUE,OE,p,1901,373411,,,,,,,,,
CVOE updated,3001,1,2,34,J 26,,,FALSE,OE,p,1332,375258,,,,,,,,,
CVOE updated,3001,1,2,35,D 24,,,FALSE,OE,p,676,376452,,,,,,,,,
CVOE updated,3001,1,2,36,O 50,,,TRUE,OE,p,701,377678,,,,,,,,,
CVOE updated,3001,1,2,37,U 16,,,TRUE,OE,p,753,378946,,,,,,,,,
CVOE updated,3001,1,2,38,O 15,,,FALSE,OE,q,712,380172,,,,,,,,,
CVOE updated,3001,1,2,39,D 32,,,FALSE,OE,p,730,381423,,,,,,,,,
CVOE updated,3001,1,2,40,S 67,,,TRUE,OE,q,1372,383316,,,,,,,,,
CVOE updated,3001,1,2,41,J 74,,,FALSE,OE,p,567,384394,,,,,,,,,
CVOE updated,3001,1,2,42,D 92,,,FALSE,OE,p,736,385646,,,,,,,,,
CVOE updated,3001,1,2,43,A 65,,,FALSE,OE,q,619,386779,,,,,,,,,
CVOE updated,3001,1,2,44,I 87,,,FALSE,OE,q,1251,388545,,,,,,,,,
CVOE updated,3001,1,2,45,H 61,,,TRUE,OE,q,718,389779,,,,,,,,,
CVOE updated,3001,1,2,46,E 59,,,FALSE,OE,q,1387,391681,,,,,,,,,
CVOE updated,3001,1,2,47,I 33,,,FALSE,OE,q,627,392821,,,,,,,,,
CVOE updated,3001,1,2,48,O 90,,,TRUE,OE,p,936,394280,,,,,,,,,
CVOE updated,3001,1,2,49,U 51,,,FALSE,OE,q,685,395479,,,,,,,,,
CVOE updated,3001,1,2,50,A 10,,,TRUE,OE,p,639,396633,,,,,,,,,
CVOE updated,3001,1,2,51,E 50,,,TRUE,OE,p,613,397758,,,,,,,,,
CVOE updated,3001,1,2,52,D 92,,,FALSE,OE,p,644,398922,,,,,,,,,
CVOE updated,3001,1,2,53,E 60,,,TRUE,OE,p,615,400060,,,,,,,,,
CVOE updated,3001,1,2,54,A 95,,,FALSE,OE,q,549,401127,,,,,,,,,
CVOE updated,3001,1,2,55,E 64,,,TRUE,OE,p,713,402358,,,,,,,,,
CVOE updated,3001,1,2,56,P 20,,,FALSE,OE,p,735,403613,,,,,,,,,
CVOE updated,3001,1,2,57,S 06,,,FALSE,OE,p,677,404805,,,,,,,,,
CVOE updated,3001,1,2,58,P 64,,,FALSE,OE,p,798,406126,,,,,,,,,
CVOE updated,3001,1,2,59,U 70,,,TRUE,OE,p,587,407232,,,,,,,,,
CVOE updated,3001,1,2,60,S 16,,,FALSE,OE,p,866,408611,,,,,,,,,
CVOE updated,3001,1,2,61,E 35,,,FALSE,OE,q,729,409858,,,,,,,,,
CVOE updated,3001,1,2,62,I 93,,,FALSE,OE,q,766,411145,,,,,,,,,
CVOE updated,3001,1,2,63,D 63,,,TRUE,OE,q,679,412341,,,,,,,,,
CVOE updated,3001,1,2,64,U 89,,,FALSE,OE,q,633,413495,,,,,,,,,
CVOE updated,3001,1,2,65,E 91,,,FALSE,OE,q,667,414679,,,,,,,,,
CVOE updated,3001,1,2,66,A 12,,,TRUE,OE,p,691,415887,,,,,,,,,
CVOE updated,3001,1,2,67,P 56,,,FALSE,OE,p,623,417036,,,,,,,,,
CVOE updated,3001,1,2,68,S 65,,,TRUE,OE,q,847,418393,,,,,,,,,
CVOE updated,3001,1,2,69,P 07,,,TRUE,OE,q,923,419836,,,,,,,,,
CVOE updated,3001,1,2,70,I 77,,,FALSE,OE,q,460,420823,,,,,,,,,
CVOE updated,3001,1,2,71,J 19,,,TRUE,OE,q,734,422080,,,,,,,,,
CVOE updated,3001,1,2,72,O 59,,,FALSE,OE,q,878,423474,,,,,,,,,
CVOE updated,3001,1,2,73,J 15,,,TRUE,OE,q,625,424621,,,,,,,,,
CVOE updated,3001,1,2,74,I 89,,,FALSE,OE,q,774,425904,,,,,,,,,
CVOE updated,3001,1,2,75,O 97,,,FALSE,OE,q,715,427145,,,,,,,,,
CVOE updated,3001,1,2,76,A 92,,,TRUE,OE,p,477,428140,,,,,,,,,
CVOE updated,3001,1,2,77,J 90,,,FALSE,OE,p,691,429354,,,,,,,,,
CVOE updated,3001,1,2,78,H 65,,,TRUE,OE,q,600,430463,,,,,,,,,
CVOE updated,3001,1,2,79,H 17,,,TRUE,OE,q,2217,433197,,,,,,,,,
CVOE updated,3001,1,2,80,S 26,,,FALSE,OE,p,702,434416,,,,,,,,,
CVOE updated,3001,1,2,81,D 56,,,FALSE,OE,p,883,435814,,,,,,,,,
CVOE updated,3001,1,2,82,I 91,,,FALSE,OE,q,670,437001,,,,,,,,,
CVOE updated,3001,1,2,83,J 11,,,TRUE,OE,q,471,437985,,,,,,,,,
CVOE updated,3001,1,2,84,O 28,,,TRUE,OE,p,518,439015,,,,,,,,,
CVOE updated,3001,1,2,85,H 29,,,TRUE,OE,q,859,440390,,,,,,,,,
CVOE updated,3001,1,2,86,J 25,,,TRUE,OE,q,1535,442449,,,,,,,,,
CVOE updated,3001,1,2,87,A 73,,,FALSE,OE,q,516,443480,,,,,,,,,
CVOE updated,3001,1,2,88,J 63,,,TRUE,OE,q,662,444660,,,,,,,,,
CVOE updated,3001,1,2,89,U 84,,,TRUE,OE,p,461,445642,,,,,,,,,
CVOE updated,3001,1,2,90,A 58,,,TRUE,OE,p,649,446814,,,,,,,,,
CVOE updated,3001,1,2,91,S 43,,,TRUE,OE,q,718,448049,,,,,,,,,
CVOE updated,3001,1,2,92,H 54,,,FALSE,OE,p,1044,449609,,,,,,,,,
CVOE updated,3001,1,2,93,D 4,,,FALSE,OE,p,790,450922,,,,,,,,,
CVOE updated,3001,1,2,94,J 75,,,TRUE,OE,q,562,451994,,,,,,,,,
CVOE updated,3001,1,2,95,D 19,,,TRUE,OE,q,557,453072,,,,,,,,,
CVOE updated,3001,1,2,96,J 38,,,FALSE,OE,p,690,454288,,,,,,,,,
CVOE updated,3001,1,2,97,I 56,,,TRUE,OE,p,646,455445,,,,,,,,,
CVOE updated,3001,1,2,98,P 87,,,TRUE,OE,q,638,456603,,,,,,,,,
CVOE updated,3001,1,2,99,O 80,,,TRUE,OE,p,986,458101,,,,,,,,,
CVOE updated,3001,1,2,100,U 60,,,TRUE,OE,p,1077,459693,,,,,,,,,
CVOE updated,3001,1,2,101,P 48,,,FALSE,OE,p,462,460678,,,,,,,,,
CVOE updated,3001,1,2,102,H 64,,,FALSE,OE,p,529,461728,,,,,,,,,
CVOE updated,3001,1,2,103,A 13,,,FALSE,OE,q,426,462675,,,,,,,,,
CVOE updated,3001,1,2,104,H 68,,,FALSE,OE,p,586,463785,,,,,,,,,
CVOE updated,3001,1,2,105,E 16,,,TRUE,OE,p,800,465099,,,,,,,,,
CVOE updated,3001,1,2,106,S 71,,,TRUE,OE,q,857,466473,,,,,,,,,
CVOE updated,3001,1,3,11,A 44,Letter,N,TRUE,CV,p,6676,602584,,,,,,,,,
CVOE updated,3001,1,3,12,D 94,Letter,N,FALSE,CV,q,1263,604372,,,,,,,,,
CVOE updated,3001,1,3,13,E 75,Number,Y,FALSE,OE,q,2174,607066,,,,,,,,,
CVOE updated,3001,1,3,14,H 81,Number,N,TRUE,OE,q,1944,609536,,,,,,,,,
CVOE updated,3001,1,3,15,I 64,Letter,Y,TRUE,CV,p,1298,611357,,,,,,,,,
CVOE updated,3001,1,3,16,J 54,Letter,N,FALSE,CV,q,1131,613007,,,,,,,,,
CVOE updated,3001,1,3,17,O 23,Number,Y,FALSE,OE,q,1433,614959,,,,,,,,,
CVOE updated,3001,1,3,18,P 05,Number,N,TRUE,OE,q,2387,617863,,,,,,,,,
CVOE updated,3001,1,3,19,S 34,Letter,Y,FALSE,CV,q,1365,619741,,,,,,,,,
CVOE updated,3001,1,3,20,U 88,Letter,N,TRUE,CV,p,1081,621341,,,,,,,,,
CVOE updated,3001,1,3,21,A 70,Number,Y,TRUE,OE,p,3037,624897,,,,,,,,,
CVOE updated,3001,1,3,22,D 12,Number,N,FALSE,OE,p,2398,627808,,,,,,,,,
CVOE updated,3001,1,3,23,E 79,Letter,Y,FALSE,CV,p,1656,629983,,,,,,,,,
CVOE updated,3001,1,3,24,H 72,Letter,N,FALSE,CV,q,2207,632701,,,,,,,,,
CVOE updated,3001,1,3,25,I 41,Number,Y,FALSE,OE,q,1779,635006,,,,,,,,,
CVOE updated,3001,1,3,26,J 63,Number,N,TRUE,OE,q,1514,637042,,,,,,,,,
CVOE updated,3001,1,3,27,O 03,Letter,Y,FALSE,CV,p,986,638547,,,,,,,,,
CVOE updated,3001,1,3,28,P 75,Letter,N,TRUE,CV,q,1923,640984,,,,,,,,,
CVOE updated,3001,1,3,29,S 61,Number,Y,TRUE,OE,q,2886,644381,,,,,,,,,
CVOE updated,3001,1,3,30,U 28,Number,N,TRUE,OE,p,2339,647234,,,,,,,,,
CVOE updated,3001,1,3,31,A 21,Letter,Y,FALSE,CV,p,1293,649038,,,,,,,,,
CVOE updated,3001,1,3,32,D 18,Letter,N,FALSE,CV,q,1244,650806,,,,,,,,,
CVOE updated,3001,1,3,33,E 35,Number,Y,FALSE,OE,q,1544,652873,,,,,,,,,
CVOE updated,3001,1,3,34,H 62,Number,N,FALSE,OE,p,1228,654624,,,,,,,,,
CVOE updated,3001,1,3,35,I 82,Letter,Y,TRUE,CV,p,2407,657553,,,,,,,,,
CVOE updated,3001,1,3,36,J 78,Letter,N,FALSE,CV,q,2305,660367,,,,,,,,,
CVOE updated,3001,1,3,37,O 12,Number,Y,TRUE,OE,p,1937,662816,,,,,,,,,
CVOE updated,3001,1,3,38,P 13,Number,N,TRUE,OE,q,1525,664855,,,,,,,,,
CVOE updated,3001,1,3,39,S 07,Letter,Y,TRUE,CV,q,1759,667139,,,,,,,,,
CVOE updated,3001,1,3,40,U 36,Letter,N,TRUE,CV,p,1003,668666,,,,,,,,,
CVOE updated,3001,1,3,41,A 96,Number,Y,TRUE,OE,q,1282,670462,,,,,,,,,
CVOE updated,3001,1,3,42,D 04,Number,N,FALSE,OE,p,2094,673074,,,,,,,,,
CVOE updated,3001,1,3,43,E 60,Letter,Y,TRUE,CV,p,1485,675082,,,,,,,,,
CVOE updated,3001,1,3,44,H 83,Letter,N,TRUE,CV,q,949,676546,,,,,,,,,
CVOE updated,3001,1,3,45,I 64,Number,Y,TRUE,OE,p,1493,678557,,,,,,,,,
CVOE updated,3001,1,3,46,J 76,Number,N,FALSE,OE,p,991,680072,,,,,,,,,
CVOE updated,3001,1,3,47,O 78,Letter,Y,TRUE,CV,p,1788,682385,,,,,,,,,
CVOE updated,3001,1,3,48,P 09,Letter,N,TRUE,CV,q,1675,684573,,,,,,,,,
CVOE updated,3001,1,3,49,S 72,Number,Y,FALSE,OE,p,1657,686738,,,,,,,,,
CVOE updated,3001,1,3,50,U 47,Number,N,FALSE,OE,q,1527,688792,,,,,,,,,
CVOE updated,3001,1,3,51,A 31,Letter,Y,FALSE,CV,p,946,690261,,,,,,,,,
CVOE updated,3001,1,3,52,D 96,Letter,N,FALSE,CV,q,1458,692239,,,,,,,,,
CVOE updated,3001,1,3,53,E 40,Number,Y,TRUE,OE,p,1232,693997,,,,,,,,,
CVOE updated,3001,1,3,54,H 79,Number,N,TRUE,OE,q,1144,695659,,,,,,,,,
CVOE updated,3001,1,3,55,I 15,Letter,Y,FALSE,CV,p,1172,697354,,,,,,,,,
CVOE updated,3001,1,3,56,J 07,Letter,N,TRUE,CV,q,846,698711,,,,,,,,,
CVOE updated,3001,1,3,57,O 61,Number,Y,FALSE,OE,q,1415,700647,,,,,,,,,
CVOE updated,3001,1,3,58,P 58,Number,N,FALSE,OE,p,1296,702461,,,,,,,,,
CVOE updated,3001,1,3,59,S 37,Letter,Y,TRUE,CV,q,1092,704074,,,,,,,,,
CVOE updated,3001,1,3,60,U 61,Letter,N,FALSE,CV,p,1425,706024,,,,,,,,,
CVOE updated,3001,1,3,61,A 17,Number,Y,FALSE,OE,q,1312,707845,,,,,,,,,
CVOE updated,3001,1,3,62,D 85,Number,N,TRUE,OE,q,1664,710030,,,,,,,,,
CVOE updated,3001,1,3,63,E 20,Letter,Y,TRUE,CV,p,2159,712708,,,,,,,,,
CVOE updated,3001,1,3,64,H 86,Letter,N,FALSE,CV,q,3238,716471,,,,,,,,,
CVOE updated,3001,1,3,65,I 21,Number,Y,FALSE,OE,q,1463,718446,,,,,,,,,
CVOE updated,3001,1,3,66,J 29,Number,N,TRUE,OE,q,1448,720415,,,,,,,,,
CVOE updated,3001,1,3,67,O 13,Letter,Y,FALSE,CV,p,1615,722549,,,,,,,,,
CVOE updated,3001,1,3,68,P 82,Letter,N,FALSE,CV,q,916,723983,,,,,,,,,
CVOE updated,3001,1,3,69,S 72,Number,Y,FALSE,OE,p,1797,726297,,,,,,,,,
CVOE updated,3001,1,3,70,U 84,Number,N,TRUE,OE,p,1500,728317,,,,,,,,,
CVOE updated,3001,1,3,71,A 49,Letter,Y,FALSE,CV,p,1298,730132,,,,,,,,,
CVOE updated,3001,1,3,72,D 91,Letter,N,TRUE,CV,q,813,731464,,,,,,,,,
CVOE updated,3001,1,3,73,E 99,Number,Y,FALSE,OE,q,1120,733104,,,,,,,,,
CVOE updated,3001,1,3,74,H 16,Number,N,FALSE,OE,p,2180,735798,,,,,,,,,
CVOE updated,3001,1,3,75,I 45,Letter,Y,FALSE,CV,p,1434,737752,,,,,,,,,
CVOE updated,3001,1,3,76,J 70,Letter,N,FALSE,CV,q,1250,739518,,,,,,,,,
CVOE updated,3001,1,3,77,O 22,Number,Y,TRUE,OE,p,864,740899,,,,,,,,,
CVOE updated,3001,1,3,78,P 41,Number,N,TRUE,OE,q,1104,742522,,,,,,,,,
CVOE updated,3001,1,3,79,S 93,Letter,Y,TRUE,CV,q,1128,744163,,,,,,,,,
CVOE updated,3001,1,3,80,U 70,Letter,N,TRUE,CV,p,1316,746001,,,,,,,,,
CVOE updated,3001,1,3,81,A 42,Number,Y,TRUE,OE,p,1283,747802,,,,,,,,,
CVOE updated,3001,1,3,82,D 85,Number,N,TRUE,OE,q,1317,749636,,,,,,,,,
CVOE updated,3001,1,3,83,E 68,Letter,Y,TRUE,CV,p,1311,751463,,,,,,,,,
CVOE updated,3001,1,3,84,H 17,Letter,N,TRUE,CV,q,860,752846,,,,,,,,,
CVOE updated,3001,1,3,85,I 70,Number,Y,TRUE,OE,p,1951,755320,,,,,,,,,
CVOE updated,3001,1,3,86,J 88,Number,N,FALSE,OE,p,1396,757232,,,,,,,,,
CVOE updated,3001,1,3,87,O 32,Letter,Y,TRUE,CV,p,1567,759320,,,,,,,,,
CVOE updated,3001,1,3,88,P 95,Letter,N,TRUE,CV,q,906,760742,,,,,,,,,
CVOE updated,3001,1,3,89,S 98,Number,Y,FALSE,OE,p,1180,762433,,,,,,,,,
CVOE updated,3001,1,3,90,U 37,Number,N,FALSE,OE,q,1628,764581,,,,,,,,,
CVOE updated,3001,1,3,91,A 56,Letter,Y,TRUE,CV,p,2545,767648,,,,,,,,,
CVOE updated,3001,1,3,92,D 57,Letter,N,TRUE,CV,q,962,769132,,,,,,,,,
CVOE updated,3001,1,3,93,E 93,Number,Y,FALSE,OE,q,978,770632,,,,,,,,,
CVOE updated,3001,1,3,94,H 27,Number,N,TRUE,OE,q,992,772146,,,,,,,,,
CVOE updated,3001,1,3,95,I 35,Letter,Y,FALSE,CV,p,1098,773768,,,,,,,,,
CVOE updated,3001,1,3,96,J 03,Letter,N,TRUE,CV,q,987,775274,,,,,,,,,
CVOE updated,3001,1,3,97,O 28,Number,Y,TRUE,OE,p,1045,776832,,,,,,,,,
CVOE updated,3001,1,3,98,P 59,Number,N,TRUE,OE,q,1089,778443,,,,,,,,,
CVOE updated,3001,1,3,99,S 77,Letter,Y,TRUE,CV,q,2861,781832,,,,,,,,,
CVOE updated,3001,1,3,100,U 05,Letter,N,FALSE,CV,p,798,783152,,,,,,,,,
CVOE updated,3001,1,3,101,A 56,Number,Y,TRUE,OE,p,1142,784813,,,,,,,,,
CVOE updated,3001,1,3,102,D 01,Number,N,TRUE,OE,q,3046,788384,,,,,,,,,
CVOE updated,3001,1,3,103,E 02,Letter,Y,TRUE,CV,p,1203,790108,,,,,,,,,
CVOE updated,3001,1,3,104,H 68,Letter,N,FALSE,CV,q,2109,792731,,,,,,,,,
CVOE updated,3001,1,3,105,I 05,Number,Y,FALSE,OE,q,1270,794525,,,,,,,,,
CVOE updated,3001,1,3,106,J 55,Number,N,TRUE,OE,q,1011,796050,,,,,,,,,
CVOE updated,3001,1,3,107,O 73,Letter,Y,FALSE,CV,p,997,797569,,,,,,,,,
CVOE updated,3001,1,3,108,P 41,Letter,N,TRUE,CV,q,1095,799184,,,,,,,,,
CVOE updated,3001,1,3,109,S 92,Number,Y,FALSE,OE,p,988,800694,,,,,,,,,
CVOE updated,3001,1,3,110,U 34,Number,N,TRUE,OE,p,1484,802706,,,,,,,,,
CVOE updated,3001,1,3,111,A 09,Letter,Y,FALSE,CV,p,1598,804821,,,,,,,,,
CVOE updated,3001,1,3,112,D 92,Letter,N,FALSE,CV,q,1604,806943,,,,,,,,,
CVOE updated,3001,1,3,113,E 48,Number,Y,TRUE,OE,p,992,808448,,,,,,,,,
CVOE updated,3001,1,3,114,H 76,Number,N,FALSE,OE,p,934,809907,,,,,,,,,
CVOE updated,3001,1,3,115,I 44,Letter,Y,TRUE,CV,p,1325,811748,,,,,,,,,
CVOE updated,3001,1,3,116,J 67,Letter,N,TRUE,CV,q,987,813260,,,,,,,,,
CVOE updated,3001,1,3,117,O 48,Number,Y,TRUE,OE,p,990,814763,,,,,,,,,
CVOE updated,3001,1,3,118,P 22,Number,N,FALSE,OE,p,1246,816536,,,,,,,,,
CVOE updated,3001,1,3,119,S 86,Letter,Y,FALSE,CV,p,1260,818317,,,,,,,,,
CVOE updated,3001,1,3,120,U 35,Letter,N,FALSE,CV,p,4966,823806,,,,,,,,,
CVOE updated,3001,1,3,121,A 91,Number,Y,FALSE,OE,q,1563,825887,,,,,,,,,
CVOE updated,3001,1,3,122,D 78,Number,N,FALSE,OE,p,1384,827791,,,,,,,,,
CVOE updated,3001,1,3,123,E 91,Letter,Y,FALSE,CV,p,1127,829435,,,,,,,,,
CVOE updated,3001,1,3,124,H 54,Letter,N,FALSE,CV,q,1493,831451,,,,,,,,,
CVOE updated,3001,1,3,125,I 65,Number,Y,FALSE,OE,q,1537,833512,,,,,,,,,
CVOE updated,3001,1,3,126,J 52,Number,N,FALSE,OE,p,2474,836499,,,,,,,,,
CVOE updated,3001,1,3,127,O 19,Letter,Y,FALSE,CV,p,1240,838265,,,,,,,,,
CVOE updated,3001,1,3,128,P 48,Letter,N,FALSE,CV,q,1074,839866,,,,,,,,,
CVOE updated,3001,1,3,129,S 45,Number,Y,TRUE,OE,p,2467,842859,,,,,,,,,
CVOE updated,3001,1,3,130,U 26,Number,N,TRUE,OE,p,1875,845250,,,,,,,,,
CVOE updated,3001,1,4,1,U 38,Number,N,TRUE,OE,p,12808,955190,,,,,,,,,
CVOE updated,3001,1,4,2,P 73,Number,N,TRUE,OE,q,2728,958444,,,,,,,,,
CVOE updated,3001,1,4,3,U 95,Letter,Y,FALSE,CV,p,1139,960106,,,,,,,,,
CVOE updated,3001,1,4,4,J 61,Number,Y,TRUE,OE,q,1188,961821,,,,,,,,,
CVOE updated,3001,1,4,5,D 51,Number,N,TRUE,OE,q,968,963301,,,,,,,,,
CVOE updated,3001,1,4,6,S 28,Number,N,FALSE,OE,p,1715,965532,,,,,,,,,
CVOE updated,3001,1,4,7,A 56,Letter,Y,TRUE,CV,p,1174,967224,,,,,,,,,
CVOE updated,3001,1,4,8,H 78,Letter,N,FALSE,CV,q,952,968702,,,,,,,,,
CVOE updated,3001,1,4,9,P 92,Letter,N,FALSE,CV,q,1492,970709,,,,,,,,,
CVOE updated,3001,1,4,10,E 05,Number,Y,FALSE,OE,q,1485,972719,,,,,,,,,
CVOE updated,3001,1,4,11,P 57,Letter,Y,TRUE,CV,q,1332,974566,,,,,,,,,
CVOE updated,3001,1,4,12,D 88,Number,Y,FALSE,OE,p,1499,976583,,,,,,,,,
CVOE updated,3001,1,4,13,O 89,Letter,Y,FALSE,CV,p,1313,978414,,,,,,,,,
CVOE updated,3001,1,4,14,U 43,Number,Y,FALSE,OE,q,1179,980114,,,,,,,,,
CVOE updated,3001,1,4,15,H 10,Number,N,FALSE,OE,p,1487,982122,,,,,,,,,
CVOE updated,3001,1,4,16,S 07,Letter,Y,TRUE,CV,q,1861,984496,,,,,,,,,
CVOE updated,3001,1,4,17,J 10,Letter,N,FALSE,CV,q,1736,986754,,,,,,,,,
CVOE updated,3001,1,4,18,H 54,Number,Y,FALSE,OE,p,1196,988465,,,,,,,,,
CVOE updated,3001,1,4,19,E 99,Number,N,FALSE,OE,q,1859,990844,,,,,,,,,
CVOE updated,3001,1,4,20,J 36,Letter,Y,FALSE,CV,q,1128,992497,,,,,,,,,
CVOE updated,3001,1,4,21,I 94,Letter,N,TRUE,CV,p,2031,995050,,,,,,,,,
CVOE updated,3001,1,4,22,A 82,Letter,N,TRUE,CV,p,1143,996712,,,,,,,,,
CVOE updated,3001,1,4,23,H 79,Number,Y,TRUE,OE,q,1135,998371,,,,,,,,,
CVOE updated,3001,1,4,24,J 60,Number,N,FALSE,OE,p,1106,999992,,,,,,,,,
CVOE updated,3001,1,4,25,S 28,Letter,Y,FALSE,CV,q,1268,1001787,,,,,,,,,
CVOE updated,3001,1,4,26,P 11,Number,Y,TRUE,OE,q,1560,1003863,,,,,,,,,
CVOE updated,3001,1,4,27,D 39,Number,N,TRUE,OE,q,1048,1005434,,,,,,,,,
CVOE updated,3001,1,4,28,E 90,Number,N,TRUE,OE,p,1388,1007341,,,,,,,,,
CVOE updated,3001,1,4,29,I 38,Number,N,TRUE,OE,p,4789,1012642,,,,,,,,,
CVOE updated,3001,1,4,30,S 35,Letter,Y,TRUE,CV,q,1705,1014859,,,,,,,,,
CVOE updated,3001,1,4,31,D 41,Number,Y,TRUE,OE,q,3675,1019045,,,,,,,,,
CVOE updated,3001,1,4,32,E 06,Number,N,TRUE,OE,p,1078,1020649,,,,,,,,,
CVOE updated,3001,1,4,33,A 27,Number,N,FALSE,OE,q,1001,1022172,,,,,,,,,
CVOE updated,3001,1,4,34,U 95,Letter,Y,FALSE,CV,p,1966,1024654,,,,,,,,,
CVOE updated,3001,1,4,35,A 53,Letter,N,FALSE,CV,p,1525,1026696,,,,,,,,,
CVOE updated,3001,1,4,36,E 43,Letter,N,FALSE,CV,p,813,1028018,,,,,,,,,
CVOE updated,3001,1,4,37,P 05,Number,Y,TRUE,OE,q,714,1029252,,,,,,,,,
CVOE updated,3001,1,4,38,O 19,Letter,Y,FALSE,CV,p,4183,1033954,,,,,,,,,
CVOE updated,3001,1,4,39,I 96,Number,Y,TRUE,OE,p,1097,1035569,,,,,,,,,
CVOE updated,3001,1,4,40,A 88,Number,N,TRUE,OE,p,989,1037078,,,,,,,,,
CVOE updated,3001,1,4,41,I 67,Number,N,FALSE,OE,q,2211,1039800,,,,,,,,,
CVOE updated,3001,1,4,42,D 40,Number,N,FALSE,OE,p,1118,1041440,,,,,,,,,
CVOE updated,3001,1,4,43,P 79,Letter,Y,TRUE,CV,q,1426,1043382,,,,,,,,,
CVOE updated,3001,1,4,44,U 24,Number,Y,TRUE,OE,p,1610,1045516,,,,,,,,,
CVOE updated,3001,1,4,45,P 74,Number,N,FALSE,OE,p,1462,1047501,,,,,,,,,
CVOE updated,3001,1,4,46,E 70,Number,N,TRUE,OE,p,2139,1050162,,,,,,,,,
CVOE updated,3001,1,4,47,S 27,Number,N,TRUE,OE,q,924,1051614,,,,,,,,,
CVOE updated,3001,1,4,48,E 54,Letter,Y,TRUE,CV,p,1053,1053193,,,,,,,,,
CVOE updated,3001,1,4,49,A 53,Letter,N,FALSE,CV,p,1081,1054787,,,,,,,,,
CVOE updated,3001,1,4,50,P 34,Letter,N,FALSE,CV,q,1898,1057205,,,,,,,,,
CVOE updated,3001,1,4,51,D 74,Number,Y,FALSE,OE,p,976,1058699,,,,,,,,,
CVOE updated,3001,1,4,52,A 03,Letter,Y,FALSE,CV,p,1113,1060336,,,,,,,,,
CVOE updated,3001,1,4,53,E 24,Number,Y,TRUE,OE,p,1423,1062280,,,,,,,,,
CVOE updated,3001,1,4,54,I 58,Letter,Y,TRUE,CV,p,1996,1064786,,,,,,,,,
CVOE updated,3001,1,4,55,D 77,Number,Y,TRUE,OE,q,1456,1066763,,,,,,,,,
CVOE updated,3001,1,4,56,S 75,Number,N,TRUE,OE,q,1541,1068815,,,,,,,,,
CVOE updated,3001,1,4,57,I 20,Letter,Y,TRUE,CV,p,1402,1070743,,,,,,,,,
CVOE updated,3001,1,4,58,J 52,Letter,N,FALSE,CV,q,1331,1072589,,,,,,,,,
CVOE updated,3001,1,4,59,A 38,Number,Y,TRUE,OE,p,1742,1074850,,,,,,,,,
CVOE updated,3001,1,4,60,I 60,Letter,Y,TRUE,CV,p,1416,1076791,,,,,,,,,
CVOE updated,3001,1,4,61,S 51,Number,Y,TRUE,OE,q,1280,1078588,,,,,,,,,
CVOE updated,3001,1,4,62,D 63,Letter,Y,TRUE,CV,q,1845,1080953,,,,,,,,,
CVOE updated,3001,1,4,63,U 27,Letter,N,FALSE,CV,q,2330,1083805,,,,,,,,,
CVOE updated,3001,1,4,64,J 77,Letter,N,TRUE,CV,q,2897,1087222,,,,,,,,,
CVOE updated,3001,1,4,65,O 15,Number,Y,FALSE,OE,q,1489,1089231,,,,,,,,,
CVOE updated,3001,1,4,66,J 20,Letter,Y,FALSE,CV,q,1397,1091139,,,,,,,,,
CVOE updated,3001,1,4,67,U 97,Number,Y,FALSE,OE,q,1598,1093257,,,,,,,,,
CVOE updated,3001,1,4,68,H 03,Number,N,TRUE,OE,q,1335,1095111,,,,,,,,,
CVOE updated,3001,1,4,69,O 04,Letter,Y,TRUE,CV,p,1742,1097368,,,,,,,,,
CVOE updated,3001,1,4,70,E 10,Letter,N,TRUE,CV,p,1109,1098985,,,,,,,,,
CVOE updated,3001,1,4,71,I 52,Letter,N,TRUE,CV,p,1179,1100689,,,,,,,,,
CVOE updated,3001,1,4,72,H 81,Number,Y,TRUE,OE,q,1600,1102810,,,,,,,,,
CVOE updated,3001,1,4,73,I 41,Number,N,FALSE,OE,q,1680,1105006,,,,,,,,,
CVOE updated,3001,1,4,74,U 19,Letter,Y,FALSE,CV,p,2311,1107838,,,,,,,,,
CVOE updated,3001,1,4,75,O 17,Number,Y,FALSE,OE,q,1147,1109507,,,,,,,,,
CVOE updated,3001,1,4,76,A 10,Number,N,TRUE,OE,p,2938,1112965,,,,,,,,,
CVOE updated,3001,1,4,77,P 93,Letter,Y,TRUE,CV,q,1809,1115286,,,,,,,,,
CVOE updated,3001,1,4,78,E 59,Letter,N,FALSE,CV,p,1221,1117032,,,,,,,,,
CVOE updated,3001,1,4,79,O 53,Letter,N,FALSE,CV,p,1047,1118591,,,,,,,,,
CVOE updated,3001,1,4,80,A 96,Letter,N,TRUE,CV,p,987,1120098,,,,,,,,,
CVOE updated,3001,1,4,81,H 36,Letter,Y,FALSE,CV,q,2237,1122848,,,,,,,,,
CVOE updated,3001,1,4,82,A 63,Letter,N,FALSE,CV,p,1663,1125024,,,,,,,,,
CVOE updated,3001,1,4,83,I 38,Letter,N,TRUE,CV,p,1444,1126989,,,,,,,,,
CVOE updated,3001,1,4,84,O 51,Number,Y,FALSE,OE,q,1113,1128624,,,,,,,,,
CVOE updated,3001,1,4,85,J 26,Number,N,FALSE,OE,p,942,1130087,,,,,,,,,
CVOE updated,3001,1,4,86,S 34,Letter,Y,FALSE,CV,q,1534,1132146,,,,,,,,,
CVOE updated,3001,1,4,87,U 85,Number,Y,FALSE,OE,q,1152,1133814,,,,,,,,,
CVOE updated,3001,1,4,88,J 77,Number,N,TRUE,OE,q,1042,1135371,,,,,,,,,
CVOE updated,3001,1,4,89,I 73,Letter,Y,FALSE,CV,p,1207,1137086,,,,,,,,,
CVOE updated,3001,1,4,90,H 46,Number,Y,FALSE,OE,p,1214,1138826,,,,,,,,,
CVOE updated,3001,1,4,91,D 04,Number,N,FALSE,OE,p,956,1140302,,,,,,,,,
CVOE updated,3001,1,4,92,P 72,Letter,Y,FALSE,CV,q,831,1141643,,,,,,,,,
CVOE updated,3001,1,4,93,D 99,Number,Y,TRUE,OE,q,1414,1143577,,,,,,,,,
CVOE updated,3001,1,4,94,U 25,Letter,Y,FALSE,CV,p,1427,1145523,,,,,,,,,
CVOE updated,3001,1,4,95,O 32,Letter,N,TRUE,CV,p,1535,1147581,,,,,,,,,
CVOE updated,3001,1,4,96,E 80,Letter,N,TRUE,CV,p,834,1148930,,,,,,,,,
CVOE updated,3001,1,4,97,O 84,Number,Y,TRUE,OE,p,1329,1150775,,,,,,,,,
CVOE updated,3001,1,4,98,A 78,Number,N,TRUE,OE,p,2246,1153542,,,,,,,,,
CVOE updated,3001,1,4,99,S 05,Number,N,TRUE,OE,q,1153,1155216,,,,,,,,,
CVOE updated,3001,1,4,100,U 35,Letter,Y,FALSE,CV,p,1127,1156857,,,,,,,,,
CVOE updated,3001,1,4,101,H 14,Letter,N,FALSE,CV,q,1619,1158999,,,,,,,,,
CVOE updated,3001,1,4,102,U 15,Number,Y,FALSE,OE,p,1130,1160644,,,,,,,,,
CVOE updated,3001,1,4,103,E 36,Letter,Y,TRUE,CV,p,3364,1164528,,,,,,,,,
CVOE updated,3001,1,4,104,P 70,Letter,N,FALSE,CV,q,2126,1167173,,,,,,,,,
CVOE updated,3001,1,4,105,O 44,Number,Y,TRUE,OE,p,1006,1168704,,,,,,,,,
CVOE updated,3001,1,4,106,S 41,Letter,Y,TRUE,CV,q,1504,1170735,,,,,,,,,
CVOE updated,3001,1,4,107,D 83,Letter,N,TRUE,CV,q,1947,1173195,,,,,,,,,
CVOE updated,3001,1,4,108,J 39,Letter,N,TRUE,CV,q,1174,1174889,,,,,,,,,
CVOE updated,3001,1,4,109,S 22,Number,Y,FALSE,OE,p,1169,1176584,,,,,,,,,
CVOE updated,3001,1,4,110,D 89,Letter,Y,TRUE,CV,q,5499,1182597,,,,,,,,,
CVOE updated,3001,1,4,111,P 87,Letter,N,TRUE,CV,q,7131,1190246,,,,,,,,,
CVOE updated,3001,1,4,112,H 42,Letter,N,FALSE,CV,q,2476,1193242,,,,,,,,,
CVOE updated,3001,1,4,113,S 49,Letter,N,TRUE,CV,q,1124,1194890,,,,,,,,,
CVOE updated,3001,1,4,114,J 20,Number,Y,FALSE,OE,p,936,1196335,,,,,,,,,
CVOE updated,3001,1,4,115,O 19,Letter,Y,FALSE,CV,p,2303,1199153,,,,,,,,,
CVOE updated,3001,1,4,116,H 50,Letter,N,FALSE,CV,q,1640,1201306,,,,,,,,,
CVOE updated,3001,1,4,117,I 68,Number,Y,TRUE,OE,p,1052,1202869,,,,,,,,,
CVOE updated,3001,1,4,118,J 72,Number,N,FALSE,OE,p,1752,1205135,,,,,,,,,
CVOE updated,3001,1,4,119,O 21,Number,N,FALSE,OE,q,1640,1207290,,,,,,,,,
CVOE updated,3001,1,4,120,H 22,Number,N,FALSE,OE,p,1085,1208902,,,,,,,,,
CVOE updated,3009,1,1,11,A 71,,,FALSE,CV,p,6498,181154,,,,,,,,,
CVOE updated,3009,1,1,12,I 66,,,TRUE,CV,p,1071,182744,,,,,,,,,
CVOE updated,3009,1,1,13,S 30,,,FALSE,CV,q,823,184080,,,,,,,,,
CVOE updated,3009,1,1,14,D 20,,,FALSE,CV,q,1709,186299,,,,,,,,,
CVOE updated,3009,1,1,15,I 31,,,FALSE,CV,p,1038,187845,,,,,,,,,
CVOE updated,3009,1,1,16,P 16,,,FALSE,CV,q,1010,189367,,,,,,,,,
CVOE updated,3009,1,1,17,A 49,,,FALSE,CV,p,761,190652,,,,,,,,,
CVOE updated,3009,1,1,18,O 64,,,TRUE,CV,p,840,192014,,,,,,,,,
CVOE updated,3009,1,1,19,D 02,,,FALSE,CV,q,951,193475,,,,,,,,,
CVOE updated,3009,1,1,20,P 81,,,TRUE,CV,q,974,194965,,,,,,,,,
CVOE updated,3009,1,1,21,J 58,,,FALSE,CV,q,937,196411,,,,,,,,,
CVOE updated,3009,1,1,22,A 22,,,TRUE,CV,p,729,197653,,,,,,,,,
CVOE updated,3009,1,1,23,J 72,,,FALSE,CV,q,909,199083,,,,,,,,,
CVOE updated,3009,1,1,24,P 91,,,TRUE,CV,q,821,200412,,,,,,,,,
CVOE updated,3009,1,1,25,E 19,,,FALSE,CV,p,847,201772,,,,,,,,,
CVOE updated,3009,1,1,26,I 30,,,TRUE,CV,p,1222,203513,,,,,,,,,
CVOE updated,3009,1,1,27,D 91,,,TRUE,CV,q,771,204796,,,,,,,,,
CVOE updated,3009,1,1,28,O 48,,,TRUE,CV,p,688,205996,,,,,,,,,
CVOE updated,3009,1,1,29,A 89,,,FALSE,CV,p,939,207447,,,,,,,,,
CVOE updated,3009,1,1,30,U 11,,,FALSE,CV,p,2413,210371,,,,,,,,,
CVOE updated,3009,1,1,31,I 76,,,TRUE,CV,p,954,211846,,,,,,,,,
CVOE updated,3009,1,1,32,U 89,,,FALSE,CV,p,944,213303,,,,,,,,,
CVOE updated,3009,1,1,33,D 63,,,TRUE,CV,q,892,214717,,,,,,,,,
CVOE updated,3009,1,1,34,H 70,,,FALSE,CV,q,998,216224,,,,,,,,,
CVOE updated,3009,1,1,35,D 48,,,FALSE,CV,q,881,217623,,,,,,,,,
CVOE updated,3009,1,1,36,P 56,,,FALSE,CV,q,888,219030,,,,,,,,,
CVOE updated,3009,1,1,37,O 77,,,FALSE,CV,p,716,220258,,,,,,,,,
CVOE updated,3009,1,1,38,P 42,,,FALSE,CV,q,848,221624,,,,,,,,,
CVOE updated,3009,1,1,39,H 22,,,FALSE,CV,q,1075,223218,,,,,,,,,
CVOE updated,3009,1,1,40,E 42,,,TRUE,CV,p,951,224677,,,,,,,,,
CVOE updated,3009,1,1,41,J 28,,,FALSE,CV,q,924,226117,,,,,,,,,
CVOE updated,3009,1,1,42,E 95,,,FALSE,CV,p,834,227460,,,,,,,,,
CVOE updated,3009,1,1,43,S 63,,,TRUE,CV,q,832,228808,,,,,,,,,
CVOE updated,3009,1,1,44,H 50,,,FALSE,CV,q,1093,230420,,,,,,,,,
CVOE updated,3009,1,1,45,S 33,,,TRUE,CV,q,891,231834,,,,,,,,,
CVOE updated,3009,1,1,46,P 57,,,TRUE,CV,q,889,233232,,,,,,,,,
CVOE updated,3009,1,1,47,E 23,,,FALSE,CV,p,743,234486,,,,,,,,,
CVOE updated,3009,1,1,48,S 61,,,TRUE,CV,q,760,235770,,,,,,,,,
CVOE updated,3009,1,1,49,U 67,,,FALSE,CV,p,863,237157,,,,,,,,,
CVOE updated,3009,1,1,50,H 32,,,FALSE,CV,q,653,238330,,,,,,,,,
CVOE updated,3009,1,1,51,U 50,,,TRUE,CV,p,648,239492,,,,,,,,,
CVOE updated,3009,1,1,52,O 49,,,FALSE,CV,p,623,240634,,,,,,,,,
CVOE updated,3009,1,1,53,U 32,,,TRUE,CV,p,842,241986,,,,,,,,,
CVOE updated,3009,1,1,54,J 78,,,FALSE,CV,q,729,243240,,,,,,,,,
CVOE updated,3009,1,1,55,S 54,,,FALSE,CV,q,738,244499,,,,,,,,,
CVOE updated,3009,1,1,56,J 27,,,TRUE,CV,q,735,245746,,,,,,,,,
CVOE updated,3009,1,1,57,S 06,,,FALSE,CV,q,800,247061,,,,,,,,,
CVOE updated,3009,1,1,58,D 67,,,TRUE,CV,p,886,248464,,,,,,,,,
CVOE updated,3009,1,1,59,A 79,,,FALSE,CV,p,991,249969,,,,,,,,,
CVOE updated,3009,1,1,60,S 52,,,FALSE,CV,q,680,251158,,,,,,,,,
CVOE updated,3009,1,1,61,U 16,,,TRUE,CV,p,853,252531,,,,,,,,,
CVOE updated,3009,1,1,62,O 82,,,TRUE,CV,p,1045,254090,,,,,,,,,
CVOE updated,3009,1,1,63,H 87,,,TRUE,CV,q,821,255433,,,,,,,,,
CVOE updated,3009,1,1,64,I 32,,,TRUE,CV,p,828,256773,,,,,,,,,
CVOE updated,3009,1,1,65,U 37,,,FALSE,CV,p,861,258156,,,,,,,,,
CVOE updated,3009,1,1,66,I 42,,,TRUE,CV,p,657,259335,,,,,,,,,
CVOE updated,3009,1,1,67,D 65,,,TRUE,CV,q,859,260704,,,,,,,,,
CVOE updated,3009,1,1,68,U 77,,,FALSE,CV,p,827,262056,,,,,,,,,
CVOE updated,3009,1,1,69,E 12,,,TRUE,CV,p,1760,264339,,,,,,,,,
CVOE updated,3009,1,1,70,I 60,,,TRUE,CV,p,809,265671,,,,,,,,,
CVOE updated,3009,1,1,71,J 36,,,FALSE,CV,q,854,267050,,,,,,,,,
CVOE updated,3009,1,1,72,H 75,,,TRUE,CV,q,799,268361,,,,,,,,,
CVOE updated,3009,1,1,73,I 50,,,TRUE,CV,q,721,269600,,,,,,,,,
CVOE updated,3009,1,1,74,E 99,,,FALSE,CV,p,819,270932,,,,,,,,,
CVOE updated,3009,1,1,75,A 86,,,TRUE,CV,p,763,272209,,,,,,,,,
CVOE updated,3009,1,1,76,U 48,,,TRUE,CV,p,664,273393,,,,,,,,,
CVOE updated,3009,1,1,77,E 01,,,FALSE,CV,p,617,274530,,,,,,,,,
CVOE updated,3009,1,1,78,A 78,,,TRUE,CV,p,737,275783,,,,,,,,,
CVOE updated,3009,1,1,79,P 60,,,FALSE,CV,q,1073,277369,,,,,,,,,
CVOE updated,3009,1,1,80,E 43,,,FALSE,CV,p,719,278599,,,,,,,,,
CVOE updated,3009,1,1,81,D 69,,,TRUE,CV,q,1068,280181,,,,,,,,,
CVOE updated,3009,1,1,82,H 11,,,TRUE,CV,q,1018,281715,,,,,,,,,
CVOE updated,3009,1,1,83,P 43,,,TRUE,CV,q,1350,283580,,,,,,,,,
CVOE updated,3009,1,1,84,O 67,,,FALSE,CV,p,664,284761,,,,,,,,,
CVOE updated,3009,1,1,85,S 91,,,FALSE,CV,q,896,286176,,,,,,,,,
CVOE updated,3009,1,1,86,J 68,,,TRUE,CV,q,818,287515,,,,,,,,,
CVOE updated,3009,1,1,87,S 47,,,FALSE,CV,q,602,288632,,,,,,,,,
CVOE updated,3009,1,1,88,I 81,,,TRUE,CV,p,689,289836,,,,,,,,,
CVOE updated,3009,1,1,89,J 39,,,FALSE,CV,q,1096,291443,,,,,,,,,
CVOE updated,3009,1,1,90,A 11,,,TRUE,CV,p,766,292730,,,,,,,,,
CVOE updated,3009,1,1,91,O 76,,,FALSE,CV,p,737,293984,,,,,,,,,
CVOE updated,3009,1,1,92,A 62,,,FALSE,CV,p,864,295361,,,,,,,,,
CVOE updated,3009,1,1,93,O 27,,,TRUE,CV,p,548,296429,,,,,,,,,
CVOE updated,3009,1,1,94,E 66,,,FALSE,CV,p,778,297726,,,,,,,,,
CVOE updated,3009,1,1,95,J 62,,,TRUE,CV,q,672,298920,,,,,,,,,
CVOE updated,3009,1,1,96,H 72,,,TRUE,CV,q,1434,300865,,,,,,,,,
CVOE updated,3009,1,1,97,E 49,,,TRUE,CV,p,664,302045,,,,,,,,,
CVOE updated,3009,1,1,98,D 52,,,TRUE,CV,q,701,303266,,,,,,,,,
CVOE updated,3009,1,1,99,H 62,,,TRUE,CV,q,812,304593,,,,,,,,,
CVOE updated,3009,1,1,100,I 11,,,TRUE,CV,p,651,305766,,,,,,,,,
CVOE updated,3009,1,1,101,A 98,,,FALSE,CV,p,692,306974,,,,,,,,,
CVOE updated,3009,1,1,102,H 29,,,FALSE,CV,q,715,308213,,,,,,,,,
CVOE updated,3009,1,1,103,E 83,,,TRUE,CV,p,791,309523,,,,,,,,,
CVOE updated,3009,1,1,104,D 43,,,FALSE,CV,q,981,311013,,,,,,,,,
CVOE updated,3009,1,1,105,P 45,,,TRUE,CV,q,716,312248,,,,,,,,,
CVOE updated,3009,1,1,106,J 17,,,TRUE,CV,q,592,313357,,,,,,,,,
CVOE updated,3009,1,2,11,A 24,,,TRUE,OE,p,1998,384918,,,,,,,,,
CVOE updated,3009,1,2,12,O 83,,,FALSE,OE,q,903,386340,,,,,,,,,
CVOE updated,3009,1,2,13,H 55,,,TRUE,OE,q,1961,388815,,,,,,,,,
CVOE updated,3009,1,2,14,P 10,,,FALSE,OE,p,1117,390454,,,,,,,,,
CVOE updated,3009,1,2,15,D 30,,,FALSE,OE,p,905,391876,,,,,,,,,
CVOE updated,3009,1,2,16,U 62,,,TRUE,OE,q,1992,394379,,,,,,,,,
CVOE updated,3009,1,2,17,P 95,,,TRUE,OE,p,2078,396965,,,,,,,,,
CVOE updated,3009,1,2,18,U 06,,,TRUE,OE,p,1038,398526,,,,,,,,,
CVOE updated,3009,1,2,19,E 75,,,FALSE,OE,q,1166,400204,,,,,,,,,
CVOE updated,3009,1,2,20,I 67,,,FALSE,OE,q,1107,401828,,,,,,,,,
CVOE updated,3009,1,2,21,S 13,,,TRUE,OE,q,1097,403435,,,,,,,,,
CVOE updated,3009,1,2,22,P 78,,,FALSE,OE,p,1035,404990,,,,,,,,,
CVOE updated,3009,1,2,23,I 15,,,FALSE,OE,q,3530,409035,,,,,,,,,
CVOE updated,3009,1,2,24,D 27,,,TRUE,OE,q,2729,412284,,,,,,,,,
CVOE updated,3009,1,2,25,O 94,,,TRUE,OE,p,23296,436101,,,,,,,,,
CVOE updated,3009,1,2,26,A 65,,,FALSE,OE,q,927,437551,,,,,,,,,
CVOE updated,3009,1,2,27,I 42,,,TRUE,OE,p,1508,439582,,,,,,,,,
CVOE updated,3009,1,2,28,E 25,,,FALSE,OE,q,830,440921,,,,,,,,,
CVOE updated,3009,1,2,29,H 49,,,TRUE,OE,q,961,442402,,,,,,,,,
CVOE updated,3009,1,2,30,S 18,,,FALSE,OE,p,638,443562,,,,,,,,,
CVOE updated,3009,1,2,31,H 51,,,TRUE,OE,q,897,444971,,,,,,,,,
CVOE updated,3009,1,2,32,U 14,,,TRUE,OE,q,914,446405,,,,,,,,,
CVOE updated,3009,1,2,33,E 02,,,TRUE,OE,p,1180,448104,,,,,,,,,
CVOE updated,3009,1,2,34,J 26,,,FALSE,OE,p,829,449453,,,,,,,,,
CVOE updated,3009,1,2,35,D 24,,,FALSE,OE,p,633,450607,,,,,,,,,
CVOE updated,3009,1,2,36,O 50,,,TRUE,OE,p,719,451844,,,,,,,,,
CVOE updated,3009,1,2,37,U 16,,,TRUE,OE,p,687,453045,,,,,,,,,
CVOE updated,3009,1,2,38,O 15,,,FALSE,OE,q,712,454270,,,,,,,,,
CVOE updated,3009,1,2,39,D 32,,,FALSE,OE,p,847,455638,,,,,,,,,
CVOE updated,3009,1,2,40,S 67,,,TRUE,OE,q,689,456847,,,,,,,,,
CVOE updated,3009,1,2,41,J 74,,,FALSE,OE,p,729,458087,,,,,,,,,
CVOE updated,3009,1,2,42,D 92,,,FALSE,OE,p,1514,460122,,,,,,,,,
CVOE updated,3009,1,2,43,A 65,,,FALSE,OE,q,1064,461706,,,,,,,,,
CVOE updated,3009,1,2,44,I 87,,,FALSE,OE,q,1178,463403,,,,,,,,,
CVOE updated,3009,1,2,45,H 61,,,TRUE,OE,p,2224,466149,,,,,,,,,
CVOE updated,3009,1,2,46,E 59,,,FALSE,OE,q,1026,467685,,,,,,,,,
CVOE updated,3009,1,2,47,I 33,,,FALSE,OE,q,1231,469440,,,,,,,,,
CVOE updated,3009,1,2,48,O 90,,,TRUE,OE,p,902,470861,,,,,,,,,
CVOE updated,3009,1,2,49,U 51,,,FALSE,OE,p,1448,472824,,,,,,,,,
CVOE updated,3009,1,2,50,A 10,,,TRUE,OE,p,1935,475278,,,,,,,,,
CVOE updated,3009,1,2,51,E 50,,,TRUE,OE,p,903,476696,,,,,,,,,
CVOE updated,3009,1,2,52,D 92,,,FALSE,OE,p,2213,479423,,,,,,,,,
CVOE updated,3009,1,2,53,E 60,,,TRUE,OE,p,910,480853,,,,,,,,,
CVOE updated,3009,1,2,54,A 95,,,FALSE,OE,q,848,482225,,,,,,,,,
CVOE updated,3009,1,2,55,E 64,,,TRUE,OE,p,723,483466,,,,,,,,,
CVOE updated,3009,1,2,56,P 20,,,FALSE,OE,p,803,484780,,,,,,,,,
CVOE updated,3009,1,2,57,S 06,,,FALSE,OE,p,863,486157,,,,,,,,,
CVOE updated,3009,1,2,58,P 64,,,FALSE,OE,p,890,487567,,,,,,,,,
CVOE updated,3009,1,2,59,U 70,,,TRUE,OE,p,849,488926,,,,,,,,,
CVOE updated,3009,1,2,60,S 16,,,FALSE,OE,p,798,490242,,,,,,,,,
CVOE updated,3009,1,2,61,E 35,,,FALSE,OE,q,749,491510,,,,,,,,,
CVOE updated,3009,1,2,62,I 93,,,FALSE,OE,q,804,492831,,,,,,,,,
CVOE updated,3009,1,2,63,D 63,,,TRUE,OE,q,631,493975,,,,,,,,,
CVOE updated,3009,1,2,64,U 89,,,FALSE,OE,q,1170,495664,,,,,,,,,
CVOE updated,3009,1,2,65,E 91,,,FALSE,OE,p,1129,497307,,,,,,,,,
CVOE updated,3009,1,2,66,A 12,,,TRUE,OE,p,1228,499056,,,,,,,,,
CVOE updated,3009,1,2,67,P 56,,,FALSE,OE,p,1429,501007,,,,,,,,,
CVOE updated,3009,1,2,68,S 65,,,TRUE,OE,q,735,502263,,,,,,,,,
CVOE updated,3009,1,2,69,P 07,,,TRUE,OE,q,931,503709,,,,,,,,,
CVOE updated,3009,1,2,70,I 77,,,FALSE,OE,q,807,505035,,,,,,,,,
CVOE updated,3009,1,2,71,J 19,,,TRUE,OE,q,1029,506574,,,,,,,,,
CVOE updated,3009,1,2,72,O 59,,,FALSE,OE,q,732,507827,,,,,,,,,
CVOE updated,3009,1,2,73,J 15,,,TRUE,OE,q,1264,509609,,,,,,,,,
CVOE updated,3009,1,2,74,I 89,,,FALSE,OE,q,1004,511132,,,,,,,,,
CVOE updated,3009,1,2,75,O 97,,,FALSE,OE,q,1073,512718,,,,,,,,,
CVOE updated,3009,1,2,76,A 92,,,TRUE,OE,p,820,514049,,,,,,,,,
CVOE updated,3009,1,2,77,J 90,,,FALSE,OE,p,883,515445,,,,,,,,,
CVOE updated,3009,1,2,78,H 65,,,TRUE,OE,q,941,516903,,,,,,,,,
CVOE updated,3009,1,2,79,H 17,,,TRUE,OE,q,853,518265,,,,,,,,,
CVOE updated,3009,1,2,80,S 26,,,FALSE,OE,p,796,519575,,,,,,,,,
CVOE updated,3009,1,2,81,D 56,,,FALSE,OE,p,664,520760,,,,,,,,,
CVOE updated,3009,1,2,82,I 91,,,FALSE,OE,q,1848,523127,,,,,,,,,
CVOE updated,3009,1,2,83,J 11,,,TRUE,OE,q,1027,524673,,,,,,,,,
CVOE updated,3009,1,2,84,O 28,,,TRUE,OE,p,943,526139,,,,,,,,,
CVOE updated,3009,1,2,85,H 29,,,TRUE,OE,q,896,527559,,,,,,,,,
CVOE updated,3009,1,2,86,J 25,,,TRUE,OE,q,1045,529125,,,,,,,,,
CVOE updated,3009,1,2,87,A 73,,,FALSE,OE,q,870,530516,,,,,,,,,
CVOE updated,3009,1,2,88,J 63,,,TRUE,OE,q,812,531842,,,,,,,,,
CVOE updated,3009,1,2,89,U 84,,,TRUE,OE,p,1086,533449,,,,,,,,,
CVOE updated,3009,1,2,90,A 58,,,TRUE,OE,p,605,534568,,,,,,,,,
CVOE updated,3009,1,2,91,S 43,,,TRUE,OE,q,725,535805,,,,,,,,,
CVOE updated,3009,1,2,92,H 54,,,FALSE,OE,p,932,537246,,,,,,,,,
CVOE updated,3009,1,2,93,D 4,,,FALSE,OE,p,962,538726,,,,,,,,,
CVOE updated,3009,1,2,94,J 75,,,TRUE,OE,q,805,540052,,,,,,,,,
CVOE updated,3009,1,2,95,D 19,,,TRUE,OE,q,1404,541968,,,,,,,,,
CVOE updated,3009,1,2,96,J 38,,,FALSE,OE,p,615,543096,,,,,,,,,
CVOE updated,3009,1,2,97,I 56,,,TRUE,OE,q,930,544544,,,,,,,,,
CVOE updated,3009,1,2,98,P 87,,,TRUE,OE,q,2469,547533,,,,,,,,,
CVOE updated,3009,1,2,99,O 80,,,TRUE,OE,p,876,548924,,,,,,,,,
CVOE updated,3009,1,2,100,U 60,,,TRUE,OE,p,629,550077,,,,,,,,,
CVOE updated,3009,1,2,101,P 48,,,FALSE,OE,p,787,551385,,,,,,,,,
CVOE updated,3009,1,2,102,H 64,,,FALSE,OE,p,635,552533,,,,,,,,,
CVOE updated,3009,1,2,103,A 13,,,FALSE,OE,q,809,553857,,,,,,,,,
CVOE updated,3009,1,2,104,H 68,,,FALSE,OE,p,700,555065,,,,,,,,,
CVOE updated,3009,1,2,105,E 16,,,TRUE,OE,p,1406,556988,,,,,,,,,
CVOE updated,3009,1,2,106,S 71,,,TRUE,OE,q,765,558263,,,,,,,,,
CVOE updated,3009,1,3,11,A 44,Letter,N,TRUE,CV,p,5318,642955,,,,,,,,,
CVOE updated,3009,1,3,12,D 94,Letter,N,FALSE,CV,q,1981,645452,,,,,,,,,
CVOE updated,3009,1,3,13,E 75,Number,Y,FALSE,OE,q,2323,648294,,,,,,,,,
CVOE updated,3009,1,3,14,H 81,Number,N,TRUE,OE,q,1444,650248,,,,,,,,,
CVOE updated,3009,1,3,15,I 64,Letter,Y,TRUE,CV,p,2668,653439,,,,,,,,,
CVOE updated,3009,1,3,16,J 54,Letter,N,FALSE,CV,q,2260,656215,,,,,,,,,
CVOE updated,3009,1,3,17,O 23,Number,Y,FALSE,OE,p,939,657677,,,,,,,,,
CVOE updated,3009,1,3,18,P 05,Number,N,TRUE,OE,q,2392,660580,,,,,,,,,
CVOE updated,3009,1,3,19,S 34,Letter,Y,FALSE,CV,q,3172,664261,,,,,,,,,
CVOE updated,3009,1,3,20,U 88,Letter,N,TRUE,CV,p,1112,665884,,,,,,,,,
CVOE updated,3009,1,3,21,A 70,Number,Y,TRUE,OE,p,2345,668751,,,,,,,,,
CVOE updated,3009,1,3,22,D 12,Number,N,FALSE,OE,p,1229,670501,,,,,,,,,
CVOE updated,3009,1,3,23,E 79,Letter,Y,FALSE,CV,q,1719,672742,,,,,,,,,
CVOE updated,3009,1,3,24,H 72,Letter,N,FALSE,CV,q,4858,678114,,,,,,,,,
CVOE updated,3009,1,3,25,I 41,Number,Y,FALSE,OE,q,1362,679985,,,,,,,,,
CVOE updated,3009,1,3,26,J 63,Number,N,TRUE,OE,q,1809,682316,,,,,,,,,
CVOE updated,3009,1,3,27,O 03,Letter,Y,FALSE,CV,q,1505,684345,,,,,,,,,
CVOE updated,3009,1,3,28,P 75,Letter,N,TRUE,CV,q,2903,687760,,,,,,,,,
CVOE updated,3009,1,3,29,S 61,Number,Y,TRUE,OE,q,1146,689420,,,,,,,,,
CVOE updated,3009,1,3,30,U 28,Number,N,TRUE,OE,p,1160,691100,,,,,,,,,
CVOE updated,3009,1,3,31,A 21,Letter,Y,FALSE,CV,p,2947,694571,,,,,,,,,
CVOE updated,3009,1,3,32,D 18,Letter,N,FALSE,CV,q,2989,698080,,,,,,,,,
CVOE updated,3009,1,3,33,E 35,Number,Y,FALSE,OE,q,2526,701117,,,,,,,,,
CVOE updated,3009,1,3,34,H 62,Number,N,FALSE,OE,p,3497,705122,,,,,,,,,
CVOE updated,3009,1,3,35,I 82,Letter,Y,TRUE,CV,p,6606,712247,,,,,,,,,
CVOE updated,3009,1,3,36,J 78,Letter,N,FALSE,CV,q,7277,720036,,,,,,,,,
CVOE updated,3009,1,3,37,O 12,Number,Y,TRUE,OE,p,1172,721731,,,,,,,,,
CVOE updated,3009,1,3,38,P 13,Number,N,TRUE,OE,q,2379,724622,,,,,,,,,
CVOE updated,3009,1,3,39,S 07,Letter,Y,TRUE,CV,q,4955,730098,,,,,,,,,
CVOE updated,3009,1,3,40,U 36,Letter,N,TRUE,CV,p,1194,731804,,,,,,,,,
CVOE updated,3009,1,3,41,A 96,Number,Y,TRUE,OE,p,1869,734196,,,,,,,,,
CVOE updated,3009,1,3,42,D 04,Number,N,FALSE,OE,p,2752,737462,,,,,,,,,
CVOE updated,3009,1,3,43,E 60,Letter,Y,TRUE,CV,p,1894,739871,,,,,,,,,
CVOE updated,3009,1,3,44,H 83,Letter,N,TRUE,CV,q,3022,743416,,,,,,,,,
CVOE updated,3009,1,3,45,I 64,Number,Y,TRUE,OE,p,4265,748192,,,,,,,,,
CVOE updated,3009,1,3,46,J 76,Number,N,FALSE,OE,p,1327,750038,,,,,,,,,
CVOE updated,3009,1,3,47,O 78,Letter,Y,TRUE,CV,p,1323,751884,,,,,,,,,
CVOE updated,3009,1,3,48,P 09,Letter,N,TRUE,CV,q,2692,755087,,,,,,,,,
CVOE updated,3009,1,3,49,S 72,Number,Y,FALSE,OE,p,1875,757486,,,,,,,,,
CVOE updated,3009,1,3,50,U 47,Number,N,FALSE,OE,q,2845,760840,,,,,,,,,
CVOE updated,3009,1,3,51,A 31,Letter,Y,FALSE,CV,p,2530,763892,,,,,,,,,
CVOE updated,3009,1,3,52,D 96,Letter,N,FALSE,CV,q,3273,767685,,,,,,,,,
CVOE updated,3009,1,3,53,E 40,Number,Y,TRUE,OE,p,1999,770195,,,,,,,,,
CVOE updated,3009,1,3,54,H 79,Number,N,TRUE,OE,q,1371,772083,,,,,,,,,
CVOE updated,3009,1,3,55,I 15,Letter,Y,FALSE,CV,q,1585,774181,,,,,,,,,
CVOE updated,3009,1,3,56,J 07,Letter,N,TRUE,CV,q,3818,778514,,,,,,,,,
CVOE updated,3009,1,3,57,O 61,Number,Y,FALSE,OE,q,9585,788615,,,,,,,,,
CVOE updated,3009,1,3,58,P 58,Number,N,FALSE,OE,p,12306,801436,,,,,,,,,
CVOE updated,3009,1,3,59,S 37,Letter,Y,TRUE,CV,q,1047,802995,,,,,,,,,
CVOE updated,3009,1,3,60,U 61,Letter,N,FALSE,CV,p,1676,805191,,,,,,,,,
CVOE updated,3009,1,3,61,A 17,Number,Y,FALSE,OE,p,1307,807022,,,,,,,,,
CVOE updated,3009,1,3,62,D 85,Number,N,TRUE,OE,q,2490,810022,,,,,,,,,
CVOE updated,3009,1,3,63,E 20,Letter,Y,TRUE,CV,p,2892,813424,,,,,,,,,
CVOE updated,3009,1,3,64,H 86,Letter,N,FALSE,CV,q,2222,816171,,,,,,,,,
CVOE updated,3009,1,3,65,I 21,Number,Y,FALSE,OE,q,1669,818351,,,,,,,,,
CVOE updated,3009,1,3,66,J 29,Number,N,TRUE,OE,q,1278,820144,,,,,,,,,
CVOE updated,3009,1,3,67,O 13,Letter,Y,FALSE,CV,p,4223,824889,,,,,,,,,
CVOE updated,3009,1,3,68,P 82,Letter,N,FALSE,CV,q,2162,827561,,,,,,,,,
CVOE updated,3009,1,3,69,S 72,Number,Y,FALSE,OE,p,3453,831536,,,,,,,,,
CVOE updated,3009,1,3,70,U 84,Number,N,TRUE,OE,p,1282,833332,,,,,,,,,
CVOE updated,3009,1,3,71,A 49,Letter,Y,FALSE,CV,q,1266,835116,,,,,,,,,
CVOE updated,3009,1,3,72,D 91,Letter,N,TRUE,CV,q,1381,837014,,,,,,,,,
CVOE updated,3009,1,3,73,E 99,Number,Y,FALSE,OE,q,1598,839132,,,,,,,,,
CVOE updated,3009,1,3,74,H 16,Number,N,FALSE,OE,p,2735,842385,,,,,,,,,
CVOE updated,3009,1,3,75,I 45,Letter,Y,FALSE,CV,p,2488,845389,,,,,,,,,
CVOE updated,3009,1,3,76,J 70,Letter,N,FALSE,CV,q,1872,847773,,,,,,,,,
CVOE updated,3009,1,3,77,O 22,Number,Y,TRUE,OE,p,3534,851818,,,,,,,,,
CVOE updated,3009,1,3,78,P 41,Number,N,TRUE,OE,q,1779,854114,,,,,,,,,
CVOE updated,3009,1,3,79,S 93,Letter,Y,TRUE,CV,q,2758,857393,,,,,,,,,
CVOE updated,3009,1,3,80,U 70,Letter,N,TRUE,CV,p,1227,859129,,,,,,,,,
CVOE updated,3009,1,3,81,A 42,Number,Y,TRUE,OE,p,1591,861243,,,,,,,,,
CVOE updated,3009,1,3,82,D 85,Number,N,TRUE,OE,q,1314,863066,,,,,,,,,
CVOE updated,3009,1,3,83,E 68,Letter,Y,TRUE,CV,p,3734,867319,,,,,,,,,
CVOE updated,3009,1,3,84,H 17,Letter,N,TRUE,CV,q,1231,869067,,,,,,,,,
CVOE updated,3009,1,3,85,I 70,Number,Y,TRUE,OE,p,1260,870846,,,,,,,,,
CVOE updated,3009,1,3,86,J 88,Number,N,FALSE,OE,q,1172,872541,,,,,,,,,
CVOE updated,3009,1,3,87,O 32,Letter,Y,TRUE,CV,p,2071,875124,,,,,,,,,
CVOE updated,3009,1,3,88,P 95,Letter,N,TRUE,CV,q,6584,882220,,,,,,,,,
CVOE updated,3009,1,3,89,S 98,Number,Y,FALSE,OE,p,3281,886018,,,,,,,,,
CVOE updated,3009,1,3,90,U 37,Number,N,FALSE,OE,q,2053,888590,,,,,,,,,
CVOE updated,3009,1,3,91,A 56,Letter,Y,TRUE,CV,p,1703,890807,,,,,,,,,
CVOE updated,3009,1,3,92,D 57,Letter,N,TRUE,CV,q,8543,899864,,,,,,,,,
CVOE updated,3009,1,3,93,E 93,Number,Y,FALSE,OE,p,1146,901534,,,,,,,,,
CVOE updated,3009,1,3,94,H 27,Number,N,TRUE,OE,q,4690,906745,,,,,,,,,
CVOE updated,3009,1,3,95,I 35,Letter,Y,FALSE,CV,p,2121,909376,,,,,,,,,
CVOE updated,3009,1,3,96,J 03,Letter,N,TRUE,CV,q,1281,911169,,,,,,,,,
CVOE updated,3009,1,3,97,O 28,Number,Y,TRUE,OE,p,1119,912808,,,,,,,,,
CVOE updated,3009,1,3,98,P 59,Number,N,TRUE,OE,q,2205,915527,,,,,,,,,
CVOE updated,3009,1,3,99,S 77,Letter,Y,TRUE,CV,q,2169,918208,,,,,,,,,
CVOE updated,3009,1,3,100,U 05,Letter,N,FALSE,CV,p,2948,921670,,,,,,,,,
CVOE updated,3009,1,3,101,A 56,Number,Y,TRUE,OE,p,1953,924142,,,,,,,,,
CVOE updated,3009,1,3,102,D 01,Number,N,TRUE,OE,q,2935,927591,,,,,,,,,
CVOE updated,3009,1,3,103,E 02,Letter,Y,TRUE,CV,p,2616,930722,,,,,,,,,
CVOE updated,3009,1,3,104,H 68,Letter,N,FALSE,CV,q,1555,932795,,,,,,,,,
CVOE updated,3009,1,3,105,I 05,Number,Y,FALSE,OE,q,2540,935847,,,,,,,,,
CVOE updated,3009,1,3,106,J 55,Number,N,TRUE,OE,q,5780,942137,,,,,,,,,
CVOE updated,3009,1,3,107,O 73,Letter,Y,FALSE,CV,p,4729,947386,,,,,,,,,
CVOE updated,3009,1,3,108,P 41,Letter,N,TRUE,CV,q,1843,949751,,,,,,,,,
CVOE updated,3009,1,3,109,S 92,Number,Y,FALSE,OE,p,1927,952201,,,,,,,,,
CVOE updated,3009,1,3,110,U 34,Number,N,TRUE,OE,p,3165,955890,,,,,,,,,
CVOE updated,3009,1,3,111,A 09,Letter,Y,FALSE,CV,p,3421,959829,,,,,,,,,
CVOE updated,3009,1,3,112,D 92,Letter,N,FALSE,CV,q,1805,962147,,,,,,,,,
CVOE updated,3009,1,3,113,E 48,Number,Y,TRUE,OE,p,2083,964742,,,,,,,,,
CVOE updated,3009,1,3,114,H 76,Number,N,FALSE,OE,q,1510,966769,,,,,,,,,
CVOE updated,3009,1,3,115,I 44,Letter,Y,TRUE,CV,p,11497,978789,,,,,,,,,
CVOE updated,3009,1,3,116,J 67,Letter,N,TRUE,CV,q,930,980240,,,,,,,,,
CVOE updated,3009,1,3,117,O 48,Number,Y,TRUE,OE,p,1205,981965,,,,,,,,,
CVOE updated,3009,1,3,118,P 22,Number,N,FALSE,OE,p,1913,984390,,,,,,,,,
CVOE updated,3009,1,3,119,S 86,Letter,Y,FALSE,CV,q,1446,986356,,,,,,,,,
CVOE updated,3009,1,3,120,U 35,Letter,N,FALSE,CV,p,3500,990377,,,,,,,,,
CVOE updated,3009,1,3,121,A 91,Number,Y,FALSE,OE,q,1419,992313,,,,,,,,,
CVOE updated,3009,1,3,122,D 78,Number,N,FALSE,OE,p,1859,994686,,,,,,,,,
CVOE updated,3009,1,3,123,E 91,Letter,Y,FALSE,CV,p,2731,997942,,,,,,,,,
CVOE updated,3009,1,3,124,H 54,Letter,N,FALSE,CV,q,1417,999878,,,,,,,,,
CVOE updated,3009,1,3,125,I 65,Number,Y,FALSE,OE,q,2427,1002821,,,,,,,,,
CVOE updated,3009,1,3,126,J 52,Number,N,FALSE,OE,p,1318,1004663,,,,,,,,,
CVOE updated,3009,1,3,127,O 19,Letter,Y,FALSE,CV,p,2269,1007447,,,,,,,,,
CVOE updated,3009,1,3,128,P 48,Letter,N,FALSE,CV,q,1316,1009278,,,,,,,,,
CVOE updated,3009,1,3,129,S 45,Number,Y,TRUE,OE,q,2518,1012313,,,,,,,,,
CVOE updated,3009,1,3,130,U 26,Number,N,TRUE,OE,p,1259,1014088,,,,,,,,,
CVOE updated,3009,1,4,1,U 38,Number,N,TRUE,OE,p,9206,1150676,,,,,,,,,
CVOE updated,3009,1,4,2,P 73,Number,N,TRUE,OE,q,1743,1152931,,,,,,,,,
CVOE updated,3009,1,4,3,U 95,Letter,Y,FALSE,CV,q,1180,1154635,,,,,,,,,
CVOE updated,3009,1,4,4,J 61,Number,Y,TRUE,OE,q,1011,1156166,,,,,,,,,
CVOE updated,3009,1,4,5,D 51,Number,N,TRUE,OE,q,1019,1157707,,,,,,,,,
CVOE updated,3009,1,4,6,S 28,Number,N,FALSE,OE,p,1308,1159530,,,,,,,,,
CVOE updated,3009,1,4,7,A 56,Letter,Y,TRUE,CV,p,972,1161010,,,,,,,,,
CVOE updated,3009,1,4,8,H 78,Letter,N,FALSE,CV,q,1983,1163505,,,,,,,,,
CVOE updated,3009,1,4,9,P 92,Letter,N,FALSE,CV,q,1228,1165250,,,,,,,,,
CVOE updated,3009,1,4,10,E 05,Number,Y,FALSE,OE,p,844,1166616,,,,,,,,,
CVOE updated,3009,1,4,11,P 57,Letter,Y,TRUE,CV,q,3510,1170649,,,,,,,,,
CVOE updated,3009,1,4,12,D 88,Number,Y,FALSE,OE,p,2605,1173777,,,,,,,,,
CVOE updated,3009,1,4,13,O 89,Letter,Y,FALSE,CV,p,2044,1176333,,,,,,,,,
CVOE updated,3009,1,4,14,U 43,Number,Y,FALSE,OE,p,1291,1178147,,,,,,,,,
CVOE updated,3009,1,4,15,H 10,Number,N,FALSE,OE,p,2945,1181601,,,,,,,,,
CVOE updated,3009,1,4,16,S 07,Letter,Y,TRUE,CV,q,2415,1184538,,,,,,,,,
CVOE updated,3009,1,4,17,J 10,Letter,N,FALSE,CV,q,1424,1186481,,,,,,,,,
CVOE updated,3009,1,4,18,H 54,Number,Y,FALSE,OE,p,1548,1188538,,,,,,,,,
CVOE updated,3009,1,4,19,E 99,Number,N,FALSE,OE,q,2706,1191763,,,,,,,,,
CVOE updated,3009,1,4,20,J 36,Letter,Y,FALSE,CV,q,3039,1195313,,,,,,,,,
CVOE updated,3009,1,4,21,I 94,Letter,N,TRUE,CV,p,1318,1197142,,,,,,,,,
CVOE updated,3009,1,4,22,A 82,Letter,N,TRUE,CV,p,1114,1198772,,,,,,,,,
CVOE updated,3009,1,4,23,H 79,Number,Y,TRUE,OE,q,1441,1200732,,,,,,,,,
CVOE updated,3009,1,4,24,J 60,Number,N,FALSE,OE,p,4002,1205243,,,,,,,,,
CVOE updated,3009,1,4,25,S 28,Letter,Y,FALSE,CV,q,1672,1207430,,,,,,,,,
CVOE updated,3009,1,4,26,P 11,Number,Y,TRUE,OE,q,1704,1209646,,,,,,,,,
CVOE updated,3009,1,4,27,D 39,Number,N,TRUE,OE,q,2166,1212324,,,,,,,,,
CVOE updated,3009,1,4,28,E 90,Number,N,TRUE,OE,p,3089,1215931,,,,,,,,,
CVOE updated,3009,1,4,29,I 38,Number,N,TRUE,OE,p,2372,1218814,,,,,,,,,
CVOE updated,3009,1,4,30,S 35,Letter,Y,TRUE,CV,q,1383,1220709,,,,,,,,,
CVOE updated,3009,1,4,31,D 41,Number,Y,TRUE,OE,q,3465,1224691,,,,,,,,,
CVOE updated,3009,1,4,32,E 06,Number,N,TRUE,OE,p,1813,1227022,,,,,,,,,
CVOE updated,3009,1,4,33,A 27,Number,N,FALSE,OE,q,1330,1228873,,,,,,,,,
CVOE updated,3009,1,4,34,U 95,Letter,Y,FALSE,CV,p,4204,1233597,,,,,,,,,
CVOE updated,3009,1,4,35,A 53,Letter,N,FALSE,CV,p,1226,1235336,,,,,,,,,
CVOE updated,3009,1,4,36,E 43,Letter,N,FALSE,CV,p,1017,1236877,,,,,,,,,
CVOE updated,3009,1,4,37,P 05,Number,Y,TRUE,OE,q,2811,1240205,,,,,,,,,
CVOE updated,3009,1,4,38,O 19,Letter,Y,FALSE,CV,p,2757,1243484,,,,,,,,,
CVOE updated,3009,1,4,39,I 96,Number,Y,TRUE,OE,p,4168,1248162,,,,,,,,,
CVOE updated,3009,1,4,40,A 88,Number,N,TRUE,OE,p,1149,1249827,,,,,,,,,
CVOE updated,3009,1,4,41,I 67,Number,N,FALSE,OE,q,1596,1251940,,,,,,,,,
CVOE updated,3009,1,4,42,D 40,Number,N,FALSE,OE,p,909,1253370,,,,,,,,,
CVOE updated,3009,1,4,43,P 79,Letter,Y,TRUE,CV,q,2530,1256408,,,,,,,,,
CVOE updated,3009,1,4,44,U 24,Number,Y,TRUE,OE,p,2802,1259730,,,,,,,,,
CVOE updated,3009,1,4,45,P 74,Number,N,FALSE,OE,p,2953,1263198,,,,,,,,,
CVOE updated,3009,1,4,46,E 70,Number,N,TRUE,OE,p,875,1264587,,,,,,,,,
CVOE updated,3009,1,4,47,S 27,Number,N,TRUE,OE,q,2104,1267199,,,,,,,,,
CVOE updated,3009,1,4,48,E 54,Letter,Y,TRUE,CV,p,1431,1269143,,,,,,,,,
CVOE updated,3009,1,4,49,A 53,Letter,N,FALSE,CV,p,1396,1271058,,,,,,,,,
CVOE updated,3009,1,4,50,P 34,Letter,N,FALSE,CV,q,1530,1273109,,,,,,,,,
CVOE updated,3009,1,4,51,D 74,Number,Y,FALSE,OE,p,2193,1275822,,,,,,,,,
CVOE updated,3009,1,4,52,A 03,Letter,Y,FALSE,CV,p,3804,1280150,,,,,,,,,
CVOE updated,3009,1,4,53,E 24,Number,Y,TRUE,OE,p,2702,1283365,,,,,,,,,
CVOE updated,3009,1,4,54,I 58,Letter,Y,TRUE,CV,p,1434,1285314,,,,,,,,,
CVOE updated,3009,1,4,55,D 77,Number,Y,TRUE,OE,q,3706,1289536,,,,,,,,,
CVOE updated,3009,1,4,56,S 75,Number,N,TRUE,OE,q,2726,1292773,,,,,,,,,
CVOE updated,3009,1,4,57,I 20,Letter,Y,TRUE,CV,p,4585,1297882,,,,,,,,,
CVOE updated,3009,1,4,58,J 52,Letter,N,FALSE,CV,q,1171,1299569,,,,,,,,,
CVOE updated,3009,1,4,59,A 38,Number,Y,TRUE,OE,p,1769,1301850,,,,,,,,,
CVOE updated,3009,1,4,60,I 60,Letter,Y,TRUE,CV,p,3987,1306352,,,,,,,,,
CVOE updated,3009,1,4,61,S 51,Number,Y,TRUE,OE,q,2782,1309647,,,,,,,,,
CVOE updated,3009,1,4,62,D 63,Letter,Y,TRUE,CV,q,2830,1312995,,,,,,,,,
CVOE updated,3009,1,4,63,U 27,Letter,N,FALSE,CV,p,1285,1314800,,,,,,,,,
CVOE updated,3009,1,4,64,J 77,Letter,N,TRUE,CV,q,1264,1316579,,,,,,,,,
CVOE updated,3009,1,4,65,O 15,Number,Y,FALSE,OE,q,3577,1320676,,,,,,,,,
CVOE updated,3009,1,4,66,J 20,Letter,Y,FALSE,CV,q,2919,1324118,,,,,,,,,
CVOE updated,3009,1,4,67,U 97,Number,Y,FALSE,OE,q,2291,1326924,,,,,,,,,
CVOE updated,3009,1,4,68,H 03,Number,N,TRUE,OE,q,1580,1329013,,,,,,,,,
CVOE updated,3009,1,4,69,O 04,Letter,Y,TRUE,CV,p,1491,1331024,,,,,,,,,
CVOE updated,3009,1,4,70,E 10,Letter,N,TRUE,CV,p,2041,1333574,,,,,,,,,
CVOE updated,3009,1,4,71,I 52,Letter,N,TRUE,CV,p,2603,1336686,,,,,,,,,
CVOE updated,3009,1,4,72,H 81,Number,Y,TRUE,OE,q,1870,1339070,,,,,,,,,
CVOE updated,3009,1,4,73,I 41,Number,N,FALSE,OE,q,1171,1340755,,,,,,,,,
CVOE updated,3009,1,4,74,U 19,Letter,Y,FALSE,CV,p,1502,1342769,,,,,,,,,
CVOE updated,3009,1,4,75,O 17,Number,Y,FALSE,OE,p,2091,1345375,,,,,,,,,
CVOE updated,3009,1,4,76,A 10,Number,N,TRUE,OE,p,6186,1352070,,,,,,,,,
CVOE updated,3009,1,4,77,P 93,Letter,Y,TRUE,CV,q,8212,1360797,,,,,,,,,
CVOE updated,3009,1,4,78,E 59,Letter,N,FALSE,CV,p,6008,1367326,,,,,,,,,
CVOE updated,3009,1,4,79,O 53,Letter,N,FALSE,CV,p,1002,1368838,,,,,,,,,
CVOE updated,3009,1,4,80,A 96,Letter,N,TRUE,CV,p,1174,1370526,,,,,,,,,
CVOE updated,3009,1,4,81,H 36,Letter,Y,FALSE,CV,q,2015,1373051,,,,,,,,,
CVOE updated,3009,1,4,82,A 63,Letter,N,FALSE,CV,p,1107,1374676,,,,,,,,,
CVOE updated,3009,1,4,83,I 38,Letter,N,TRUE,CV,p,939,1376125,,,,,,,,,
CVOE updated,3009,1,4,84,O 51,Number,Y,FALSE,OE,p,862,1377498,,,,,,,,,
CVOE updated,3009,1,4,85,J 26,Number,N,FALSE,OE,q,1081,1379101,,,,,,,,,
CVOE updated,3009,1,4,86,S 34,Letter,Y,FALSE,CV,q,4032,1383652,,,,,,,,,
CVOE updated,3009,1,4,87,U 85,Number,Y,FALSE,OE,q,2236,1386406,,,,,,,,,
CVOE updated,3009,1,4,88,J 77,Number,N,TRUE,OE,q,1093,1388013,,,,,,,,,
CVOE updated,3009,1,4,89,I 73,Letter,Y,FALSE,CV,p,2504,1391041,,,,,,,,,
CVOE updated,3009,1,4,90,H 46,Number,Y,FALSE,OE,p,2883,1394437,,,,,,,,,
CVOE updated,3009,1,4,91,D 04,Number,N,FALSE,OE,p,1211,1396165,,,,,,,,,
CVOE updated,3009,1,4,92,P 72,Letter,Y,FALSE,CV,q,2804,1399491,,,,,,,,,
CVOE updated,3009,1,4,93,D 99,Number,Y,TRUE,OE,q,1383,1401387,,,,,,,,,
CVOE updated,3009,1,4,94,U 25,Letter,Y,FALSE,CV,q,1473,1403377,,,,,,,,,
CVOE updated,3009,1,4,95,O 32,Letter,N,TRUE,CV,p,2204,1406092,,,,,,,,,
CVOE updated,3009,1,4,96,E 80,Letter,N,TRUE,CV,p,1205,1407810,,,,,,,,,
CVOE updated,3009,1,4,97,O 84,Number,Y,TRUE,OE,p,757,1409079,,,,,,,,,
CVOE updated,3009,1,4,98,A 78,Number,N,TRUE,OE,p,993,1410581,,,,,,,,,
CVOE updated,3009,1,4,99,S 05,Number,N,TRUE,OE,q,3826,1414931,,,,,,,,,
CVOE updated,3009,1,4,100,U 35,Letter,Y,FALSE,CV,p,1825,1417280,,,,,,,,,
CVOE updated,3009,1,4,101,H 14,Letter,N,FALSE,CV,q,1984,1419773,,,,,,,,,
CVOE updated,3009,1,4,102,U 15,Number,Y,FALSE,OE,q,2222,1422511,,,,,,,,,
CVOE updated,3009,1,4,103,E 36,Letter,Y,TRUE,CV,p,2657,1425680,,,,,,,,,
CVOE updated,3009,1,4,104,P 70,Letter,N,FALSE,CV,q,3721,1429910,,,,,,,,,
CVOE updated,3009,1,4,105,O 44,Number,Y,TRUE,OE,p,1686,1432109,,,,,,,,,
CVOE updated,3009,1,4,106,S 41,Letter,Y,TRUE,CV,q,5021,1437644,,,,,,,,,
CVOE updated,3009,1,4,107,D 83,Letter,N,TRUE,CV,q,1990,1440147,,,,,,,,,
CVOE updated,3009,1,4,108,J 39,Letter,N,TRUE,CV,q,1251,1441908,,,,,,,,,
CVOE updated,3009,1,4,109,S 22,Number,Y,FALSE,OE,p,1834,1444258,,,,,,,,,
CVOE updated,3009,1,4,110,D 89,Letter,Y,TRUE,CV,q,3361,1448135,,,,,,,,,
CVOE updated,3009,1,4,111,P 87,Letter,N,TRUE,CV,q,981,1449639,,,,,,,,,
CVOE updated,3009,1,4,112,H 42,Letter,N,FALSE,CV,q,1177,1451335,,,,,,,,,
CVOE updated,3009,1,4,113,S 49,Letter,N,TRUE,CV,q,1139,1452997,,,,,,,,,
CVOE updated,3009,1,4,114,J 20,Number,Y,FALSE,OE,p,3014,1456522,,,,,,,,,
CVOE updated,3009,1,4,115,O 19,Letter,Y,FALSE,CV,p,2506,1459547,,,,,,,,,
CVOE updated,3009,1,4,116,H 50,Letter,N,FALSE,CV,q,1374,1461432,,,,,,,,,
CVOE updated,3009,1,4,117,I 68,Number,Y,TRUE,OE,p,3793,1465735,,,,,,,,,
CVOE updated,3009,1,4,118,J 72,Number,N,FALSE,OE,p,1898,1468157,,,,,,,,,
CVOE updated,3009,1,4,119,O 21,Number,N,FALSE,OE,q,1714,1470390,,,,,,,,,
CVOE updated,3009,1,4,120,H 22,Number,N,FALSE,OE,p,1815,1472724,,,,,,,,,
CVOE_B,3002,1,1,11,A 24,,,TRUE,OE,p,2648,1993932,,,,,,,,,
CVOE_B,3002,1,1,12,O 83,,,FALSE,OE,q,1035,1995486,,,,,,,,,
CVOE_B,3002,1,1,13,H 55,,,TRUE,OE,q,1340,1997341,,,,,,,,,
CVOE_B,3002,1,1,14,P 10,,,FALSE,OE,p,789,1998641,,,,,,,,,
CVOE_B,3002,1,1,15,D 30,,,FALSE,OE,p,1563,2000715,,,,,,,,,
CVOE_B,3002,1,1,16,U 62,,,TRUE,OE,p,1135,2002370,,,,,,,,,
CVOE_B,3002,1,1,17,P 95,,,TRUE,OE,q,897,2003782,,,,,,,,,
CVOE_B,3002,1,1,18,U 06,,,TRUE,OE,p,877,2005179,,,,,,,,,
CVOE_B,3002,1,1,19,E 75,,,FALSE,OE,q,946,2006648,,,,,,,,,
CVOE_B,3002,1,1,20,I 67,,,FALSE,OE,q,939,2008108,,,,,,,,,
CVOE_B,3002,1,1,21,S 13,,,TRUE,OE,q,713,2009332,,,,,,,,,
CVOE_B,3002,1,1,22,P 78,,,FALSE,OE,p,888,2010740,,,,,,,,,
CVOE_B,3002,1,1,23,I 15,,,FALSE,OE,q,831,2012084,,,,,,,,,
CVOE_B,3002,1,1,24,D 27,,,TRUE,OE,q,858,2013461,,,,,,,,,
CVOE_B,3002,1,1,25,O 94,,,TRUE,OE,p,710,2014679,,,,,,,,,
CVOE_B,3002,1,1,26,A 65,,,FALSE,OE,q,1180,2016383,,,,,,,,,
CVOE_B,3002,1,1,27,I 42,,,TRUE,OE,p,972,2017875,,,,,,,,,
CVOE_B,3002,1,1,28,E 25,,,FALSE,OE,q,761,2019147,,,,,,,,,
CVOE_B,3002,1,1,29,H 49,,,TRUE,OE,q,746,2020416,,,,,,,,,
CVOE_B,3002,1,1,30,S 18,,,FALSE,OE,p,1079,2022016,,,,,,,,,
CVOE_B,3002,1,1,31,H 51,,,TRUE,OE,q,825,2023362,,,,,,,,,
CVOE_B,3002,1,1,32,U 14,,,TRUE,OE,p,1235,2025105,,,,,,,,,
CVOE_B,3002,1,1,33,E 02,,,TRUE,OE,p,1282,2026902,,,,,,,,,
CVOE_B,3002,1,1,34,J 26,,,FALSE,OE,p,723,2028143,,,,,,,,,
CVOE_B,3002,1,1,35,D 24,,,FALSE,OE,p,817,2029471,,,,,,,,,
CVOE_B,3002,1,1,36,O 50,,,TRUE,OE,p,979,2030966,,,,,,,,,
CVOE_B,3002,1,1,37,U 16,,,TRUE,OE,q,762,2032249,,,,,,,,,
CVOE_B,3002,1,1,38,O 15,,,FALSE,OE,q,968,2033739,,,,,,,,,
CVOE_B,3002,1,1,39,D 32,,,FALSE,OE,p,818,2035072,,,,,,,,,
CVOE_B,3002,1,1,40,S 67,,,TRUE,OE,q,793,2036381,,,,,,,,,
CVOE_B,3002,1,1,41,J 74,,,FALSE,OE,p,867,2037771,,,,,,,,,
CVOE_B,3002,1,1,42,D 92,,,FALSE,OE,p,531,2038819,,,,,,,,,
CVOE_B,3002,1,1,43,A 65,,,FALSE,OE,q,713,2040051,,,,,,,,,
CVOE_B,3002,1,1,44,I 87,,,FALSE,OE,q,838,2041409,,,,,,,,,
CVOE_B,3002,1,1,45,H 61,,,TRUE,OE,q,715,2042636,,,,,,,,,
CVOE_B,3002,1,1,46,E 59,,,FALSE,OE,q,715,2043870,,,,,,,,,
CVOE_B,3002,1,1,47,I 33,,,FALSE,OE,q,770,2045158,,,,,,,,,
CVOE_B,3002,1,1,48,O 90,,,TRUE,OE,p,806,2046478,,,,,,,,,
CVOE_B,3002,1,1,49,U 51,,,FALSE,OE,q,835,2047823,,,,,,,,,
CVOE_B,3002,1,1,50,A 10,,,TRUE,OE,p,1034,2049372,,,,,,,,,
CVOE_B,3002,1,1,51,E 50,,,TRUE,OE,p,1175,2051063,,,,,,,,,
CVOE_B,3002,1,1,52,D 92,,,FALSE,OE,p,947,2052519,,,,,,,,,
CVOE_B,3002,1,1,53,E 60,,,TRUE,OE,p,644,2053683,,,,,,,,,
CVOE_B,3002,1,1,54,A 95,,,FALSE,OE,q,829,2055035,,,,,,,,,
CVOE_B,3002,1,1,55,E 64,,,TRUE,OE,p,847,2056403,,,,,,,,,
CVOE_B,3002,1,1,56,P 20,,,FALSE,OE,p,852,2057774,,,,,,,,,
CVOE_B,3002,1,1,57,S 06,,,FALSE,OE,p,840,2059129,,,,,,,,,
CVOE_B,3002,1,1,58,P 64,,,FALSE,OE,p,808,2060447,,,,,,,,,
CVOE_B,3002,1,1,59,U 70,,,TRUE,OE,p,1227,2062183,,,,,,,,,
CVOE_B,3002,1,1,60,S 16,,,FALSE,OE,p,717,2063423,,,,,,,,,
CVOE_B,3002,1,1,61,E 35,,,FALSE,OE,q,759,2064699,,,,,,,,,
CVOE_B,3002,1,1,62,I 93,,,FALSE,OE,q,875,2066098,,,,,,,,,
CVOE_B,3002,1,1,63,D 63,,,TRUE,OE,q,794,2067400,,,,,,,,,
CVOE_B,3002,1,1,64,U 89,,,FALSE,OE,q,1171,2069094,,,,,,,,,
CVOE_B,3002,1,1,65,E 91,,,FALSE,OE,q,1086,2070693,,,,,,,,,
CVOE_B,3002,1,1,66,A 12,,,TRUE,OE,p,1108,2072315,,,,,,,,,
CVOE_B,3002,1,1,67,P 56,,,FALSE,OE,p,1613,2074436,,,,,,,,,
CVOE_B,3002,1,1,68,S 65,,,TRUE,OE,q,775,2075732,,,,,,,,,
CVOE_B,3002,1,1,69,P 07,,,TRUE,OE,q,1252,2077492,,,,,,,,,
CVOE_B,3002,1,1,70,I 77,,,FALSE,OE,q,733,2078740,,,,,,,,,
CVOE_B,3002,1,1,71,J 19,,,TRUE,OE,q,725,2079982,,,,,,,,,
CVOE_B,3002,1,1,72,O 59,,,FALSE,OE,q,632,2081123,,,,,,,,,
CVOE_B,3002,1,1,73,J 15,,,TRUE,OE,q,979,2082620,,,,,,,,,
CVOE_B,3002,1,1,74,I 89,,,FALSE,OE,q,787,2083928,,,,,,,,,
CVOE_B,3002,1,1,75,O 97,,,FALSE,OE,q,892,2085333,,,,,,,,,
CVOE_B,3002,1,1,76,A 92,,,TRUE,OE,p,763,2086604,,,,,,,,,
CVOE_B,3002,1,1,77,J 90,,,FALSE,OE,p,995,2088119,,,,,,,,,
CVOE_B,3002,1,1,78,H 65,,,TRUE,OE,q,896,2089537,,,,,,,,,
CVOE_B,3002,1,1,79,H 17,,,TRUE,OE,q,747,2090805,,,,,,,,,
CVOE_B,3002,1,1,80,S 26,,,FALSE,OE,p,815,2092140,,,,,,,,,
CVOE_B,3002,1,1,81,D 56,,,FALSE,OE,p,1246,2093904,,,,,,,,,
CVOE_B,3002,1,1,82,I 91,,,FALSE,OE,q,792,2095217,,,,,,,,,
CVOE_B,3002,1,1,83,J 11,,,TRUE,OE,q,817,2096542,,,,,,,,,
CVOE_B,3002,1,1,84,O 28,,,TRUE,OE,p,591,2097649,,,,,,,,,
CVOE_B,3002,1,1,85,H 29,,,TRUE,OE,q,791,2098949,,,,,,,,,
CVOE_B,3002,1,1,86,J 25,,,TRUE,OE,q,985,2100444,,,,,,,,,
CVOE_B,3002,1,1,87,A 73,,,FALSE,OE,q,1275,2102234,,,,,,,,,
CVOE_B,3002,1,1,88,J 63,,,TRUE,OE,q,639,2103381,,,,,,,,,
CVOE_B,3002,1,1,89,U 84,,,TRUE,OE,p,649,2104541,,,,,,,,,
CVOE_B,3002,1,1,90,A 58,,,TRUE,OE,p,1200,2106259,,,,,,,,,
CVOE_B,3002,1,1,91,S 43,,,TRUE,OE,q,736,2107512,,,,,,,,,
CVOE_B,3002,1,1,92,H 54,,,FALSE,OE,p,776,2108802,,,,,,,,,
CVOE_B,3002,1,1,93,D 4,,,FALSE,OE,p,915,2110241,,,,,,,,,
CVOE_B,3002,1,1,94,J 75,,,TRUE,OE,q,734,2111493,,,,,,,,,
CVOE_B,3002,1,1,95,D 19,,,TRUE,OE,q,797,2112806,,,,,,,,,
CVOE_B,3002,1,1,96,J 38,,,FALSE,OE,p,744,2114070,,,,,,,,,
CVOE_B,3002,1,1,97,I 56,,,TRUE,OE,p,1055,2115648,,,,,,,,,
CVOE_B,3002,1,1,98,P 87,,,TRUE,OE,q,709,2116869,,,,,,,,,
CVOE_B,3002,1,1,99,O 80,,,TRUE,OE,p,770,2118163,,,,,,,,,
CVOE_B,3002,1,1,100,U 60,,,TRUE,OE,p,635,2119312,,,,,,,,,
CVOE_B,3002,1,1,101,P 48,,,FALSE,OE,p,795,2120622,,,,,,,,,
CVOE_B,3002,1,1,102,H 64,,,FALSE,OE,p,517,2121660,,,,,,,,,
CVOE_B,3002,1,1,103,A 13,,,FALSE,OE,q,608,2122785,,,,,,,,,
CVOE_B,3002,1,1,104,H 68,,,FALSE,OE,p,778,2124072,,,,,,,,,
CVOE_B,3002,1,1,105,E 16,,,TRUE,OE,p,893,2125487,,,,,,,,,
CVOE_B,3002,1,1,106,S 71,,,TRUE,OE,q,638,2126648,,,,,,,,,
CVOE_B,3002,1,2,11,A 71,,,FALSE,CV,p,2907,2176337,,,,,,,,,
CVOE_B,3002,1,2,12,I 66,,,TRUE,CV,p,810,2177657,,,,,,,,,
CVOE_B,3002,1,2,13,S 30,,,FALSE,CV,q,728,2178909,,,,,,,,,
CVOE_B,3002,1,2,14,D 20,,,FALSE,CV,q,1094,2180525,,,,,,,,,
CVOE_B,3002,1,2,15,I 31,,,FALSE,CV,p,495,2181543,,,,,,,,,
CVOE_B,3002,1,2,16,P 16,,,FALSE,CV,q,748,2182812,,,,,,,,,
CVOE_B,3002,1,2,17,A 49,,,FALSE,CV,p,856,2184187,,,,,,,,,
CVOE_B,3002,1,2,18,O 64,,,TRUE,CV,p,651,2185349,,,,,,,,,
CVOE_B,3002,1,2,19,D 02,,,FALSE,CV,q,790,2186655,,,,,,,,,
CVOE_B,3002,1,2,20,P 81,,,TRUE,CV,p,882,2188047,,,,,,,,,
CVOE_B,3002,1,2,21,J 58,,,FALSE,CV,q,737,2189302,,,,,,,,,
CVOE_B,3002,1,2,22,A 22,,,TRUE,CV,p,1420,2191235,,,,,,,,,
CVOE_B,3002,1,2,23,J 72,,,FALSE,CV,q,1034,2192782,,,,,,,,,
CVOE_B,3002,1,2,24,P 91,,,TRUE,CV,q,569,2193867,,,,,,,,,
CVOE_B,3002,1,2,25,E 19,,,FALSE,CV,p,1078,2195460,,,,,,,,,
CVOE_B,3002,1,2,26,I 30,,,TRUE,CV,p,921,2196903,,,,,,,,,
CVOE_B,3002,1,2,27,D 91,,,TRUE,CV,q,719,2198134,,,,,,,,,
CVOE_B,3002,1,2,28,O 48,,,TRUE,CV,p,742,2199391,,,,,,,,,
CVOE_B,3002,1,2,29,A 89,,,FALSE,CV,p,960,2200859,,,,,,,,,
CVOE_B,3002,1,2,30,U 11,,,FALSE,CV,p,695,2202077,,,,,,,,,
CVOE_B,3002,1,2,31,I 76,,,TRUE,CV,p,595,2203194,,,,,,,,,
CVOE_B,3002,1,2,32,U 89,,,FALSE,CV,p,573,2204289,,,,,,,,,
CVOE_B,3002,1,2,33,D 63,,,TRUE,CV,q,1061,2205860,,,,,,,,,
CVOE_B,3002,1,2,34,H 70,,,FALSE,CV,q,1231,2207614,,,,,,,,,
CVOE_B,3002,1,2,35,D 48,,,FALSE,CV,q,969,2209102,,,,,,,,,
CVOE_B,3002,1,2,36,P 56,,,FALSE,CV,q,732,2210348,,,,,,,,,
CVOE_B,3002,1,2,37,O 77,,,FALSE,CV,p,668,2211534,,,,,,,,,
CVOE_B,3002,1,2,38,P 42,,,FALSE,CV,q,586,2212636,,,,,,,,,
CVOE_B,3002,1,2,39,H 22,,,FALSE,CV,q,859,2214009,,,,,,,,,
CVOE_B,3002,1,2,40,E 42,,,TRUE,CV,p,674,2215190,,,,,,,,,
CVOE_B,3002,1,2,41,J 28,,,FALSE,CV,q,699,2216399,,,,,,,,,
CVOE_B,3002,1,2,42,E 95,,,FALSE,CV,p,922,2217839,,,,,,,,,
CVOE_B,3002,1,2,43,S 63,,,TRUE,CV,q,584,2218934,,,,,,,,,
CVOE_B,3002,1,2,44,H 50,,,FALSE,CV,q,575,2220025,,,,,,,,,
CVOE_B,3002,1,2,45,S 33,,,TRUE,CV,q,556,2221090,,,,,,,,,
CVOE_B,3002,1,2,46,P 57,,,TRUE,CV,q,489,2222089,,,,,,,,,
CVOE_B,3002,1,2,47,E 23,,,FALSE,CV,p,548,2223148,,,,,,,,,
CVOE_B,3002,1,2,48,S 61,,,TRUE,CV,q,585,2224252,,,,,,,,,
CVOE_B,3002,1,2,49,U 67,,,FALSE,CV,p,544,2225311,,,,,,,,,
CVOE_B,3002,1,2,50,H 32,,,FALSE,CV,q,599,2226433,,,,,,,,,
CVOE_B,3002,1,2,51,U 50,,,TRUE,CV,p,572,2227523,,,,,,,,,
CVOE_B,3002,1,2,52,O 49,,,FALSE,CV,p,803,2228837,,,,,,,,,
CVOE_B,3002,1,2,53,U 32,,,TRUE,CV,p,772,2230123,,,,,,,,,
CVOE_B,3002,1,2,54,J 78,,,FALSE,CV,q,711,2231345,,,,,,,,,
CVOE_B,3002,1,2,55,S 54,,,FALSE,CV,q,975,2232843,,,,,,,,,
CVOE_B,3002,1,2,56,J 27,,,TRUE,CV,q,823,2234174,,,,,,,,,
CVOE_B,3002,1,2,57,S 06,,,FALSE,CV,q,719,2235404,,,,,,,,,
CVOE_B,3002,1,2,58,D 67,,,TRUE,CV,p,964,2236882,,,,,,,,,
CVOE_B,3002,1,2,59,A 79,,,FALSE,CV,p,1191,2238592,,,,,,,,,
CVOE_B,3002,1,2,60,S 52,,,FALSE,CV,q,729,2239831,,,,,,,,,
CVOE_B,3002,1,2,61,U 16,,,TRUE,CV,p,679,2241031,,,,,,,,,
CVOE_B,3002,1,2,62,O 82,,,TRUE,CV,p,522,2242074,,,,,,,,,
CVOE_B,3002,1,2,63,H 87,,,TRUE,CV,q,566,2243151,,,,,,,,,
CVOE_B,3002,1,2,64,I 32,,,TRUE,CV,p,663,2244331,,,,,,,,,
CVOE_B,3002,1,2,65,U 37,,,FALSE,CV,p,526,2245378,,,,,,,,,
CVOE_B,3002,1,2,66,I 42,,,TRUE,CV,p,406,2246308,,,,,,,,,
CVOE_B,3002,1,2,67,D 65,,,TRUE,CV,q,661,2247480,,,,,,,,,
CVOE_B,3002,1,2,68,U 77,,,FALSE,CV,p,594,2248596,,,,,,,,,
CVOE_B,3002,1,2,69,E 12,,,TRUE,CV,p,847,2249966,,,,,,,,,
CVOE_B,3002,1,2,70,I 60,,,TRUE,CV,p,617,2251103,,,,,,,,,
CVOE_B,3002,1,2,71,J 36,,,FALSE,CV,q,648,2252267,,,,,,,,,
CVOE_B,3002,1,2,72,H 75,,,TRUE,CV,q,716,2253502,,,,,,,,,
CVOE_B,3002,1,2,73,I 50,,,TRUE,CV,p,611,2254630,,,,,,,,,
CVOE_B,3002,1,2,74,E 99,,,FALSE,CV,p,914,2256067,,,,,,,,,
CVOE_B,3002,1,2,75,A 86,,,TRUE,CV,p,713,2257299,,,,,,,,,
CVOE_B,3002,1,2,76,U 48,,,TRUE,CV,p,541,2258361,,,,,,,,,
CVOE_B,3002,1,2,77,E 01,,,FALSE,CV,p,589,2259459,,,,,,,,,
CVOE_B,3002,1,2,78,A 78,,,TRUE,CV,p,594,2260564,,,,,,,,,
CVOE_B,3002,1,2,79,P 60,,,FALSE,CV,q,518,2261604,,,,,,,,,
CVOE_B,3002,1,2,80,E 43,,,FALSE,CV,p,595,2262715,,,,,,,,,
CVOE_B,3002,1,2,81,D 69,,,TRUE,CV,q,724,2263961,,,,,,,,,
CVOE_B,3002,1,2,82,H 11,,,TRUE,CV,q,943,2265413,,,,,,,,,
CVOE_B,3002,1,2,83,P 43,,,TRUE,CV,q,629,2266566,,,,,,,,,
CVOE_B,3002,1,2,84,O 67,,,FALSE,CV,p,595,2267682,,,,,,,,,
CVOE_B,3002,1,2,85,S 91,,,FALSE,CV,q,711,2268915,,,,,,,,,
CVOE_B,3002,1,2,86,J 68,,,TRUE,CV,q,690,2270127,,,,,,,,,
CVOE_B,3002,1,2,87,S 47,,,FALSE,CV,q,519,2271156,,,,,,,,,
CVOE_B,3002,1,2,88,I 81,,,TRUE,CV,p,768,2272438,,,,,,,,,
CVOE_B,3002,1,2,89,J 39,,,FALSE,CV,q,764,2273718,,,,,,,,,
CVOE_B,3002,1,2,90,A 11,,,TRUE,CV,p,713,2274950,,,,,,,,,
CVOE_B,3002,1,2,91,O 76,,,FALSE,CV,p,745,2276216,,,,,,,,,
CVOE_B,3002,1,2,92,A 62,,,FALSE,CV,p,842,2277579,,,,,,,,,
CVOE_B,3002,1,2,93,O 27,,,TRUE,CV,p,516,2278620,,,,,,,,,
CVOE_B,3002,1,2,94,E 66,,,FALSE,CV,p,468,2279606,,,,,,,,,
CVOE_B,3002,1,2,95,J 62,,,TRUE,CV,q,633,2280754,,,,,,,,,
CVOE_B,3002,1,2,96,H 72,,,TRUE,CV,q,586,2281857,,,,,,,,,
CVOE_B,3002,1,2,97,E 49,,,TRUE,CV,p,672,2283043,,,,,,,,,
CVOE_B,3002,1,2,98,D 52,,,TRUE,CV,q,639,2284194,,,,,,,,,
CVOE_B,3002,1,2,99,H 62,,,TRUE,CV,q,799,2285504,,,,,,,,,
CVOE_B,3002,1,2,100,I 11,,,TRUE,CV,p,526,2286547,,,,,,,,,
CVOE_B,3002,1,2,101,A 98,,,FALSE,CV,p,587,2287658,,,,,,,,,
CVOE_B,3002,1,2,102,H 29,,,FALSE,CV,q,604,2288776,,,,,,,,,
CVOE_B,3002,1,2,103,E 83,,,TRUE,CV,p,865,2290153,,,,,,,,,
CVOE_B,3002,1,2,104,D 43,,,FALSE,CV,q,1270,2291942,,,,,,,,,
CVOE_B,3002,1,2,105,P 45,,,TRUE,CV,q,499,2292954,,,,,,,,,
CVOE_B,3002,1,2,106,J 17,,,TRUE,CV,q,636,2294108,,,,,,,,,
CVOE_B,3002,1,3,11,U 38,Number,N,TRUE,OE,p,9048,2413661,,,,,,,,,
CVOE_B,3002,1,3,12,P 73,Number,N,TRUE,OE,q,1900,2416080,,,,,,,,,
CVOE_B,3002,1,3,13,U 95,Letter,Y,FALSE,CV,p,3687,2420284,,,,,,,,,
CVOE_B,3002,1,3,14,J 61,Number,Y,TRUE,OE,q,3025,2423822,,,,,,,,,
CVOE_B,3002,1,3,15,D 51,Number,N,TRUE,OE,q,1248,2425579,,,,,,,,,
CVOE_B,3002,1,3,16,S 28,Number,N,FALSE,OE,p,2084,2428182,,,,,,,,,
CVOE_B,3002,1,3,17,A 56,Letter,Y,TRUE,CV,p,8480,2437178,,,,,,,,,
CVOE_B,3002,1,3,18,H 78,Letter,N,FALSE,CV,q,2777,2440476,,,,,,,,,
CVOE_B,3002,1,3,19,P 92,Letter,N,FALSE,CV,q,1543,2442542,,,,,,,,,
CVOE_B,3002,1,3,20,E 05,Number,Y,FALSE,OE,q,2761,2445827,,,,,,,,,
CVOE_B,3002,1,3,21,P 57,Letter,Y,TRUE,CV,q,4454,2450803,,,,,,,,,
CVOE_B,3002,1,3,22,D 88,Number,Y,FALSE,OE,p,2485,2453801,,,,,,,,,
CVOE_B,3002,1,3,23,O 89,Letter,Y,FALSE,CV,p,4408,2458724,,,,,,,,,
CVOE_B,3002,1,3,24,U 43,Number,Y,FALSE,OE,q,3392,2462625,,,,,,,,,
CVOE_B,3002,1,3,25,H 10,Number,N,FALSE,OE,p,4593,2467727,,,,,,,,,
CVOE_B,3002,1,3,26,S 07,Letter,Y,TRUE,CV,q,6174,2474425,,,,,,,,,
CVOE_B,3002,1,3,27,J 10,Letter,N,FALSE,CV,q,1304,2476238,,,,,,,,,
CVOE_B,3002,1,3,28,H 54,Number,Y,FALSE,OE,p,2943,2479694,,,,,,,,,
CVOE_B,3002,1,3,29,E 99,Number,N,FALSE,OE,q,3475,2483693,,,,,,,,,
CVOE_B,3002,1,3,30,J 36,Letter,Y,FALSE,CV,q,3997,2488199,,,,,,,,,
CVOE_B,3002,1,3,31,I 94,Letter,N,TRUE,CV,p,2987,2491706,,,,,,,,,
CVOE_B,3002,1,3,32,A 82,Letter,N,TRUE,CV,p,2889,2495108,,,,,,,,,
CVOE_B,3002,1,3,33,H 79,Number,Y,TRUE,OE,q,2255,2497874,,,,,,,,,
CVOE_B,3002,1,3,34,J 60,Number,N,FALSE,OE,p,2243,2500629,,,,,,,,,
CVOE_B,3002,1,3,35,S 28,Letter,Y,FALSE,CV,q,3324,2504460,,,,,,,,,
CVOE_B,3002,1,3,36,P 11,Number,Y,TRUE,OE,q,2923,2507893,,,,,,,,,
CVOE_B,3002,1,3,37,D 39,Number,N,TRUE,OE,q,2737,2511140,,,,,,,,,
CVOE_B,3002,1,3,38,E 90,Number,N,TRUE,OE,p,5110,2516764,,,,,,,,,
CVOE_B,3002,1,3,39,I 38,Number,N,TRUE,OE,p,4708,2521995,,,,,,,,,
CVOE_B,3002,1,3,40,S 35,Letter,Y,TRUE,CV,q,3078,2525582,,,,,,,,,
CVOE_B,3002,1,3,41,D 41,Number,Y,TRUE,OE,q,2825,2528930,,,,,,,,,
CVOE_B,3002,1,3,42,E 06,Number,N,TRUE,OE,p,2137,2531575,,,,,,,,,
CVOE_B,3002,1,3,43,A 27,Number,N,FALSE,OE,q,7181,2539269,,,,,,,,,
CVOE_B,3002,1,3,44,U 95,Letter,Y,FALSE,CV,q,3467,2543256,,,,,,,,,
CVOE_B,3002,1,3,45,A 53,Letter,N,FALSE,CV,p,3326,2547098,,,,,,,,,
CVOE_B,3002,1,3,46,E 43,Letter,N,FALSE,CV,p,2002,2549608,,,,,,,,,
CVOE_B,3002,1,3,47,P 05,Number,Y,TRUE,OE,q,2573,2552696,,,,,,,,,
CVOE_B,3002,1,3,48,O 19,Letter,Y,FALSE,CV,p,2051,2555257,,,,,,,,,
CVOE_B,3002,1,3,49,I 96,Number,Y,TRUE,OE,p,4013,2559786,,,,,,,,,
CVOE_B,3002,1,3,50,A 88,Number,N,TRUE,OE,p,1964,2562271,,,,,,,,,
CVOE_B,3002,1,3,51,I 67,Number,N,FALSE,OE,q,1870,2564660,,,,,,,,,
CVOE_B,3002,1,3,52,D 40,Number,N,FALSE,OE,p,1898,2567072,,,,,,,,,
CVOE_B,3002,1,3,53,P 79,Letter,Y,TRUE,CV,q,2501,2570092,,,,,,,,,
CVOE_B,3002,1,3,54,U 24,Number,Y,TRUE,OE,p,4652,2575260,,,,,,,,,
CVOE_B,3002,1,3,55,P 74,Number,N,FALSE,OE,p,3389,2579164,,,,,,,,,
CVOE_B,3002,1,3,56,E 70,Number,N,TRUE,OE,p,2754,2582429,,,,,,,,,
CVOE_B,3002,1,3,57,S 27,Number,N,TRUE,OE,q,1365,2584307,,,,,,,,,
CVOE_B,3002,1,3,58,E 54,Letter,Y,TRUE,CV,p,3303,2588128,,,,,,,,,
CVOE_B,3002,1,3,59,A 53,Letter,N,FALSE,CV,p,1880,2590522,,,,,,,,,
CVOE_B,3002,1,3,60,P 34,Letter,N,FALSE,CV,q,1673,2592715,,,,,,,,,
CVOE_B,3002,1,3,61,D 74,Number,Y,FALSE,OE,p,2777,2596003,,,,,,,,,
CVOE_B,3002,1,3,62,A 03,Letter,Y,FALSE,CV,p,2700,2599226,,,,,,,,,
CVOE_B,3002,1,3,63,E 24,Number,Y,TRUE,OE,p,9157,2608900,,,,,,,,,
CVOE_B,3002,1,3,64,I 58,Letter,Y,TRUE,CV,p,5697,2615107,,,,,,,,,
CVOE_B,3002,1,3,65,D 77,Number,Y,TRUE,OE,q,2258,2617885,,,,,,,,,
CVOE_B,3002,1,3,66,S 75,Number,N,TRUE,OE,q,1577,2619971,,,,,,,,,
CVOE_B,3002,1,3,67,I 20,Letter,Y,TRUE,CV,p,1548,2622042,,,,,,,,,
CVOE_B,3002,1,3,68,J 52,Letter,N,FALSE,CV,q,1930,2624491,,,,,,,,,
CVOE_B,3002,1,3,69,A 38,Number,Y,TRUE,OE,p,2712,2627723,,,,,,,,,
CVOE_B,3002,1,3,70,I 60,Letter,Y,TRUE,CV,p,2816,2631061,,,,,,,,,
CVOE_B,3002,1,3,71,S 51,Number,Y,TRUE,OE,q,4000,2635579,,,,,,,,,
CVOE_B,3002,1,3,72,D 63,Letter,Y,TRUE,CV,q,3317,2639412,,,,,,,,,
CVOE_B,3002,1,3,73,U 27,Letter,N,FALSE,CV,p,5758,2645687,,,,,,,,,
CVOE_B,3002,1,3,74,J 77,Letter,N,TRUE,CV,q,4045,2650241,,,,,,,,,
CVOE_B,3002,1,3,75,O 15,Number,Y,FALSE,OE,q,3846,2654609,,,,,,,,,
CVOE_B,3002,1,3,76,J 20,Letter,Y,FALSE,CV,q,3096,2658226,,,,,,,,,
CVOE_B,3002,1,3,77,U 97,Number,Y,FALSE,OE,q,2837,2661584,,,,,,,,,
CVOE_B,3002,1,3,78,H 03,Number,N,TRUE,OE,q,2687,2664784,,,,,,,,,
CVOE_B,3002,1,3,79,O 04,Letter,Y,TRUE,CV,p,3802,2669099,,,,,,,,,
CVOE_B,3002,1,3,80,E 10,Letter,N,TRUE,CV,p,2523,2672137,,,,,,,,,
CVOE_B,3002,1,3,81,I 52,Letter,N,TRUE,CV,p,4288,2676936,,,,,,,,,
CVOE_B,3002,1,3,82,H 81,Number,Y,TRUE,OE,q,3634,2681082,,,,,,,,,
CVOE_B,3002,1,3,83,I 41,Number,N,FALSE,OE,q,3091,2684690,,,,,,,,,
CVOE_B,3002,1,3,84,U 19,Letter,Y,FALSE,CV,p,3110,2688309,,,,,,,,,
CVOE_B,3002,1,3,85,O 17,Number,Y,FALSE,OE,q,3198,2692030,,,,,,,,,
CVOE_B,3002,1,3,86,A 10,Number,N,TRUE,OE,p,2725,2695274,,,,,,,,,
CVOE_B,3002,1,3,87,P 93,Letter,Y,TRUE,CV,q,4840,2700623,,,,,,,,,
CVOE_B,3002,1,3,88,E 59,Letter,N,FALSE,CV,p,5273,2706406,,,,,,,,,
CVOE_B,3002,1,3,89,O 53,Letter,N,FALSE,CV,p,1704,2708621,,,,,,,,,
CVOE_B,3002,1,3,90,A 96,Letter,N,TRUE,CV,p,1452,2710586,,,,,,,,,
CVOE_B,3002,1,3,91,H 36,Letter,Y,FALSE,CV,q,1138,2712239,,,,,,,,,
CVOE_B,3002,1,3,92,A 63,Letter,N,FALSE,CV,p,1231,2713982,,,,,,,,,
CVOE_B,3002,1,3,93,I 38,Letter,N,TRUE,CV,p,2392,2716893,,,,,,,,,
CVOE_B,3002,1,3,94,O 51,Number,Y,FALSE,OE,q,2734,2720135,,,,,,,,,
CVOE_B,3002,1,3,95,J 26,Number,N,FALSE,OE,p,3386,2724037,,,,,,,,,
CVOE_B,3002,1,3,96,S 34,Letter,Y,FALSE,CV,q,4300,2728852,,,,,,,,,
CVOE_B,3002,1,3,97,U 85,Number,Y,FALSE,OE,q,4192,2733561,,,,,,,,,
CVOE_B,3002,1,3,98,J 77,Number,N,TRUE,OE,q,1364,2735433,,,,,,,,,
CVOE_B,3002,1,3,99,I 73,Letter,Y,FALSE,CV,p,2646,2738598,,,,,,,,,
CVOE_B,3002,1,3,100,H 46,Number,Y,FALSE,OE,p,2880,2741999,,,,,,,,,
CVOE_B,3002,1,3,101,D 04,Number,N,FALSE,OE,p,3120,2745640,,,,,,,,,
CVOE_B,3002,1,3,102,P 72,Letter,Y,FALSE,CV,q,5678,2751831,,,,,,,,,
CVOE_B,3002,1,3,103,D 99,Number,Y,TRUE,OE,q,6324,2758677,,,,,,,,,
CVOE_B,3002,1,3,104,U 25,Letter,Y,FALSE,CV,p,3895,2763082,,,,,,,,,
CVOE_B,3002,1,3,105,O 32,Letter,N,TRUE,CV,p,992,2764596,,,,,,,,,
CVOE_B,3002,1,3,106,E 80,Letter,N,TRUE,CV,p,1338,2766442,,,,,,,,,
CVOE_B,3002,1,3,107,O 84,Number,Y,TRUE,OE,p,3457,2770412,,,,,,,,,
CVOE_B,3002,1,3,108,A 78,Number,N,TRUE,OE,p,2157,2773078,,,,,,,,,
CVOE_B,3002,1,3,109,S 05,Number,N,TRUE,OE,q,1808,2775396,,,,,,,,,
CVOE_B,3002,1,3,110,U 35,Letter,Y,FALSE,CV,p,1719,2777624,,,,,,,,,
CVOE_B,3002,1,3,111,H 14,Letter,N,FALSE,CV,q,1672,2779811,,,,,,,,,
CVOE_B,3002,1,3,112,U 15,Number,Y,FALSE,OE,q,2983,2783305,,,,,,,,,
CVOE_B,3002,1,3,113,E 36,Letter,Y,TRUE,CV,p,4843,2788665,,,,,,,,,
CVOE_B,3002,1,3,114,P 70,Letter,N,FALSE,CV,q,1585,2790758,,,,,,,,,
CVOE_B,3002,1,3,115,O 44,Number,Y,TRUE,OE,p,3932,2795205,,,,,,,,,
CVOE_B,3002,1,3,116,S 41,Letter,Y,TRUE,CV,q,2970,2798693,,,,,,,,,
CVOE_B,3002,1,3,117,D 83,Letter,N,TRUE,CV,q,1934,2801141,,,,,,,,,
CVOE_B,3002,1,3,118,J 39,Letter,N,TRUE,CV,q,1223,2802880,,,,,,,,,
CVOE_B,3002,1,3,119,S 22,Number,Y,FALSE,OE,p,3407,2806797,,,,,,,,,
CVOE_B,3002,1,3,120,D 89,Letter,Y,TRUE,CV,q,3314,2810621,,,,,,,,,
CVOE_B,3002,1,3,121,P 87,Letter,N,TRUE,CV,q,4133,2815274,,,,,,,,,
CVOE_B,3002,1,3,122,H 42,Letter,N,FALSE,CV,q,2865,2818656,,,,,,,,,
CVOE_B,3002,1,3,123,S 49,Letter,N,TRUE,CV,q,1739,2820914,,,,,,,,,
CVOE_B,3002,1,3,124,J 20,Number,Y,FALSE,OE,p,2796,2824221,,,,,,,,,
CVOE_B,3002,1,3,125,O 19,Letter,Y,FALSE,CV,p,3324,2828066,,,,,,,,,
CVOE_B,3002,1,3,126,H 50,Letter,N,FALSE,CV,q,2966,2831541,,,,,,,,,
CVOE_B,3002,1,3,127,I 68,Number,Y,TRUE,OE,p,3229,2835288,,,,,,,,,
CVOE_B,3002,1,3,128,J 72,Number,N,FALSE,OE,p,1795,2837604,,,,,,,,,
CVOE_B,3002,1,3,129,O 21,Number,N,FALSE,OE,q,2293,2840419,,,,,,,,,
CVOE_B,3002,1,3,130,H 22,Number,N,FALSE,OE,p,2173,2843116,,,,,,,,,
CVOE_B,3002,1,4,1,A 44,Letter,N,TRUE,CV,p,4179,3033102,,,,,,,,,
CVOE_B,3002,1,4,2,D 94,Letter,N,FALSE,CV,q,4505,3038128,,,,,,,,,
CVOE_B,3002,1,4,3,E 75,Number,Y,FALSE,OE,q,2900,3041540,,,,,,,,,
CVOE_B,3002,1,4,4,H 81,Number,N,TRUE,OE,q,2678,3044735,,,,,,,,,
CVOE_B,3002,1,4,5,I 64,Letter,Y,TRUE,CV,p,2103,3047360,,,,,,,,,
CVOE_B,3002,1,4,6,J 54,Letter,N,FALSE,CV,q,2583,3050457,,,,,,,,,
CVOE_B,3002,1,4,7,O 23,Number,Y,FALSE,OE,q,2455,3053429,,,,,,,,,
CVOE_B,3002,1,4,8,P 05,Number,N,TRUE,OE,q,3392,3057333,,,,,,,,,
CVOE_B,3002,1,4,9,S 34,Letter,Y,FALSE,CV,q,2502,3060343,,,,,,,,,
CVOE_B,3002,1,4,10,U 88,Letter,N,TRUE,CV,p,1612,3062470,,,,,,,,,
CVOE_B,3002,1,4,11,A 70,Number,Y,TRUE,OE,p,3028,3066020,,,,,,,,,
CVOE_B,3002,1,4,12,D 12,Number,N,FALSE,OE,p,2051,3068593,,,,,,,,,
CVOE_B,3002,1,4,13,E 79,Letter,Y,FALSE,CV,p,3980,3073089,,,,,,,,,
CVOE_B,3002,1,4,14,H 72,Letter,N,FALSE,CV,q,5271,3078880,,,,,,,,,
CVOE_B,3002,1,4,15,I 41,Number,Y,FALSE,OE,q,2479,3081872,,,,,,,,,
CVOE_B,3002,1,4,16,J 63,Number,N,TRUE,OE,q,2530,3084923,,,,,,,,,
CVOE_B,3002,1,4,17,O 03,Letter,Y,FALSE,CV,p,2859,3088302,,,,,,,,,
CVOE_B,3002,1,4,18,P 75,Letter,N,TRUE,CV,q,5117,3093927,,,,,,,,,
CVOE_B,3002,1,4,19,S 61,Number,Y,TRUE,OE,q,2970,3097414,,,,,,,,,
CVOE_B,3002,1,4,20,U 28,Number,N,TRUE,OE,p,3545,3101472,,,,,,,,,
CVOE_B,3002,1,4,21,A 21,Letter,Y,FALSE,CV,p,2323,3104317,,,,,,,,,
CVOE_B,3002,1,4,22,D 18,Letter,N,FALSE,CV,q,2824,3107652,,,,,,,,,
CVOE_B,3002,1,4,23,E 35,Number,Y,FALSE,OE,q,2300,3110461,,,,,,,,,
CVOE_B,3002,1,4,24,H 62,Number,N,FALSE,OE,p,5798,3116776,,,,,,,,,
CVOE_B,3002,1,4,25,I 82,Letter,Y,TRUE,CV,p,2594,3119889,,,,,,,,,
CVOE_B,3002,1,4,26,J 78,Letter,N,FALSE,CV,q,2255,3122667,,,,,,,,,
CVOE_B,3002,1,4,27,O 12,Number,Y,TRUE,OE,p,3843,3127022,,,,,,,,,
CVOE_B,3002,1,4,28,P 13,Number,N,TRUE,OE,q,3705,3131251,,,,,,,,,
CVOE_B,3002,1,4,29,S 07,Letter,Y,TRUE,CV,q,6434,3138197,,,,,,,,,
CVOE_B,3002,1,4,30,U 36,Letter,N,TRUE,CV,p,2325,3141038,,,,,,,,,
CVOE_B,3002,1,4,31,A 96,Number,Y,TRUE,OE,p,3225,3144772,,,,,,,,,
CVOE_B,3002,1,4,32,D 04,Number,N,FALSE,OE,p,2680,3147961,,,,,,,,,
CVOE_B,3002,1,4,33,E 60,Letter,Y,TRUE,CV,p,2490,3150971,,,,,,,,,
CVOE_B,3002,1,4,34,H 83,Letter,N,TRUE,CV,q,2242,3153723,,,,,,,,,
CVOE_B,3002,1,4,35,I 64,Number,Y,TRUE,OE,p,2359,3156590,,,,,,,,,
CVOE_B,3002,1,4,36,J 76,Number,N,FALSE,OE,p,1900,3158998,,,,,,,,,
CVOE_B,3002,1,4,37,O 78,Letter,Y,TRUE,CV,p,2392,3161907,,,,,,,,,
CVOE_B,3002,1,4,38,P 09,Letter,N,TRUE,CV,q,5646,3168061,,,,,,,,,
CVOE_B,3002,1,4,39,S 72,Number,Y,FALSE,OE,p,3136,3171718,,,,,,,,,
CVOE_B,3002,1,4,40,U 47,Number,N,FALSE,OE,q,2855,3175087,,,,,,,,,
CVOE_B,3002,1,4,41,A 31,Letter,Y,FALSE,CV,p,2271,3177870,,,,,,,,,
CVOE_B,3002,1,4,42,D 96,Letter,N,FALSE,CV,q,3004,3181387,,,,,,,,,
CVOE_B,3002,1,4,43,E 40,Number,Y,TRUE,OE,p,3059,3184959,,,,,,,,,
CVOE_B,3002,1,4,44,H 79,Number,N,TRUE,OE,q,2736,3188219,,,,,,,,,
CVOE_B,3002,1,4,45,I 15,Letter,Y,FALSE,CV,p,3927,3192660,,,,,,,,,
CVOE_B,3002,1,4,46,J 07,Letter,N,TRUE,CV,q,4852,3198036,,,,,,,,,
CVOE_B,3002,1,4,47,O 61,Number,Y,FALSE,OE,q,3904,3202455,,,,,,,,,
CVOE_B,3002,1,4,48,P 58,Number,N,FALSE,OE,p,1901,3204869,,,,,,,,,
CVOE_B,3002,1,4,49,S 37,Letter,Y,TRUE,CV,q,1802,3207187,,,,,,,,,
CVOE_B,3002,1,4,50,U 61,Letter,N,FALSE,CV,p,1881,3209582,,,,,,,,,
CVOE_B,3002,1,4,51,A 17,Number,Y,FALSE,OE,q,2594,3212696,,,,,,,,,
CVOE_B,3002,1,4,52,D 85,Number,N,TRUE,OE,q,2176,3215395,,,,,,,,,
CVOE_B,3002,1,4,53,E 20,Letter,Y,TRUE,CV,p,2770,3218689,,,,,,,,,
CVOE_B,3002,1,4,54,H 86,Letter,N,FALSE,CV,q,1286,3220488,,,,,,,,,
CVOE_B,3002,1,4,55,I 21,Number,Y,FALSE,OE,q,2774,3223776,,,,,,,,,
CVOE_B,3002,1,4,56,J 29,Number,N,TRUE,OE,q,1693,3225979,,,,,,,,,
CVOE_B,3002,1,4,57,O 13,Letter,Y,FALSE,CV,p,1468,3227971,,,,,,,,,
CVOE_B,3002,1,4,58,P 82,Letter,N,FALSE,CV,q,2024,3230510,,,,,,,,,
CVOE_B,3002,1,4,59,S 72,Number,Y,FALSE,OE,p,2778,3233798,,,,,,,,,
CVOE_B,3002,1,4,60,U 84,Number,N,TRUE,OE,p,2287,3236607,,,,,,,,,
CVOE_B,3002,1,4,61,A 49,Letter,Y,FALSE,CV,p,1696,3238816,,,,,,,,,
CVOE_B,3002,1,4,62,D 91,Letter,N,TRUE,CV,q,1953,3241290,,,,,,,,,
CVOE_B,3002,1,4,63,E 99,Number,Y,FALSE,OE,q,2049,3243853,,,,,,,,,
CVOE_B,3002,1,4,64,H 16,Number,N,FALSE,OE,p,2079,3246450,,,,,,,,,
CVOE_B,3002,1,4,65,I 45,Letter,Y,FALSE,CV,p,2350,3249321,,,,,,,,,
CVOE_B,3002,1,4,66,J 70,Letter,N,FALSE,CV,q,1555,3251393,,,,,,,,,
CVOE_B,3002,1,4,67,O 22,Number,Y,TRUE,OE,p,2876,3254781,,,,,,,,,
CVOE_B,3002,1,4,68,P 41,Number,N,TRUE,OE,q,1621,3256926,,,,,,,,,
CVOE_B,3002,1,4,69,S 93,Letter,Y,TRUE,CV,q,1357,3258795,,,,,,,,,
CVOE_B,3002,1,4,70,U 70,Letter,N,TRUE,CV,p,1461,3260766,,,,,,,,,
CVOE_B,3002,1,4,71,A 42,Number,Y,TRUE,OE,p,1419,3262707,,,,,,,,,
CVOE_B,3002,1,4,72,D 85,Number,N,TRUE,OE,q,1413,3264635,,,,,,,,,
CVOE_B,3002,1,4,73,E 68,Letter,Y,TRUE,CV,p,1447,3266602,,,,,,,,,
CVOE_B,3002,1,4,74,H 17,Letter,N,TRUE,CV,q,1582,3268704,,,,,,,,,
CVOE_B,3002,1,4,75,I 70,Number,Y,TRUE,OE,p,3162,3272384,,,,,,,,,
CVOE_B,3002,1,4,76,J 88,Number,N,FALSE,OE,p,1667,3274573,,,,,,,,,
CVOE_B,3002,1,4,77,O 32,Letter,Y,TRUE,CV,p,4112,3279201,,,,,,,,,
CVOE_B,3002,1,4,78,P 95,Letter,N,TRUE,CV,q,3378,3283101,,,,,,,,,
CVOE_B,3002,1,4,79,S 98,Number,Y,FALSE,OE,p,1975,3285598,,,,,,,,,
CVOE_B,3002,1,4,80,U 37,Number,N,FALSE,OE,q,2264,3288371,,,,,,,,,
CVOE_B,3002,1,4,81,A 56,Letter,Y,TRUE,CV,p,1378,3290268,,,,,,,,,
CVOE_B,3002,1,4,82,D 57,Letter,N,TRUE,CV,q,2007,3292798,,,,,,,,,
CVOE_B,3002,1,4,83,E 93,Number,Y,FALSE,OE,q,2839,3296146,,,,,,,,,
CVOE_B,3002,1,4,84,H 27,Number,N,TRUE,OE,q,2398,3299056,,,,,,,,,
CVOE_B,3002,1,4,85,I 35,Letter,Y,FALSE,CV,p,2283,3301857,,,,,,,,,
CVOE_B,3002,1,4,86,J 03,Letter,N,TRUE,CV,q,1690,3304065,,,,,,,,,
CVOE_B,3002,1,4,87,O 28,Number,Y,TRUE,OE,p,2515,3307090,,,,,,,,,
CVOE_B,3002,1,4,88,P 59,Number,N,TRUE,OE,q,1799,3309407,,,,,,,,,
CVOE_B,3002,1,4,89,S 77,Letter,Y,TRUE,CV,q,2046,3311971,,,,,,,,,
CVOE_B,3002,1,4,90,U 05,Letter,N,FALSE,CV,p,2261,3314753,,,,,,,,,
CVOE_B,3002,1,4,91,A 56,Number,Y,TRUE,OE,p,3280,3318556,,,,,,,,,
CVOE_B,3002,1,4,92,D 01,Number,N,TRUE,OE,q,5908,3324984,,,,,,,,,
CVOE_B,3002,1,4,93,E 02,Letter,Y,TRUE,CV,p,2921,3328414,,,,,,,,,
CVOE_B,3002,1,4,94,H 68,Letter,N,FALSE,CV,q,2018,3330945,,,,,,,,,
CVOE_B,3002,1,4,95,I 05,Number,Y,FALSE,OE,p,1350,3332810,,,,,,,,,
CVOE_B,3002,1,4,96,J 55,Number,N,TRUE,OE,q,4963,3338290,,,,,,,,,
CVOE_B,3002,1,4,97,O 73,Letter,Y,FALSE,CV,p,1950,3340761,,,,,,,,,
CVOE_B,3002,1,4,98,P 41,Letter,N,TRUE,CV,q,1789,3343066,,,,,,,,,
CVOE_B,3002,1,4,99,S 92,Number,Y,FALSE,OE,p,2028,3345605,,,,,,,,,
CVOE_B,3002,1,4,100,U 34,Number,N,TRUE,OE,p,2227,3348355,,,,,,,,,
CVOE_B,3002,1,4,101,A 09,Letter,Y,FALSE,CV,p,2207,3351085,,,,,,,,,
CVOE_B,3002,1,4,102,D 92,Letter,N,FALSE,CV,q,2937,3354532,,,,,,,,,
CVOE_B,3002,1,4,103,E 48,Number,Y,TRUE,OE,p,2078,3357123,,,,,,,,,
CVOE_B,3002,1,4,104,H 76,Number,N,FALSE,OE,p,2515,3360160,,,,,,,,,
CVOE_B,3002,1,4,105,I 44,Letter,Y,TRUE,CV,p,2146,3362825,,,,,,,,,
CVOE_B,3002,1,4,106,J 67,Letter,N,TRUE,CV,q,1504,3364850,,,,,,,,,
CVOE_B,3002,1,4,107,O 48,Number,Y,TRUE,OE,p,2599,3367961,,,,,,,,,
CVOE_B,3002,1,4,108,P 22,Number,N,FALSE,OE,p,1871,3370350,,,,,,,,,
CVOE_B,3002,1,4,109,S 86,Letter,Y,FALSE,CV,q,2247,3373110,,,,,,,,,
CVOE_B,3002,1,4,110,U 35,Letter,N,FALSE,CV,p,1571,3375201,,,,,,,,,
CVOE_B,3002,1,4,111,A 91,Number,Y,FALSE,OE,q,1749,3377462,,,,,,,,,
CVOE_B,3002,1,4,112,D 78,Number,N,FALSE,OE,p,3516,3381496,,,,,,,,,
CVOE_B,3002,1,4,113,E 91,Letter,Y,FALSE,CV,p,1432,3383445,,,,,,,,,
CVOE_B,3002,1,4,114,H 54,Letter,N,FALSE,CV,q,1706,3385670,,,,,,,,,
CVOE_B,3002,1,4,115,I 65,Number,Y,FALSE,OE,q,2598,3388778,,,,,,,,,
CVOE_B,3002,1,4,116,J 52,Number,N,FALSE,OE,p,2362,3391659,,,,,,,,,
CVOE_B,3002,1,4,117,O 19,Letter,Y,FALSE,CV,p,3002,3395183,,,,,,,,,
CVOE_B,3002,1,4,118,P 48,Letter,N,FALSE,CV,q,1561,3397259,,,,,,,,,
CVOE_B,3002,1,4,119,S 45,Number,Y,TRUE,OE,q,2649,3400430,,,,,,,,,
CVOE_B,3002,1,4,120,U 26,Number,N,TRUE,OE,p,6240,3407188,,,,,,,,,
CVOE_B,3006,1,1,11,A 24,,,TRUE,OE,p,1234,99751,,,,,,,,,
CVOE_B,3006,1,1,12,O 83,,,FALSE,OE,q,690,100957,,,,,,,,,
CVOE_B,3006,1,1,13,H 55,,,TRUE,OE,q,622,102090,,,,,,,,,
CVOE_B,3006,1,1,14,P 10,,,FALSE,OE,p,698,103299,,,,,,,,,
CVOE_B,3006,1,1,15,D 30,,,FALSE,OE,p,605,104423,,,,,,,,,
CVOE_B,3006,1,1,16,U 62,,,TRUE,OE,p,736,105670,,,,,,,,,
CVOE_B,3006,1,1,17,P 95,,,TRUE,OE,q,505,106690,,,,,,,,,
CVOE_B,3006,1,1,18,U 06,,,TRUE,OE,p,629,107830,,,,,,,,,
CVOE_B,3006,1,1,19,E 75,,,FALSE,OE,q,568,108919,,,,,,,,,
CVOE_B,3006,1,1,20,I 67,,,FALSE,OE,q,616,110051,,,,,,,,,
CVOE_B,3006,1,1,21,S 13,,,TRUE,OE,q,528,111096,,,,,,,,,
CVOE_B,3006,1,1,22,P 78,,,FALSE,OE,p,619,112237,,,,,,,,,
CVOE_B,3006,1,1,23,I 15,,,FALSE,OE,q,481,113233,,,,,,,,,
CVOE_B,3006,1,1,24,D 27,,,TRUE,OE,q,647,114399,,,,,,,,,
CVOE_B,3006,1,1,25,O 94,,,TRUE,OE,p,521,115439,,,,,,,,,
CVOE_B,3006,1,1,26,A 65,,,FALSE,OE,q,550,116502,,,,,,,,,
CVOE_B,3006,1,1,27,I 42,,,TRUE,OE,q,773,117792,,,,,,,,,
CVOE_B,3006,1,1,28,E 25,,,FALSE,OE,q,4757,123059,,,,,,,,,
CVOE_B,3006,1,1,29,H 49,,,TRUE,OE,q,944,124513,,,,,,,,,
CVOE_B,3006,1,1,30,S 18,,,FALSE,OE,p,555,125591,,,,,,,,,
CVOE_B,3006,1,1,31,H 51,,,TRUE,OE,q,749,126852,,,,,,,,,
CVOE_B,3006,1,1,32,U 14,,,TRUE,OE,p,838,128207,,,,,,,,,
CVOE_B,3006,1,1,33,E 02,,,TRUE,OE,p,1201,129920,,,,,,,,,
CVOE_B,3006,1,1,34,J 26,,,FALSE,OE,p,610,131046,,,,,,,,,
CVOE_B,3006,1,1,35,D 24,,,FALSE,OE,p,750,132320,,,,,,,,,
CVOE_B,3006,1,1,36,O 50,,,TRUE,OE,p,649,133485,,,,,,,,,
CVOE_B,3006,1,1,37,U 16,,,TRUE,OE,p,586,134589,,,,,,,,,
CVOE_B,3006,1,1,38,O 15,,,FALSE,OE,q,578,135681,,,,,,,,,
CVOE_B,3006,1,1,39,D 32,,,FALSE,OE,p,570,136773,,,,,,,,,
CVOE_B,3006,1,1,40,S 67,,,TRUE,OE,q,623,137910,,,,,,,,,
CVOE_B,3006,1,1,41,J 74,,,FALSE,OE,p,582,139002,,,,,,,,,
CVOE_B,3006,1,1,42,D 92,,,FALSE,OE,p,940,140460,,,,,,,,,
CVOE_B,3006,1,1,43,A 65,,,FALSE,OE,q,515,141485,,,,,,,,,
CVOE_B,3006,1,1,44,I 87,,,FALSE,OE,q,501,142505,,,,,,,,,
CVOE_B,3006,1,1,45,H 61,,,TRUE,OE,q,647,143667,,,,,,,,,
CVOE_B,3006,1,1,46,E 59,,,FALSE,OE,q,558,144745,,,,,,,,,
CVOE_B,3006,1,1,47,I 33,,,FALSE,OE,q,693,145947,,,,,,,,,
CVOE_B,3006,1,1,48,O 90,,,TRUE,OE,p,459,146930,,,,,,,,,
CVOE_B,3006,1,1,49,U 51,,,FALSE,OE,q,569,148023,,,,,,,,,
CVOE_B,3006,1,1,50,A 10,,,TRUE,OE,p,543,149080,,,,,,,,,
CVOE_B,3006,1,1,51,E 50,,,TRUE,OE,p,477,150081,,,,,,,,,
CVOE_B,3006,1,1,52,D 92,,,FALSE,OE,p,577,151181,,,,,,,,,
CVOE_B,3006,1,1,53,E 60,,,TRUE,OE,p,420,152124,,,,,,,,,
CVOE_B,3006,1,1,54,A 95,,,FALSE,OE,q,539,153177,,,,,,,,,
CVOE_B,3006,1,1,55,E 64,,,TRUE,OE,p,782,154470,,,,,,,,,
CVOE_B,3006,1,1,56,P 20,,,FALSE,OE,p,593,155581,,,,,,,,,
CVOE_B,3006,1,1,57,S 06,,,FALSE,OE,p,454,156559,,,,,,,,,
CVOE_B,3006,1,1,58,P 64,,,FALSE,OE,p,431,157502,,,,,,,,,
CVOE_B,3006,1,1,59,U 70,,,TRUE,OE,p,550,158571,,,,,,,,,
CVOE_B,3006,1,1,60,S 16,,,FALSE,OE,p,485,159573,,,,,,,,,
CVOE_B,3006,1,1,61,E 35,,,FALSE,OE,q,426,160514,,,,,,,,,
CVOE_B,3006,1,1,62,I 93,,,FALSE,OE,q,424,161446,,,,,,,,,
CVOE_B,3006,1,1,63,D 63,,,TRUE,OE,q,476,162431,,,,,,,,,
CVOE_B,3006,1,1,64,U 89,,,FALSE,OE,q,484,163439,,,,,,,,,
CVOE_B,3006,1,1,65,E 91,,,FALSE,OE,q,634,164589,,,,,,,,,
CVOE_B,3006,1,1,66,A 12,,,TRUE,OE,p,446,165551,,,,,,,,,
CVOE_B,3006,1,1,67,P 56,,,FALSE,OE,p,412,166484,,,,,,,,,
CVOE_B,3006,1,1,68,S 65,,,TRUE,OE,q,454,167459,,,,,,,,,
CVOE_B,3006,1,1,69,P 07,,,TRUE,OE,q,497,168469,,,,,,,,,
CVOE_B,3006,1,1,70,I 77,,,FALSE,OE,q,495,169484,,,,,,,,,
CVOE_B,3006,1,1,71,J 19,,,TRUE,OE,q,375,170380,,,,,,,,,
CVOE_B,3006,1,1,72,O 59,,,FALSE,OE,q,447,171336,,,,,,,,,
CVOE_B,3006,1,1,73,J 15,,,TRUE,OE,q,466,172322,,,,,,,,,
CVOE_B,3006,1,1,74,I 89,,,FALSE,OE,q,432,173271,,,,,,,,,
CVOE_B,3006,1,1,75,O 97,,,FALSE,OE,q,710,174499,,,,,,,,,
CVOE_B,3006,1,1,76,A 92,,,TRUE,OE,p,519,175541,,,,,,,,,
CVOE_B,3006,1,1,77,J 90,,,FALSE,OE,p,442,176498,,,,,,,,,
CVOE_B,3006,1,1,78,H 65,,,TRUE,OE,q,510,177516,,,,,,,,,
CVOE_B,3006,1,1,79,H 17,,,TRUE,OE,q,448,178487,,,,,,,,,
CVOE_B,3006,1,1,80,S 26,,,FALSE,OE,p,486,179492,,,,,,,,,
CVOE_B,3006,1,1,81,D 56,,,FALSE,OE,p,466,180472,,,,,,,,,
CVOE_B,3006,1,1,82,I 91,,,FALSE,OE,q,478,181468,,,,,,,,,
CVOE_B,3006,1,1,83,J 11,,,TRUE,OE,q,381,182371,,,,,,,,,
CVOE_B,3006,1,1,84,O 28,,,TRUE,OE,p,477,183367,,,,,,,,,
CVOE_B,3006,1,1,85,H 29,,,TRUE,OE,q,1166,185056,,,,,,,,,
CVOE_B,3006,1,1,86,J 25,,,TRUE,OE,q,519,186092,,,,,,,,,
CVOE_B,3006,1,1,87,A 73,,,FALSE,OE,q,506,187113,,,,,,,,,
CVOE_B,3006,1,1,88,J 63,,,TRUE,OE,q,370,187993,,,,,,,,,
CVOE_B,3006,1,1,89,U 84,,,TRUE,OE,p,501,189008,,,,,,,,,
CVOE_B,3006,1,1,90,A 58,,,TRUE,OE,p,445,189968,,,,,,,,,
CVOE_B,3006,1,1,91,S 43,,,TRUE,OE,q,474,190964,,,,,,,,,
CVOE_B,3006,1,1,92,H 54,,,FALSE,OE,p,491,191965,,,,,,,,,
CVOE_B,3006,1,1,93,D 4,,,FALSE,OE,p,649,193123,,,,,,,,,
CVOE_B,3006,1,1,94,J 75,,,TRUE,OE,q,519,194159,,,,,,,,,
CVOE_B,3006,1,1,95,D 19,,,TRUE,OE,q,458,195132,,,,,,,,,
CVOE_B,3006,1,1,96,J 38,,,FALSE,OE,p,545,196186,,,,,,,,,
CVOE_B,3006,1,1,97,I 56,,,TRUE,OE,p,447,197154,,,,,,,,,
CVOE_B,3006,1,1,98,P 87,,,TRUE,OE,q,438,198112,,,,,,,,,
CVOE_B,3006,1,1,99,O 80,,,TRUE,OE,p,883,199507,,,,,,,,,
CVOE_B,3006,1,1,100,U 60,,,TRUE,OE,p,420,200444,,,,,,,,,
CVOE_B,3006,1,1,101,P 48,,,FALSE,OE,p,493,201451,,,,,,,,,
CVOE_B,3006,1,1,102,H 64,,,FALSE,OE,p,438,202412,,,,,,,,,
CVOE_B,3006,1,1,103,A 13,,,FALSE,OE,q,473,203397,,,,,,,,,
CVOE_B,3006,1,1,104,H 68,,,FALSE,OE,q,483,204391,,,,,,,,,
CVOE_B,3006,1,1,105,E 16,,,TRUE,OE,p,823,205731,,,,,,,,,
CVOE_B,3006,1,1,106,S 71,,,TRUE,OE,q,538,206779,,,,,,,,,
CVOE_B,3006,1,2,11,A 71,,,FALSE,CV,q,3492,264520,,,,,,,,,
CVOE_B,3006,1,2,12,I 66,,,TRUE,CV,q,1192,266220,,,,,,,,,
CVOE_B,3006,1,2,13,S 30,,,FALSE,CV,q,3505,270234,,,,,,,,,
CVOE_B,3006,1,2,14,D 20,,,FALSE,CV,q,2211,272957,,,,,,,,,
CVOE_B,3006,1,2,15,I 31,,,FALSE,CV,p,471,273950,,,,,,,,,
CVOE_B,3006,1,2,16,P 16,,,FALSE,CV,q,923,275385,,,,,,,,,
CVOE_B,3006,1,2,17,A 49,,,FALSE,CV,p,885,276781,,,,,,,,,
CVOE_B,3006,1,2,18,O 64,,,TRUE,CV,p,512,277808,,,,,,,,,
CVOE_B,3006,1,2,19,D 02,,,FALSE,CV,q,544,278873,,,,,,,,,
CVOE_B,3006,1,2,20,P 81,,,TRUE,CV,q,884,280280,,,,,,,,,
CVOE_B,3006,1,2,21,J 58,,,FALSE,CV,q,466,281262,,,,,,,,,
CVOE_B,3006,1,2,22,A 22,,,TRUE,CV,p,479,282259,,,,,,,,,
CVOE_B,3006,1,2,23,J 72,,,FALSE,CV,q,426,283206,,,,,,,,,
CVOE_B,3006,1,2,24,P 91,,,TRUE,CV,q,1282,285012,,,,,,,,,
CVOE_B,3006,1,2,25,E 19,,,FALSE,CV,p,771,286301,,,,,,,,,
CVOE_B,3006,1,2,26,I 30,,,TRUE,CV,p,617,287430,,,,,,,,,
CVOE_B,3006,1,2,27,D 91,,,TRUE,CV,q,551,288498,,,,,,,,,
CVOE_B,3006,1,2,28,O 48,,,TRUE,CV,p,778,289791,,,,,,,,,
CVOE_B,3006,1,2,29,A 89,,,FALSE,CV,p,460,290773,,,,,,,,,
CVOE_B,3006,1,2,30,U 11,,,FALSE,CV,p,637,291934,,,,,,,,,
CVOE_B,3006,1,2,31,I 76,,,TRUE,CV,p,597,293044,,,,,,,,,
CVOE_B,3006,1,2,32,U 89,,,FALSE,CV,p,579,294143,,,,,,,,,
CVOE_B,3006,1,2,33,D 63,,,TRUE,CV,q,520,295184,,,,,,,,,
CVOE_B,3006,1,2,34,H 70,,,FALSE,CV,q,477,296174,,,,,,,,,
CVOE_B,3006,1,2,35,D 48,,,FALSE,CV,q,419,297116,,,,,,,,,
CVOE_B,3006,1,2,36,P 56,,,FALSE,CV,q,507,298138,,,,,,,,,
CVOE_B,3006,1,2,37,O 77,,,FALSE,CV,p,483,299130,,,,,,,,,
CVOE_B,3006,1,2,38,P 42,,,FALSE,CV,q,818,300465,,,,,,,,,
CVOE_B,3006,1,2,39,H 22,,,FALSE,CV,q,443,301424,,,,,,,,,
CVOE_B,3006,1,2,40,E 42,,,TRUE,CV,p,489,302437,,,,,,,,,
CVOE_B,3006,1,2,41,J 28,,,FALSE,CV,q,721,303669,,,,,,,,,
CVOE_B,3006,1,2,42,E 95,,,FALSE,CV,p,506,304687,,,,,,,,,
CVOE_B,3006,1,2,43,S 63,,,TRUE,CV,q,947,306145,,,,,,,,,
CVOE_B,3006,1,2,44,H 50,,,FALSE,CV,q,529,307194,,,,,,,,,
CVOE_B,3006,1,2,45,S 33,,,TRUE,CV,q,537,308252,,,,,,,,,
CVOE_B,3006,1,2,46,P 57,,,TRUE,CV,q,548,309313,,,,,,,,,
CVOE_B,3006,1,2,47,E 23,,,FALSE,CV,p,535,310366,,,,,,,,,
CVOE_B,3006,1,2,48,S 61,,,TRUE,CV,q,791,311673,,,,,,,,,
CVOE_B,3006,1,2,49,U 67,,,FALSE,CV,q,422,312604,,,,,,,,,
CVOE_B,3006,1,2,50,H 32,,,FALSE,CV,q,804,313919,,,,,,,,,
CVOE_B,3006,1,2,51,U 50,,,TRUE,CV,p,571,315003,,,,,,,,,
CVOE_B,3006,1,2,52,O 49,,,FALSE,CV,p,451,315966,,,,,,,,,
CVOE_B,3006,1,2,53,U 32,,,TRUE,CV,p,495,316977,,,,,,,,,
CVOE_B,3006,1,2,54,J 78,,,FALSE,CV,q,540,318039,,,,,,,,,
CVOE_B,3006,1,2,55,S 54,,,FALSE,CV,q,487,319036,,,,,,,,,
CVOE_B,3006,1,2,56,J 27,,,TRUE,CV,q,515,320064,,,,,,,,,
CVOE_B,3006,1,2,57,S 06,,,FALSE,CV,q,644,321226,,,,,,,,,
CVOE_B,3006,1,2,58,D 67,,,TRUE,CV,q,736,322485,,,,,,,,,
CVOE_B,3006,1,2,59,A 79,,,FALSE,CV,p,580,323579,,,,,,,,,
CVOE_B,3006,1,2,60,S 52,,,FALSE,CV,q,707,324806,,,,,,,,,
CVOE_B,3006,1,2,61,U 16,,,TRUE,CV,p,525,325841,,,,,,,,,
CVOE_B,3006,1,2,62,O 82,,,TRUE,CV,p,530,326879,,,,,,,,,
CVOE_B,3006,1,2,63,H 87,,,TRUE,CV,q,564,327963,,,,,,,,,
CVOE_B,3006,1,2,64,I 32,,,TRUE,CV,p,494,328977,,,,,,,,,
CVOE_B,3006,1,2,65,U 37,,,FALSE,CV,p,699,330198,,,,,,,,,
CVOE_B,3006,1,2,66,I 42,,,TRUE,CV,p,557,331273,,,,,,,,,
CVOE_B,3006,1,2,67,D 65,,,TRUE,CV,q,451,332234,,,,,,,,,
CVOE_B,3006,1,2,68,U 77,,,FALSE,CV,p,517,333267,,,,,,,,,
CVOE_B,3006,1,2,69,E 12,,,TRUE,CV,p,945,334728,,,,,,,,,
CVOE_B,3006,1,2,70,I 60,,,TRUE,CV,p,481,335731,,,,,,,,,
CVOE_B,3006,1,2,71,J 36,,,FALSE,CV,q,492,336742,,,,,,,,,
CVOE_B,3006,1,2,72,H 75,,,TRUE,CV,q,617,337867,,,,,,,,,
CVOE_B,3006,1,2,73,I 50,,,TRUE,CV,p,532,338915,,,,,,,,,
CVOE_B,3006,1,2,74,E 99,,,FALSE,CV,p,637,340070,,,,,,,,,
CVOE_B,3006,1,2,75,A 86,,,TRUE,CV,p,500,341084,,,,,,,,,
CVOE_B,3006,1,2,76,U 48,,,TRUE,CV,p,427,342027,,,,,,,,,
CVOE_B,3006,1,2,77,E 01,,,FALSE,CV,p,413,342963,,,,,,,,,
CVOE_B,3006,1,2,78,A 78,,,TRUE,CV,p,468,343952,,,,,,,,,
CVOE_B,3006,1,2,79,P 60,,,FALSE,CV,q,567,345034,,,,,,,,,
CVOE_B,3006,1,2,80,E 43,,,FALSE,CV,p,528,346078,,,,,,,,,
CVOE_B,3006,1,2,81,D 69,,,TRUE,CV,q,576,347177,,,,,,,,,
CVOE_B,3006,1,2,82,H 11,,,TRUE,CV,q,723,348424,,,,,,,,,
CVOE_B,3006,1,2,83,P 43,,,TRUE,CV,q,433,349367,,,,,,,,,
CVOE_B,3006,1,2,84,O 67,,,FALSE,CV,p,523,350407,,,,,,,,,
CVOE_B,3006,1,2,85,S 91,,,FALSE,CV,q,1055,351972,,,,,,,,,
CVOE_B,3006,1,2,86,J 68,,,TRUE,CV,q,929,353413,,,,,,,,,
CVOE_B,3006,1,2,87,S 47,,,FALSE,CV,q,492,354426,,,,,,,,,
CVOE_B,3006,1,2,88,I 81,,,TRUE,CV,p,612,355546,,,,,,,,,
CVOE_B,3006,1,2,89,J 39,,,FALSE,CV,q,771,356839,,,,,,,,,
CVOE_B,3006,1,2,90,A 11,,,TRUE,CV,p,800,358151,,,,,,,,,
CVOE_B,3006,1,2,91,O 76,,,FALSE,CV,p,508,359176,,,,,,,,,
CVOE_B,3006,1,2,92,A 62,,,FALSE,CV,p,462,360147,,,,,,,,,
CVOE_B,3006,1,2,93,O 27,,,TRUE,CV,p,470,361138,,,,,,,,,
CVOE_B,3006,1,2,94,E 66,,,FALSE,CV,p,522,362174,,,,,,,,,
CVOE_B,3006,1,2,95,J 62,,,TRUE,CV,q,579,363264,,,,,,,,,
CVOE_B,3006,1,2,96,H 72,,,TRUE,CV,q,1216,365001,,,,,,,,,
CVOE_B,3006,1,2,97,E 49,,,TRUE,CV,p,572,366090,,,,,,,,,
CVOE_B,3006,1,2,98,D 52,,,TRUE,CV,q,676,367278,,,,,,,,,
CVOE_B,3006,1,2,99,H 62,,,TRUE,CV,q,435,368237,,,,,,,,,
CVOE_B,3006,1,2,100,I 11,,,TRUE,CV,p,557,369309,,,,,,,,,
CVOE_B,3006,1,2,101,A 98,,,FALSE,CV,p,383,370202,,,,,,,,,
CVOE_B,3006,1,2,102,H 29,,,FALSE,CV,q,536,371255,,,,,,,,,
CVOE_B,3006,1,2,103,E 83,,,TRUE,CV,p,573,372342,,,,,,,,,
CVOE_B,3006,1,2,104,D 43,,,FALSE,CV,q,533,373385,,,,,,,,,
CVOE_B,3006,1,2,105,P 45,,,TRUE,CV,q,445,374347,,,,,,,,,
CVOE_B,3006,1,2,106,J 17,,,TRUE,CV,q,445,375314,,,,,,,,,
CVOE_B,3006,1,3,11,U 38,Number,N,TRUE,OE,p,4896,505290,,,,,,,,,
CVOE_B,3006,1,3,12,P 73,Number,N,TRUE,OE,q,1052,506863,,,,,,,,,
CVOE_B,3006,1,3,13,U 95,Letter,Y,FALSE,CV,p,1151,508529,,,,,,,,,
CVOE_B,3006,1,3,14,J 61,Number,Y,TRUE,OE,q,1461,510506,,,,,,,,,
CVOE_B,3006,1,3,15,D 51,Number,N,TRUE,OE,q,1728,512756,,,,,,,,,
CVOE_B,3006,1,3,16,S 28,Number,N,FALSE,OE,p,1545,514823,,,,,,,,,
CVOE_B,3006,1,3,17,A 56,Letter,Y,TRUE,CV,p,1736,517081,,,,,,,,,
CVOE_B,3006,1,3,18,H 78,Letter,N,FALSE,CV,q,1268,518863,,,,,,,,,
CVOE_B,3006,1,3,19,P 92,Letter,N,FALSE,CV,q,1358,520737,,,,,,,,,
CVOE_B,3006,1,3,20,E 05,Number,Y,FALSE,OE,q,1204,522449,,,,,,,,,
CVOE_B,3006,1,3,21,P 57,Letter,Y,TRUE,CV,q,2029,524991,,,,,,,,,
CVOE_B,3006,1,3,22,D 88,Number,Y,FALSE,OE,p,1433,526945,,,,,,,,,
CVOE_B,3006,1,3,23,O 89,Letter,Y,FALSE,CV,p,2337,529800,,,,,,,,,
CVOE_B,3006,1,3,24,U 43,Number,Y,FALSE,OE,q,1241,531554,,,,,,,,,
CVOE_B,3006,1,3,25,H 10,Number,N,FALSE,OE,p,1425,533488,,,,,,,,,
CVOE_B,3006,1,3,26,S 07,Letter,Y,TRUE,CV,q,2972,536968,,,,,,,,,
CVOE_B,3006,1,3,27,J 10,Letter,N,FALSE,CV,q,1168,538648,,,,,,,,,
CVOE_B,3006,1,3,28,H 54,Number,Y,FALSE,OE,p,1255,540418,,,,,,,,,
CVOE_B,3006,1,3,29,E 99,Number,N,FALSE,OE,q,2265,543195,,,,,,,,,
CVOE_B,3006,1,3,30,J 36,Letter,Y,FALSE,CV,q,1080,544794,,,,,,,,,
CVOE_B,3006,1,3,31,I 94,Letter,N,TRUE,CV,p,950,546264,,,,,,,,,
CVOE_B,3006,1,3,32,A 82,Letter,N,TRUE,CV,p,1559,548340,,,,,,,,,
CVOE_B,3006,1,3,33,H 79,Number,Y,TRUE,OE,q,870,549734,,,,,,,,,
CVOE_B,3006,1,3,34,J 60,Number,N,FALSE,OE,p,1495,551742,,,,,,,,,
CVOE_B,3006,1,3,35,S 28,Letter,Y,FALSE,CV,q,1002,553266,,,,,,,,,
CVOE_B,3006,1,3,36,P 11,Number,Y,TRUE,OE,q,1330,555111,,,,,,,,,
CVOE_B,3006,1,3,37,D 39,Number,N,TRUE,OE,q,2592,558223,,,,,,,,,
CVOE_B,3006,1,3,38,E 90,Number,N,TRUE,OE,p,838,559569,,,,,,,,,
CVOE_B,3006,1,3,39,I 38,Number,N,TRUE,OE,p,2340,562421,,,,,,,,,
CVOE_B,3006,1,3,40,S 35,Letter,Y,TRUE,CV,q,774,563706,,,,,,,,,
CVOE_B,3006,1,3,41,D 41,Number,Y,TRUE,OE,q,1057,565272,,,,,,,,,
CVOE_B,3006,1,3,42,E 06,Number,N,TRUE,OE,p,2061,567843,,,,,,,,,
CVOE_B,3006,1,3,43,A 27,Number,N,FALSE,OE,q,2028,570393,,,,,,,,,
CVOE_B,3006,1,3,44,U 95,Letter,Y,FALSE,CV,p,881,571796,,,,,,,,,
CVOE_B,3006,1,3,45,A 53,Letter,N,FALSE,CV,p,980,573296,,,,,,,,,
CVOE_B,3006,1,3,46,E 43,Letter,N,FALSE,CV,p,1168,574984,,,,,,,,,
CVOE_B,3006,1,3,47,P 05,Number,Y,TRUE,OE,q,1064,576563,,,,,,,,,
CVOE_B,3006,1,3,48,O 19,Letter,Y,FALSE,CV,p,2589,579672,,,,,,,,,
CVOE_B,3006,1,3,49,I 96,Number,Y,TRUE,OE,p,1275,581458,,,,,,,,,
CVOE_B,3006,1,3,50,A 88,Number,N,TRUE,OE,p,1180,583146,,,,,,,,,
CVOE_B,3006,1,3,51,I 67,Number,N,FALSE,OE,q,829,584495,,,,,,,,,
CVOE_B,3006,1,3,52,D 40,Number,N,FALSE,OE,p,978,585994,,,,,,,,,
CVOE_B,3006,1,3,53,P 79,Letter,Y,TRUE,CV,q,1863,588379,,,,,,,,,
CVOE_B,3006,1,3,54,U 24,Number,Y,TRUE,OE,q,397,589297,,,,,,,,,
CVOE_B,3006,1,3,55,P 74,Number,N,FALSE,OE,p,4377,594194,,,,,,,,,
CVOE_B,3006,1,3,56,E 70,Number,N,TRUE,OE,p,899,595616,,,,,,,,,
CVOE_B,3006,1,3,57,S 27,Number,N,TRUE,OE,q,836,596970,,,,,,,,,
CVOE_B,3006,1,3,58,E 54,Letter,Y,TRUE,CV,p,1094,598578,,,,,,,,,
CVOE_B,3006,1,3,59,A 53,Letter,N,FALSE,CV,p,723,599824,,,,,,,,,
CVOE_B,3006,1,3,60,P 34,Letter,N,FALSE,CV,q,1607,601941,,,,,,,,,
CVOE_B,3006,1,3,61,D 74,Number,Y,FALSE,OE,p,1060,603511,,,,,,,,,
CVOE_B,3006,1,3,62,A 03,Letter,Y,FALSE,CV,p,9908,613942,,,,,,,,,
CVOE_B,3006,1,3,63,E 24,Number,Y,TRUE,OE,p,3094,617546,,,,,,,,,
CVOE_B,3006,1,3,64,I 58,Letter,Y,TRUE,CV,p,1400,619469,,,,,,,,,
CVOE_B,3006,1,3,65,D 77,Number,Y,TRUE,OE,q,5255,625240,,,,,,,,,
CVOE_B,3006,1,3,66,S 75,Number,N,TRUE,OE,q,850,626602,,,,,,,,,
CVOE_B,3006,1,3,67,I 20,Letter,Y,TRUE,CV,p,2034,629153,,,,,,,,,
CVOE_B,3006,1,3,68,J 52,Letter,N,FALSE,CV,q,1054,630723,,,,,,,,,
CVOE_B,3006,1,3,69,A 38,Number,Y,TRUE,OE,p,1212,632448,,,,,,,,,
