ExperimentName,Subject,Group,Block,Trial,STIM,TASK,Switch,Congruent,CVOE,Response,RT,block_type,letter,number,key2,response2,match2,score2
CVOE updated,5,1,1,11,A 71,,,FALSE,CV,p,2144,cv,A,1,v,v,TRUE,1
CVOE updated,5,1,1,12,I 66,,,TRUE,CV,q,783,cv,I,6,v,c,FALSE,0
CVOE updated,5,1,1,13,S 30,,,FALSE,CV,q,636,cv,S,0,c,c,TRUE,1
CVOE updated,5,1,1,14,D 20,,,FALSE,CV,q,1261,cv,D,0,c,c,TRUE,1
CVOE updated,5,1,1,15,I 31,,,FALSE,CV,p,611,cv,I,1,v,v,TRUE,1
CVOE updated,5,1,1,16,P 16,,,FALSE,CV,q,574,cv,P,6,c,c,TRUE,1
CVOE updated,5,1,1,17,A 49,,,FALSE,CV,p,777,cv,A,9,v,v,TRUE,1
CVOE updated,5,1,1,18,O 64,,,TRUE,CV,p,420,cv,O,4,v,v,TRUE,1
CVOE updated,5,1,1,19,D 02,,,FALSE,CV,q,466,cv,D,2,c,c,TRUE,1
CVOE updated,5,1,1,20,P 81,,,TRUE,CV,q,904,cv,P,1,c,c,TRUE,1
CVOE updated,5,1,1,21,J 58,,,FALSE,CV,q,693,cv,J,8,c,c,TRUE,1
CVOE updated,5,1,1,22,A 22,,,TRUE,CV,p,633,cv,A,2,v,v,TRUE,1
CVOE updated,5,1,1,23,J 72,,,FALSE,CV,q,582,cv,J,2,c,c,TRUE,1
CVOE updated,5,1,1,24,P 91,,,TRUE,CV,q,868,cv,P,1,c,c,TRUE,1
CVOE updated,5,1,1,25,E 19,,,FALSE,CV,p,642,cv,E,9,v,v,TRUE,1
CVOE updated,5,1,1,26,I 30,,,TRUE,CV,q,602,cv,I,0,v,c,FALSE,0
CVOE updated,5,1,1,27,D 91,,,TRUE,CV,q,587,cv,D,1,c,c,TRUE,1
CVOE updated,5,1,1,28,O 48,,,TRUE,CV,p,441,cv,O,8,v,v,TRUE,1
CVOE updated,5,1,1,29,A 89,,,FALSE,CV,p,921,cv,A,9,v,v,TRUE,1
CVOE updated,5,1,1,30,U 11,,,FALSE,CV,p,826,cv,U,1,v,v,TRUE,1
CVOE updated,5,1,1,31,I 76,,,TRUE,CV,q,1015,cv,I,6,v,c,FALSE,0
CVOE updated,5,1,1,32,U 89,,,FALSE,CV,p,827,cv,U,9,v,v,TRUE,1
CVOE updated,5,1,1,33,D 63,,,TRUE,CV,q,960,cv,D,3,c,c,TRUE,1
CVOE updated,5,1,1,34,H 70,,,FALSE,CV,q,689,cv,H,0,c,c,TRUE,1
CVOE updated,5,1,1,35,D 48,,,FALSE,CV,q,732,cv,D,8,c,c,TRUE,1
CVOE updated,5,1,1,36,P 56,,,FALSE,CV,q,895,cv,P,6,c,c,TRUE,1
CVOE updated,5,1,1,37,O 77,,,FALSE,CV,p,658,cv,O,7,v,v,TRUE,1
CVOE updated,5,1,1,38,P 42,,,FALSE,CV,q,766,cv,P,2,c,c,TRUE,1
CVOE updated,5,1,1,39,H 22,,,FALSE,CV,q,870,cv,H,2,c,c,TRUE,1
CVOE updated,5,1,1,40,E 42,,,TRUE,CV,p,716,cv,E,2,v,v,TRUE,1
CVOE updated,5,1,1,41,J 28,,,FALSE,CV,q,588,cv,J,8,c,c,TRUE,1
CVOE updated,5,1,1,42,E 95,,,FALSE,CV,p,506,cv,E,5,v,v,TRUE,1
CVOE updated,5,1,1,43,S 63,,,TRUE,CV,q,640,cv,S,3,c,c,TRUE,1
CVOE updated,5,1,1,44,H 50,,,FALSE,CV,q,1032,cv,H,0,c,c,TRUE,1
CVOE updated,5,1,1,45,S 33,,,TRUE,CV,q,470,cv,S,3,c,c,TRUE,1
CVOE updated,5,1,1,46,P 57,,,TRUE,CV,q,836,cv,P,7,c,c,TRUE,1
CVOE updated,5,1,1,47,E 23,,,FALSE,CV,p,828,cv,E,3,v,v,TRUE,1
CVOE updated,5,1,1,48,S 61,,,TRUE,CV,q,1066,cv,S,1,c,c,TRUE,1
CVOE updated,5,1,1,49,U 67,,,FALSE,CV,p,528,cv,U,7,v,v,TRUE,1
CVOE updated,5,1,1,50,H 32,,,FALSE,CV,q,547,cv,H,2,c,c,TRUE,1
CVOE updated,5,1,1,51,U 50,,,TRUE,CV,p,609,cv,U,0,v,v,TRUE,1
CVOE updated,5,1,1,52,O 49,,,FALSE,CV,p,452,cv,O,9,v,v,TRUE,1
CVOE updated,5,1,1,53,U 32,,,TRUE,CV,p,479,cv,U,2,v,v,TRUE,1
CVOE updated,5,1,1,54,J 78,,,FALSE,CV,q,560,cv,J,8,c,c,TRUE,1
CVOE updated,5,1,1,55,S 54,,,FALSE,CV,q,504,cv,S,4,c,c,TRUE,1
CVOE updated,5,1,1,56,J 27,,,TRUE,CV,q,638,cv,J,7,c,c,TRUE,1
CVOE updated,5,1,1,57,S 06,,,FALSE,CV,q,470,cv,S,6,c,c,TRUE,1
CVOE updated,5,1,1,58,D 67,,,TRUE,CV,q,644,cv,D,7,c,c,TRUE,1
CVOE updated,5,1,1,59,A 79,,,FALSE,CV,p,580,cv,A,9,v,v,TRUE,1
CVOE updated,5,1,1,60,S 52,,,FALSE,CV,q,466,cv,S,2,c,c,TRUE,1
CVOE updated,5,1,1,61,U 16,,,TRUE,CV,p,912,cv,U,6,v,v,TRUE,1
CVOE updated,5,1,1,62,O 82,,,TRUE,CV,p,670,cv,O,2,v,v,TRUE,1
CVOE updated,5,1,1,63,H 87,,,TRUE,CV,q,547,cv,H,7,c,c,TRUE,1
CVOE updated,5,1,1,64,I 32,,,TRUE,CV,p,881,cv,I,2,v,v,TRUE,1
CVOE updated,5,1,1,65,U 37,,,FALSE,CV,p,562,cv,U,7,v,v,TRUE,1
CVOE updated,5,1,1,66,I 42,,,TRUE,CV,p,946,cv,I,2,v,v,TRUE,1
CVOE updated,5,1,1,67,D 65,,,TRUE,CV,q,416,cv,D,5,c,c,TRUE,1
CVOE updated,5,1,1,68,U 77,,,FALSE,CV,p,491,cv,U,7,v,v,TRUE,1
CVOE updated,5,1,1,69,E 12,,,TRUE,CV,q,590,cv,E,2,v,c,FALSE,0
CVOE updated,5,1,1,70,I 60,,,TRUE,CV,p,964,cv,I,0,v,v,TRUE,1
CVOE updated,5,1,1,71,J 36,,,FALSE,CV,q,1332,cv,J,6,c,c,TRUE,1
CVOE updated,5,1,1,72,H 75,,,TRUE,CV,q,1288,cv,H,5,c,c,TRUE,1
CVOE updated,5,1,1,73,I 50,,,TRUE,CV,q,555,cv,I,0,v,c,FALSE,0
CVOE updated,5,1,1,74,E 99,,,FALSE,CV,p,956,cv,E,9,v,v,TRUE,1
CVOE updated,5,1,1,75,A 86,,,TRUE,CV,q,716,cv,A,6,v,c,FALSE,0
CVOE updated,5,1,1,76,U 48,,,TRUE,CV,p,533,cv,U,8,v,v,TRUE,1
CVOE updated,5,1,1,77,E 01,,,FALSE,CV,p,656,cv,E,1,v,v,TRUE,1
CVOE updated,5,1,1,78,A 78,,,TRUE,CV,q,731,cv,A,8,v,c,FALSE,0
CVOE updated,5,1,1,79,P 60,,,FALSE,CV,q,598,cv,P,0,c,c,TRUE,1
CVOE updated,5,1,1,80,E 43,,,FALSE,CV,p,958,cv,E,3,v,v,TRUE,1
CVOE updated,5,1,1,81,D 69,,,TRUE,CV,q,559,cv,D,9,c,c,TRUE,1
CVOE updated,5,1,1,82,H 11,,,TRUE,CV,q,895,cv,H,1,c,c,TRUE,1
CVOE updated,5,1,1,83,P 43,,,TRUE,CV,q,619,cv,P,3,c,c,TRUE,1
CVOE updated,5,1,1,84,O 67,,,FALSE,CV,p,1134,cv,O,7,v,v,TRUE,1
CVOE updated,5,1,1,85,S 91,,,FALSE,CV,q,505,cv,S,1,c,c,TRUE,1
CVOE updated,5,1,1,86,J 68,,,TRUE,CV,q,647,cv,J,8,c,c,TRUE,1
CVOE updated,5,1,1,87,S 47,,,FALSE,CV,q,762,cv,S,7,c,c,TRUE,1
CVOE updated,5,1,1,88,I 81,,,TRUE,CV,p,690,cv,I,1,v,v,TRUE,1
CVOE updated,5,1,1,89,J 39,,,FALSE,CV,q,621,cv,J,9,c,c,TRUE,1
CVOE updated,5,1,1,90,A 11,,,TRUE,CV,p,811,cv,A,1,v,v,TRUE,1
CVOE updated,5,1,1,91,O 76,,,FALSE,CV,p,510,cv,O,6,v,v,TRUE,1
CVOE updated,5,1,1,92,A 62,,,FALSE,CV,p,1260,cv,A,2,v,v,TRUE,1
CVOE updated,5,1,1,93,O 27,,,TRUE,CV,p,466,cv,O,7,v,v,TRUE,1
CVOE updated,5,1,1,94,E 66,,,FALSE,CV,q,552,cv,E,6,v,c,FALSE,0
CVOE updated,5,1,1,95,J 62,,,TRUE,CV,q,774,cv,J,2,c,c,TRUE,1
CVOE updated,5,1,1,96,H 72,,,TRUE,CV,q,609,cv,H,2,c,c,TRUE,1
CVOE updated,5,1,1,97,E 49,,,TRUE,CV,p,948,cv,E,9,v,v,TRUE,1
CVOE updated,5,1,1,98,D 52,,,TRUE,CV,q,466,cv,D,2,c,c,TRUE,1
CVOE updated,5,1,1,99,H 62,,,TRUE,CV,q,551,cv,H,2,c,c,TRUE,1
CVOE updated,5,1,1,100,I 11,,,TRUE,CV,p,637,cv,I,1,v,v,TRUE,1
CVOE updated,5,1,1,101,A 98,,,FALSE,CV,p,1494,cv,A,8,v,v,TRUE,1
CVOE updated,5,1,1,102,H 29,,,FALSE,CV,q,1457,cv,H,9,c,c,TRUE,1
CVOE updated,5,1,1,103,E 83,,,TRUE,CV,p,596,cv,E,3,v,v,TRUE,1
CVOE updated,5,1,1,104,D 43,,,FALSE,CV,q,501,cv,D,3,c,c,TRUE,1
CVOE updated,5,1,1,105,P 45,,,TRUE,CV,q,491,cv,P,5,c,c,TRUE,1
CVOE updated,5,1,1,106,J 17,,,TRUE,CV,q,462,cv,J,7,c,c,TRUE,1
CVOE updated,1,1,1,11,A 71,,,FALSE,CV,p,2421,cv,A,1,v,v,TRUE,1
CVOE updated,1,1,1,12,I 66,,,TRUE,CV,p,717,cv,I,6,v,v,TRUE,1
CVOE updated,1,1,1,13,S 30,,,FALSE,CV,q,566,cv,S,0,c,c,TRUE,1
CVOE updated,1,1,1,14,D 20,,,FALSE,CV,q,868,cv,D,0,c,c,TRUE,1
CVOE updated,1,1,1,15,I 31,,,FALSE,CV,p,550,cv,I,1,v,v,TRUE,1
CVOE updated,1,1,1,16,P 16,,,FALSE,CV,q,731,cv,P,6,c,c,TRUE,1
CVOE updated,1,1,1,17,A 49,,,FALSE,CV,p,784,cv,A,9,v,v,TRUE,1
CVOE updated,1,1,1,18,O 64,,,TRUE,CV,p,1165,cv,O,4,v,v,TRUE,1
CVOE updated,1,1,1,19,D 02,,,FALSE,CV,q,1267,cv,D,2,c,c,TRUE,1
CVOE updated,1,1,1,20,P 81,,,TRUE,CV,q,1141,cv,P,1,c,c,TRUE,1
CVOE updated,1,1,1,21,J 58,,,FALSE,CV,q,3512,cv,J,8,c,c,TRUE,1
CVOE updated,1,1,1,22,A 22,,,TRUE,CV,p,492,cv,A,2,v,v,TRUE,1
CVOE updated,1,1,1,23,J 72,,,FALSE,CV,q,599,cv,J,2,c,c,TRUE,1
CVOE updated,1,1,1,24,P 91,,,TRUE,CV,q,590,cv,P,1,c,c,TRUE,1
CVOE updated,1,1,1,25,E 19,,,FALSE,CV,p,666,cv,E,9,v,v,TRUE,1
CVOE updated,1,1,1,26,I 30,,,TRUE,CV,p,710,cv,I,0,v,v,TRUE,1
CVOE updated,1,1,1,27,D 91,,,TRUE,CV,q,515,cv,D,1,c,c,TRUE,1
CVOE updated,1,1,1,28,O 48,,,TRUE,CV,p,823,cv,O,8,v,v,TRUE,1
CVOE updated,1,1,1,29,A 89,,,FALSE,CV,p,545,cv,A,9,v,v,TRUE,1
CVOE updated,1,1,1,30,U 11,,,FALSE,CV,p,736,cv,U,1,v,v,TRUE,1
CVOE updated,1,1,1,31,I 76,,,TRUE,CV,p,608,cv,I,6,v,v,TRUE,1
CVOE updated,1,1,1,32,U 89,,,FALSE,CV,p,978,cv,U,9,v,v,TRUE,1
CVOE updated,1,1,1,33,D 63,,,TRUE,CV,q,482,cv,D,3,c,c,TRUE,1
CVOE updated,1,1,1,34,H 70,,,FALSE,CV,q,795,cv,H,0,c,c,TRUE,1
CVOE updated,1,1,1,35,D 48,,,FALSE,CV,q,585,cv,D,8,c,c,TRUE,1
CVOE updated,1,1,1,36,P 56,,,FALSE,CV,p,520,cv,P,6,c,v,FALSE,0
CVOE updated,1,1,1,37,O 77,,,FALSE,CV,p,1241,cv,O,7,v,v,TRUE,1
CVOE updated,1,1,1,38,P 42,,,FALSE,CV,q,601,cv,P,2,c,c,TRUE,1
CVOE updated,1,1,1,39,H 22,,,FALSE,CV,q,808,cv,H,2,c,c,TRUE,1
CVOE updated,1,1,1,40,E 42,,,TRUE,CV,p,579,cv,E,2,v,v,TRUE,1
CVOE updated,1,1,1,41,J 28,,,FALSE,CV,q,537,cv,J,8,c,c,TRUE,1
CVOE updated,1,1,1,42,E 95,,,FALSE,CV,p,698,cv,E,5,v,v,TRUE,1
CVOE updated,1,1,1,43,S 63,,,TRUE,CV,q,1279,cv,S,3,c,c,TRUE,1
CVOE updated,1,1,1,44,H 50,,,FALSE,CV,q,1077,cv,H,0,c,c,TRUE,1
CVOE updated,1,1,1,45,S 33,,,TRUE,CV,q,619,cv,S,3,c,c,TRUE,1
CVOE updated,1,1,1,46,P 57,,,TRUE,CV,q,705,cv,P,7,c,c,TRUE,1
CVOE updated,1,1,1,47,E 23,,,FALSE,CV,p,568,cv,E,3,v,v,TRUE,1
CVOE updated,1,1,1,48,S 61,,,TRUE,CV,q,465,cv,S,1,c,c,TRUE,1
CVOE updated,1,1,1,49,U 67,,,FALSE,CV,p,564,cv,U,7,v,v,TRUE,1
CVOE updated,1,1,1,50,H 32,,,FALSE,CV,q,507,cv,H,2,c,c,TRUE,1
CVOE updated,1,1,1,51,U 50,,,TRUE,CV,p,635,cv,U,0,v,v,TRUE,1
CVOE updated,1,1,1,52,O 49,,,FALSE,CV,p,2704,cv,O,9,v,v,TRUE,1
CVOE updated,1,1,1,53,U 32,,,TRUE,CV,p,865,cv,U,2,v,v,TRUE,1
CVOE updated,1,1,1,54,J 78,,,FALSE,CV,q,523,cv,J,8,c,c,TRUE,1
CVOE updated,1,1,1,55,S 54,,,FALSE,CV,q,577,cv,S,4,c,c,TRUE,1
CVOE updated,1,1,1,56,J 27,,,TRUE,CV,q,680,cv,J,7,c,c,TRUE,1
CVOE updated,1,1,1,57,S 06,,,FALSE,CV,q,387,cv,S,6,c,c,TRUE,1
CVOE updated,1,1,1,58,D 67,,,TRUE,CV,q,411,cv,D,7,c,c,TRUE,1
CVOE updated,1,1,1,59,A 79,,,FALSE,CV,p,500,cv,A,9,v,v,TRUE,1
CVOE updated,1,1,1,60,S 52,,,FALSE,CV,q,490,cv,S,2,c,c,TRUE,1
CVOE updated,1,1,1,61,U 16,,,TRUE,CV,p,1018,cv,U,6,v,v,TRUE,1
CVOE updated,1,1,1,62,O 82,,,TRUE,CV,p,609,cv,O,2,v,v,TRUE,1
CVOE updated,1,1,1,63,H 87,,,TRUE,CV,q,586,cv,H,7,c,c,TRUE,1
CVOE updated,1,1,1,64,I 32,,,TRUE,CV,p,397,cv,I,2,v,v,TRUE,1
CVOE updated,1,1,1,65,U 37,,,FALSE,CV,p,543,cv,U,7,v,v,TRUE,1
CVOE updated,1,1,1,66,I 42,,,TRUE,CV,p,455,cv,I,2,v,v,TRUE,1
CVOE updated,1,1,1,67,D 65,,,TRUE,CV,q,432,cv,D,5,c,c,TRUE,1
CVOE updated,1,1,1,68,U 77,,,FALSE,CV,p,619,cv,U,7,v,v,TRUE,1
CVOE updated,1,1,1,69,E 12,,,TRUE,CV,p,464,cv,E,2,v,v,TRUE,1
CVOE updated,1,1,1,70,I 60,,,TRUE,CV,p,490,cv,I,0,v,v,TRUE,1
CVOE updated,1,1,1,71,J 36,,,FALSE,CV,q,545,cv,J,6,c,c,TRUE,1
CVOE updated,1,1,1,72,H 75,,,TRUE,CV,q,2057,cv,H,5,c,c,TRUE,1
CVOE updated,1,1,1,73,I 50,,,TRUE,CV,p,504,cv,I,0,v,v,TRUE,1
CVOE updated,1,1,1,74,E 99,,,FALSE,CV,p,771,cv,E,9,v,v,TRUE,1
CVOE updated,1,1,1,75,A 86,,,TRUE,CV,p,596,cv,A,6,v,v,TRUE,1
CVOE updated,1,1,1,76,U 48,,,TRUE,CV,p,514,cv,U,8,v,v,TRUE,1
CVOE updated,1,1,1,77,E 01,,,FALSE,CV,p,468,cv,E,1,v,v,TRUE,1
CVOE updated,1,1,1,78,A 78,,,TRUE,CV,p,356,cv,A,8,v,v,TRUE,1
CVOE updated,1,1,1,79,P 60,,,FALSE,CV,q,500,cv,P,0,c,c,TRUE,1
CVOE updated,1,1,1,80,E 43,,,FALSE,CV,p,662,cv,E,3,v,v,TRUE,1
CVOE updated,1,1,1,81,D 69,,,TRUE,CV,q,627,cv,D,9,c,c,TRUE,1
CVOE updated,1,1,1,82,H 11,,,TRUE,CV,q,634,cv,H,1,c,c,TRUE,1
CVOE updated,1,1,1,83,P 43,,,TRUE,CV,q,568,cv,P,3,c,c,TRUE,1
CVOE updated,1,1,1,84,O 67,,,FALSE,CV,p,433,cv,O,7,v,v,TRUE,1
CVOE updated,1,1,1,85,S 91,,,FALSE,CV,q,533,cv,S,1,c,c,TRUE,1
CVOE updated,1,1,1,86,J 68,,,TRUE,CV,q,674,cv,J,8,c,c,TRUE,1
CVOE updated,1,1,1,87,S 47,,,FALSE,CV,q,443,cv,S,7,c,c,TRUE,1
CVOE updated,1,1,1,88,I 81,,,TRUE,CV,p,478,cv,I,1,v,v,TRUE,1
CVOE updated,1,1,1,89,J 39,,,FALSE,CV,q,483,cv,J,9,c,c,TRUE,1
CVOE updated,1,1,1,90,A 11,,,TRUE,CV,p,454,cv,A,1,v,v,TRUE,1
CVOE updated,1,1,1,91,O 76,,,FALSE,CV,p,726,cv,O,6,v,v,TRUE,1
CVOE updated,1,1,1,92,A 62,,,FALSE,CV,p,563,cv,A,2,v,v,TRUE,1
CVOE updated,1,1,1,93,O 27,,,TRUE,CV,p,554,cv,O,7,v,v,TRUE,1
CVOE updated,1,1,1,94,E 66,,,FALSE,CV,p,653,cv,E,6,v,v,TRUE,1
CVOE updated,1,1,1,95,J 62,,,TRUE,CV,q,924,cv,J,2,c,c,TRUE,1
CVOE updated,1,1,1,96,H 72,,,TRUE,CV,q,541,cv,H,2,c,c,TRUE,1
CVOE updated,1,1,1,97,E 49,,,TRUE,CV,p,575,cv,E,9,v,v,TRUE,1
CVOE updated,1,1,1,98,D 52,,,TRUE,CV,q,754,cv,D,2,c,c,TRUE,1
CVOE updated,1,1,1,99,H 62,,,TRUE,CV,q,633,cv,H,2,c,c,TRUE,1
CVOE updated,1,1,1,100,I 11,,,TRUE,CV,p,544,cv,I,1,v,v,TRUE,1
CVOE updated,1,1,1,101,A 98,,,FALSE,CV,p,588,cv,A,8,v,v,TRUE,1
CVOE updated,1,1,1,102,H 29,,,FALSE,CV,q,516,cv,H,9,c,c,TRUE,1
CVOE updated,1,1,1,103,E 83,,,TRUE,CV,p,544,cv,E,3,v,v,TRUE,1
CVOE updated,1,1,1,104,D 43,,,FALSE,CV,q,919,cv,D,3,c,c,TRUE,1
CVOE updated,1,1,1,105,P 45,,,TRUE,CV,q,658,cv,P,5,c,c,TRUE,1
CVOE updated,1,1,1,106,J 17,,,TRUE,CV,q,504,cv,J,7,c,c,TRUE,1
CVOE updated,9,1,1,11,A 71,,,FALSE,CV,p,1803,cv,A,1,v,v,TRUE,1
CVOE updated,9,1,1,12,I 66,,,TRUE,CV,p,612,cv,I,6,v,v,TRUE,1
CVOE updated,9,1,1,13,S 30,,,FALSE,CV,q,487,cv,S,0,c,c,TRUE,1
CVOE updated,9,1,1,14,D 20,,,FALSE,CV,q,571,cv,D,0,c,c,TRUE,1
CVOE updated,9,1,1,15,I 31,,,FALSE,CV,p,526,cv,I,1,v,v,TRUE,1
CVOE updated,9,1,1,16,P 16,,,FALSE,CV,q,590,cv,P,6,c,c,TRUE,1
CVOE updated,9,1,1,17,A 49,,,FALSE,CV,p,524,cv,A,9,v,v,TRUE,1
CVOE updated,9,1,1,18,O 64,,,TRUE,CV,p,612,cv,O,4,v,v,TRUE,1
CVOE updated,9,1,1,19,D 02,,,FALSE,CV,q,471,cv,D,2,c,c,TRUE,1
CVOE updated,9,1,1,20,P 81,,,TRUE,CV,q,765,cv,P,1,c,c,TRUE,1
CVOE updated,9,1,1,21,J 58,,,FALSE,CV,q,749,cv,J,8,c,c,TRUE,1
CVOE updated,9,1,1,22,A 22,,,TRUE,CV,p,475,cv,A,2,v,v,TRUE,1
CVOE updated,9,1,1,23,J 72,,,FALSE,CV,q,532,cv,J,2,c,c,TRUE,1
CVOE updated,9,1,1,24,P 91,,,TRUE,CV,q,535,cv,P,1,c,c,TRUE,1
CVOE updated,9,1,1,25,E 19,,,FALSE,CV,p,450,cv,E,9,v,v,TRUE,1
CVOE updated,9,1,1,26,I 30,,,TRUE,CV,p,453,cv,I,0,v,v,TRUE,1
CVOE updated,9,1,1,27,D 91,,,TRUE,CV,q,488,cv,D,1,c,c,TRUE,1
CVOE updated,9,1,1,28,O 48,,,TRUE,CV,p,531,cv,O,8,v,v,TRUE,1
CVOE updated,9,1,1,29,A 89,,,FALSE,CV,p,566,cv,A,9,v,v,TRUE,1
CVOE updated,9,1,1,30,U 11,,,FALSE,CV,p,542,cv,U,1,v,v,TRUE,1
CVOE updated,9,1,1,31,I 76,,,TRUE,CV,p,420,cv,I,6,v,v,TRUE,1
CVOE updated,9,1,1,32,U 89,,,FALSE,CV,p,450,cv,U,9,v,v,TRUE,1
CVOE updated,9,1,1,33,D 63,,,TRUE,CV,q,461,cv,D,3,c,c,TRUE,1
CVOE updated,9,1,1,34,H 70,,,FALSE,CV,q,475,cv,H,0,c,c,TRUE,1
CVOE updated,9,1,1,35,D 48,,,FALSE,CV,q,451,cv,D,8,c,c,TRUE,1
CVOE updated,9,1,1,36,P 56,,,FALSE,CV,q,502,cv,P,6,c,c,TRUE,1
CVOE updated,9,1,1,37,O 77,,,FALSE,CV,p,444,cv,O,7,v,v,TRUE,1
CVOE updated,9,1,1,38,P 42,,,FALSE,CV,q,756,cv,P,2,c,c,TRUE,1
CVOE updated,9,1,1,39,H 22,,,FALSE,CV,q,693,cv,H,2,c,c,TRUE,1
CVOE updated,9,1,1,40,E 42,,,TRUE,CV,p,344,cv,E,2,v,v,TRUE,1
CVOE updated,9,1,1,41,J 28,,,FALSE,CV,q,1029,cv,J,8,c,c,TRUE,1
CVOE updated,9,1,1,42,E 95,,,FALSE,CV,p,595,cv,E,5,v,v,TRUE,1
CVOE updated,9,1,1,43,S 63,,,TRUE,CV,q,508,cv,S,3,c,c,TRUE,1
CVOE updated,9,1,1,44,H 50,,,FALSE,CV,q,449,cv,H,0,c,c,TRUE,1
CVOE updated,9,1,1,45,S 33,,,TRUE,CV,q,476,cv,S,3,c,c,TRUE,1
CVOE updated,9,1,1,46,P 57,,,TRUE,CV,q,541,cv,P,7,c,c,TRUE,1
CVOE updated,9,1,1,47,E 23,,,FALSE,CV,p,459,cv,E,3,v,v,TRUE,1
CVOE updated,9,1,1,48,S 61,,,TRUE,CV,q,422,cv,S,1,c,c,TRUE,1
CVOE updated,9,1,1,49,U 67,,,FALSE,CV,p,515,cv,U,7,v,v,TRUE,1
CVOE updated,9,1,1,50,H 32,,,FALSE,CV,q,540,cv,H,2,c,c,TRUE,1
CVOE updated,9,1,1,51,U 50,,,TRUE,CV,p,575,cv,U,0,v,v,TRUE,1
CVOE updated,9,1,1,52,O 49,,,FALSE,CV,p,554,cv,O,9,v,v,TRUE,1
CVOE updated,9,1,1,53,U 32,,,TRUE,CV,p,530,cv,U,2,v,v,TRUE,1
CVOE updated,9,1,1,54,J 78,,,FALSE,CV,q,509,cv,J,8,c,c,TRUE,1
CVOE updated,9,1,1,55,S 54,,,FALSE,CV,q,571,cv,S,4,c,c,TRUE,1
CVOE updated,9,1,1,56,J 27,,,TRUE,CV,q,550,cv,J,7,c,c,TRUE,1
CVOE updated,9,1,1,57,S 06,,,FALSE,CV,q,612,cv,S,6,c,c,TRUE,1
CVOE updated,9,1,1,58,D 67,,,TRUE,CV,q,487,cv,D,7,c,c,TRUE,1
CVOE updated,9,1,1,59,A 79,,,FALSE,CV,p,482,cv,A,9,v,v,TRUE,1
CVOE updated,9,1,1,60,S 52,,,FALSE,CV,q,498,cv,S,2,c,c,TRUE,1
CVOE updated,9,1,1,61,U 16,,,TRUE,CV,p,526,cv,U,6,v,v,TRUE,1
CVOE updated,9,1,1,62,O 82,,,TRUE,CV,p,430,cv,O,2,v,v,TRUE,1
CVOE updated,9,1,1,63,H 87,,,TRUE,CV,q,516,cv,H,7,c,c,TRUE,1
CVOE updated,9,1,1,64,I 32,,,TRUE,CV,p,372,cv,I,2,v,v,TRUE,1
CVOE updated,9,1,1,65,U 37,,,FALSE,CV,p,455,cv,U,7,v,v,TRUE,1
CVOE updated,9,1,1,66,I 42,,,TRUE,CV,p,466,cv,I,2,v,v,TRUE,1
CVOE updated,9,1,1,67,D 65,,,TRUE,CV,q,400,cv,D,5,c,c,TRUE,1
CVOE updated,9,1,1,68,U 77,,,FALSE,CV,p,472,cv,U,7,v,v,TRUE,1
CVOE updated,9,1,1,69,E 12,,,TRUE,CV,p,462,cv,E,2,v,v,TRUE,1
CVOE updated,9,1,1,70,I 60,,,TRUE,CV,p,452,cv,I,0,v,v,TRUE,1
CVOE updated,9,1,1,71,J 36,,,FALSE,CV,q,423,cv,J,6,c,c,TRUE,1
CVOE updated,9,1,1,72,H 75,,,TRUE,CV,q,492,cv,H,5,c,c,TRUE,1
CVOE updated,9,1,1,73,I 50,,,TRUE,CV,p,535,cv,I,0,v,v,TRUE,1
CVOE updated,9,1,1,74,E 99,,,FALSE,CV,p,450,cv,E,9,v,v,TRUE,1
CVOE updated,9,1,1,75,A 86,,,TRUE,CV,p,437,cv,A,6,v,v,TRUE,1
CVOE updated,9,1,1,76,U 48,,,TRUE,CV,p,510,cv,U,8,v,v,TRUE,1
CVOE updated,9,1,1,77,E 01,,,FALSE,CV,p,484,cv,E,1,v,v,TRUE,1
CVOE updated,9,1,1,78,A 78,,,TRUE,CV,p,444,cv,A,8,v,v,TRUE,1
CVOE updated,9,1,1,79,P 60,,,FALSE,CV,q,468,cv,P,0,c,c,TRUE,1
CVOE updated,9,1,1,80,E 43,,,FALSE,CV,p,458,cv,E,3,v,v,TRUE,1
CVOE updated,9,1,1,81,D 69,,,TRUE,CV,q,413,cv,D,9,c,c,TRUE,1
CVOE updated,9,1,1,82,H 11,,,TRUE,CV,q,520,cv,H,1,c,c,TRUE,1
CVOE updated,9,1,1,83,P 43,,,TRUE,CV,q,1016,cv,P,3,c,c,TRUE,1
CVOE updated,9,1,1,84,O 67,,,FALSE,CV,p,484,cv,O,7,v,v,TRUE,1
CVOE updated,9,1,1,85,S 91,,,FALSE,CV,q,476,cv,S,1,c,c,TRUE,1
CVOE updated,9,1,1,86,J 68,,,TRUE,CV,q,444,cv,J,8,c,c,TRUE,1
CVOE updated,9,1,1,87,S 47,,,FALSE,CV,q,501,cv,S,7,c,c,TRUE,1
CVOE updated,9,1,1,88,I 81,,,TRUE,CV,p,499,cv,I,1,v,v,TRUE,1
CVOE updated,9,1,1,89,J 39,,,FALSE,CV,q,438,cv,J,9,c,c,TRUE,1
CVOE updated,9,1,1,90,A 11,,,TRUE,CV,p,526,cv,A,1,v,v,TRUE,1
CVOE updated,9,1,1,91,O 76,,,FALSE,CV,p,398,cv,O,6,v,v,TRUE,1
CVOE updated,9,1,1,92,A 62,,,FALSE,CV,p,415,cv,A,2,v,v,TRUE,1
CVOE updated,9,1,1,93,O 27,,,TRUE,CV,p,394,cv,O,7,v,v,TRUE,1
CVOE updated,9,1,1,94,E 66,,,FALSE,CV,p,466,cv,E,6,v,v,TRUE,1
CVOE updated,9,1,1,95,J 62,,,TRUE,CV,q,448,cv,J,2,c,c,TRUE,1
CVOE updated,9,1,1,96,H 72,,,TRUE,CV,q,507,cv,H,2,c,c,TRUE,1
CVOE updated,9,1,1,97,E 49,,,TRUE,CV,p,417,cv,E,9,v,v,TRUE,1
CVOE updated,9,1,1,98,D 52,,,TRUE,CV,q,460,cv,D,2,c,c,TRUE,1
CVOE updated,9,1,1,99,H 62,,,TRUE,CV,q,383,cv,H,2,c,c,TRUE,1
CVOE updated,9,1,1,100,I 11,,,TRUE,CV,p,372,cv,I,1,v,v,TRUE,1
CVOE updated,9,1,1,101,A 98,,,FALSE,CV,p,367,cv,A,8,v,v,TRUE,1
CVOE updated,9,1,1,102,H 29,,,FALSE,CV,q,426,cv,H,9,c,c,TRUE,1
CVOE updated,9,1,1,103,E 83,,,TRUE,CV,p,488,cv,E,3,v,v,TRUE,1
CVOE updated,9,1,1,104,D 43,,,FALSE,CV,q,459,cv,D,3,c,c,TRUE,1
CVOE updated,9,1,1,105,P 45,,,TRUE,CV,q,502,cv,P,5,c,c,TRUE,1
CVOE updated,9,1,1,106,J 17,,,TRUE,CV,q,420,cv,J,7,c,c,TRUE,1
CVOE_B,2,1,2,11,A 71,,,FALSE,CV,p,1063,cv,A,1,v,v,TRUE,1
CVOE_B,2,1,2,12,I 66,,,TRUE,CV,p,574,cv,I,6,v,v,TRUE,1
CVOE_B,2,1,2,13,S 30,,,FALSE,CV,q,481,cv,S,0,c,c,TRUE,1
CVOE_B,2,1,2,14,D 20,,,FALSE,CV,q,577,cv,D,0,c,c,TRUE,1
CVOE_B,2,1,2,15,I 31,,,FALSE,CV,p,621,cv,I,1,v,v,TRUE,1
CVOE_B,2,1,2,16,P 16,,,FALSE,CV,q,706,cv,P,6,c,c,TRUE,1
CVOE_B,2,1,2,17,A 49,,,FALSE,CV,p,583,cv,A,9,v,v,TRUE,1
CVOE_B,2,1,2,18,O 64,,,TRUE,CV,p,1661,cv,O,4,v,v,TRUE,1
CVOE_B,2,1,2,19,D 02,,,FALSE,CV,q,580,cv,D,2,c,c,TRUE,1
CVOE_B,2,1,2,20,P 81,,,TRUE,CV,q,1006,cv,P,1,c,c,TRUE,1
CVOE_B,2,1,2,21,J 58,,,FALSE,CV,q,537,cv,J,8,c,c,TRUE,1
CVOE_B,2,1,2,22,A 22,,,TRUE,CV,p,572,cv,A,2,v,v,TRUE,1
CVOE_B,2,1,2,23,J 72,,,FALSE,CV,q,505,cv,J,2,c,c,TRUE,1
CVOE_B,2,1,2,24,P 91,,,TRUE,CV,q,485,cv,P,1,c,c,TRUE,1
CVOE_B,2,1,2,25,E 19,,,FALSE,CV,p,414,cv,E,9,v,v,TRUE,1
CVOE_B,2,1,2,26,I 30,,,TRUE,CV,p,585,cv,I,0,v,v,TRUE,1
CVOE_B,2,1,2,27,D 91,,,TRUE,CV,q,414,cv,D,1,c,c,TRUE,1
CVOE_B,2,1,2,28,O 48,,,TRUE,CV,p,401,cv,O,8,v,v,TRUE,1
CVOE_B,2,1,2,29,A 89,,,FALSE,CV,p,578,cv,A,9,v,v,TRUE,1
CVOE_B,2,1,2,30,U 11,,,FALSE,CV,p,606,cv,U,1,v,v,TRUE,1
CVOE_B,2,1,2,31,I 76,,,TRUE,CV,p,485,cv,I,6,v,v,TRUE,1
CVOE_B,2,1,2,32,U 89,,,FALSE,CV,p,431,cv,U,9,v,v,TRUE,1
CVOE_B,2,1,2,33,D 63,,,TRUE,CV,q,443,cv,D,3,c,c,TRUE,1
CVOE_B,2,1,2,34,H 70,,,FALSE,CV,q,564,cv,H,0,c,c,TRUE,1
CVOE_B,2,1,2,35,D 48,,,FALSE,CV,q,508,cv,D,8,c,c,TRUE,1
CVOE_B,2,1,2,36,P 56,,,FALSE,CV,q,498,cv,P,6,c,c,TRUE,1
CVOE_B,2,1,2,37,O 77,,,FALSE,CV,p,445,cv,O,7,v,v,TRUE,1
CVOE_B,2,1,2,38,P 42,,,FALSE,CV,q,461,cv,P,2,c,c,TRUE,1
CVOE_B,2,1,2,39,H 22,,,FALSE,CV,q,443,cv,H,2,c,c,TRUE,1
CVOE_B,2,1,2,40,E 42,,,TRUE,CV,p,491,cv,E,2,v,v,TRUE,1
CVOE_B,2,1,2,41,J 28,,,FALSE,CV,q,663,cv,J,8,c,c,TRUE,1
CVOE_B,2,1,2,42,E 95,,,FALSE,CV,p,692,cv,E,5,v,v,TRUE,1
CVOE_B,2,1,2,43,S 63,,,TRUE,CV,q,559,cv,S,3,c,c,TRUE,1
CVOE_B,2,1,2,44,H 50,,,FALSE,CV,q,480,cv,H,0,c,c,TRUE,1
CVOE_B,2,1,2,45,S 33,,,TRUE,CV,q,408,cv,S,3,c,c,TRUE,1
CVOE_B,2,1,2,46,P 57,,,TRUE,CV,q,459,cv,P,7,c,c,TRUE,1
CVOE_B,2,1,2,47,E 23,,,FALSE,CV,p,543,cv,E,3,v,v,TRUE,1
CVOE_B,2,1,2,48,S 61,,,TRUE,CV,q,549,cv,S,1,c,c,TRUE,1
CVOE_B,2,1,2,49,U 67,,,FALSE,CV,p,602,cv,U,7,v,v,TRUE,1
CVOE_B,2,1,2,50,H 32,,,FALSE,CV,q,467,cv,H,2,c,c,TRUE,1
CVOE_B,2,1,2,51,U 50,,,TRUE,CV,p,593,cv,U,0,v,v,TRUE,1
CVOE_B,2,1,2,52,O 49,,,FALSE,CV,p,542,cv,O,9,v,v,TRUE,1
CVOE_B,2,1,2,53,U 32,,,TRUE,CV,p,516,cv,U,2,v,v,TRUE,1
CVOE_B,2,1,2,54,J 78,,,FALSE,CV,q,477,cv,J,8,c,c,TRUE,1
CVOE_B,2,1,2,55,S 54,,,FALSE,CV,q,500,cv,S,4,c,c,TRUE,1
CVOE_B,2,1,2,56,J 27,,,TRUE,CV,q,491,cv,J,7,c,c,TRUE,1
CVOE_B,2,1,2,57,S 06,,,FALSE,CV,q,437,cv,S,6,c,c,TRUE,1
CVOE_B,2,1,2,58,D 67,,,TRUE,CV,q,421,cv,D,7,c,c,TRUE,1
CVOE_B,2,1,2,59,A 79,,,FALSE,CV,p,563,cv,A,9,v,v,TRUE,1
CVOE_B,2,1,2,60,S 52,,,FALSE,CV,q,556,cv,S,2,c,c,TRUE,1
CVOE_B,2,1,2,61,U 16,,,TRUE,CV,p,581,cv,U,6,v,v,TRUE,1
CVOE_B,2,1,2,62,O 82,,,TRUE,CV,p,577,cv,O,2,v,v,TRUE,1
CVOE_B,2,1,2,63,H 87,,,TRUE,CV,q,582,cv,H,7,c,c,TRUE,1
CVOE_B,2,1,2,64,I 32,,,TRUE,CV,p,610,cv,I,2,v,v,TRUE,1
CVOE_B,2,1,2,65,U 37,,,FALSE,CV,q,598,cv,U,7,v,c,FALSE,0
CVOE_B,2,1,2,66,I 42,,,TRUE,CV,p,743,cv,I,2,v,v,TRUE,1
CVOE_B,2,1,2,67,D 65,,,TRUE,CV,q,517,cv,D,5,c,c,TRUE,1
CVOE_B,2,1,2,68,U 77,,,FALSE,CV,q,549,cv,U,7,v,c,FALSE,0
CVOE_B,2,1,2,69,E 12,,,TRUE,CV,p,530,cv,E,2,v,v,TRUE,1
CVOE_B,2,1,2,70,I 60,,,TRUE,CV,p,605,cv,I,0,v,v,TRUE,1
CVOE_B,2,1,2,71,J 36,,,FALSE,CV,q,542,cv,J,6,c,c,TRUE,1
CVOE_B,2,1,2,72,H 75,,,TRUE,CV,q,724,cv,H,5,c,c,TRUE,1
CVOE_B,2,1,2,73,I 50,,,TRUE,CV,p,588,cv,I,0,v,v,TRUE,1
CVOE_B,2,1,2,74,E 99,,,FALSE,CV,p,706,cv,E,9,v,v,TRUE,1
CVOE_B,2,1,2,75,A 86,,,TRUE,CV,p,527,cv,A,6,v,v,TRUE,1
CVOE_B,2,1,2,76,U 48,,,TRUE,CV,p,522,cv,U,8,v,v,TRUE,1
CVOE_B,2,1,2,77,E 01,,,FALSE,CV,p,468,cv,E,1,v,v,TRUE,1
CVOE_B,2,1,2,78,A 78,,,TRUE,CV,p,449,cv,A,8,v,v,TRUE,1
CVOE_B,2,1,2,79,P 60,,,FALSE,CV,q,476,cv,P,0,c,c,TRUE,1
CVOE_B,2,1,2,80,E 43,,,FALSE,CV,p,780,cv,E,3,v,v,TRUE,1
CVOE_B,2,1,2,81,D 69,,,TRUE,CV,q,538,cv,D,9,c,c,TRUE,1
CVOE_B,2,1,2,82,H 11,,,TRUE,CV,q,605,cv,H,1,c,c,TRUE,1
CVOE_B,2,1,2,83,P 43,,,TRUE,CV,q,830,cv,P,3,c,c,TRUE,1
CVOE_B,2,1,2,84,O 67,,,FALSE,CV,p,508,cv,O,7,v,v,TRUE,1
CVOE_B,2,1,2,85,S 91,,,FALSE,CV,q,497,cv,S,1,c,c,TRUE,1
CVOE_B,2,1,2,86,J 68,,,TRUE,CV,q,588,cv,J,8,c,c,TRUE,1
CVOE_B,2,1,2,87,S 47,,,FALSE,CV,q,497,cv,S,7,c,c,TRUE,1
CVOE_B,2,1,2,88,I 81,,,TRUE,CV,p,548,cv,I,1,v,v,TRUE,1
CVOE_B,2,1,2,89,J 39,,,FALSE,CV,q,443,cv,J,9,c,c,TRUE,1
CVOE_B,2,1,2,90,A 11,,,TRUE,CV,p,564,cv,A,1,v,v,TRUE,1
CVOE_B,2,1,2,91,O 76,,,FALSE,CV,p,540,cv,O,6,v,v,TRUE,1
CVOE_B,2,1,2,92,A 62,,,FALSE,CV,p,543,cv,A,2,v,v,TRUE,1
CVOE_B,2,1,2,93,O 27,,,TRUE,CV,p,541,cv,O,7,v,v,TRUE,1
CVOE_B,2,1,2,94,E 66,,,FALSE,CV,p,481,cv,E,6,v,v,TRUE,1
CVOE_B,2,1,2,95,J 62,,,TRUE,CV,q,459,cv,J,2,c,c,TRUE,1
CVOE_B,2,1,2,96,H 72,,,TRUE,CV,q,565,cv,H,2,c,c,TRUE,1
CVOE_B,2,1,2,97,E 49,,,TRUE,CV,p,750,cv,E,9,v,v,TRUE,1
CVOE_B,2,1,2,98,D 52,,,TRUE,CV,q,1780,cv,D,2,c,c,TRUE,1
CVOE_B,2,1,2,99,H 62,,,TRUE,CV,q,482,cv,H,2,c,c,TRUE,1
CVOE_B,2,1,2,100,I 11,,,TRUE,CV,p,507,cv,I,1,v,v,TRUE,1
CVOE_B,2,1,2,101,A 98,,,FALSE,CV,p,472,cv,A,8,v,v,TRUE,1
CVOE_B,2,1,2,102,H 29,,,FALSE,CV,q,557,cv,H,9,c,c,TRUE,1
CVOE_B,2,1,2,103,E 83,,,TRUE,CV,p,502,cv,E,3,v,v,TRUE,1
CVOE_B,2,1,2,104,D 43,,,FALSE,CV,q,548,cv,D,3,c,c,TRUE,1
CVOE_B,2,1,2,105,P 45,,,TRUE,CV,q,634,cv,P,5,c,c,TRUE,1
CVOE_B,2,1,2,106,J 17,,,TRUE,CV,q,481,cv,J,7,c,c,TRUE,1
CVOE_B,10,1,2,11,A 71,,,FALSE,CV,p,1228,cv,A,1,v,v,TRUE,1
CVOE_B,10,1,2,12,I 66,,,TRUE,CV,p,930,cv,I,6,v,v,TRUE,1
CVOE_B,10,1,2,13,S 30,,,FALSE,CV,q,950,cv,S,0,c,c,TRUE,1
CVOE_B,10,1,2,14,D 20,,,FALSE,CV,q,643,cv,D,0,c,c,TRUE,1
CVOE_B,10,1,2,15,I 31,,,FALSE,CV,p,732,cv,I,1,v,v,TRUE,1
CVOE_B,10,1,2,16,P 16,,,FALSE,CV,q,1455,cv,P,6,c,c,TRUE,1
CVOE_B,10,1,2,17,A 49,,,FALSE,CV,p,658,cv,A,9,v,v,TRUE,1
CVOE_B,10,1,2,18,O 64,,,TRUE,CV,p,758,cv,O,4,v,v,TRUE,1
CVOE_B,10,1,2,19,D 02,,,FALSE,CV,q,694,cv,D,2,c,c,TRUE,1
CVOE_B,10,1,2,20,P 81,,,TRUE,CV,p,577,cv,P,1,c,v,FALSE,0
CVOE_B,10,1,2,21,J 58,,,FALSE,CV,q,1428,cv,J,8,c,c,TRUE,1
CVOE_B,10,1,2,22,A 22,,,TRUE,CV,p,610,cv,A,2,v,v,TRUE,1
CVOE_B,10,1,2,23,J 72,,,FALSE,CV,q,533,cv,J,2,c,c,TRUE,1
CVOE_B,10,1,2,24,P 91,,,TRUE,CV,q,696,cv,P,1,c,c,TRUE,1
CVOE_B,10,1,2,25,E 19,,,FALSE,CV,p,780,cv,E,9,v,v,TRUE,1
CVOE_B,10,1,2,26,I 30,,,TRUE,CV,p,1223,cv,I,0,v,v,TRUE,1
CVOE_B,10,1,2,27,D 91,,,TRUE,CV,q,557,cv,D,1,c,c,TRUE,1
CVOE_B,10,1,2,28,O 48,,,TRUE,CV,p,1861,cv,O,8,v,v,TRUE,1
CVOE_B,10,1,2,29,A 89,,,FALSE,CV,p,651,cv,A,9,v,v,TRUE,1
CVOE_B,10,1,2,30,U 11,,,FALSE,CV,p,822,cv,U,1,v,v,TRUE,1
CVOE_B,10,1,2,31,I 76,,,TRUE,CV,p,652,cv,I,6,v,v,TRUE,1
CVOE_B,10,1,2,32,U 89,,,FALSE,CV,p,815,cv,U,9,v,v,TRUE,1
CVOE_B,10,1,2,33,D 63,,,TRUE,CV,q,603,cv,D,3,c,c,TRUE,1
CVOE_B,10,1,2,34,H 70,,,FALSE,CV,q,731,cv,H,0,c,c,TRUE,1
CVOE_B,10,1,2,35,D 48,,,FALSE,CV,q,630,cv,D,8,c,c,TRUE,1
CVOE_B,10,1,2,36,P 56,,,FALSE,CV,q,404,cv,P,6,c,c,TRUE,1
CVOE_B,10,1,2,37,O 77,,,FALSE,CV,p,948,cv,O,7,v,v,TRUE,1
CVOE_B,10,1,2,38,P 42,,,FALSE,CV,q,674,cv,P,2,c,c,TRUE,1
CVOE_B,10,1,2,39,H 22,,,FALSE,CV,q,1475,cv,H,2,c,c,TRUE,1
CVOE_B,10,1,2,40,E 42,,,TRUE,CV,p,555,cv,E,2,v,v,TRUE,1
CVOE_B,10,1,2,41,J 28,,,FALSE,CV,q,460,cv,J,8,c,c,TRUE,1
CVOE_B,10,1,2,42,E 95,,,FALSE,CV,p,679,cv,E,5,v,v,TRUE,1
CVOE_B,10,1,2,43,S 63,,,TRUE,CV,q,335,cv,S,3,c,c,TRUE,1
CVOE_B,10,1,2,44,H 50,,,FALSE,CV,q,554,cv,H,0,c,c,TRUE,1
CVOE_B,10,1,2,45,S 33,,,TRUE,CV,q,579,cv,S,3,c,c,TRUE,1
CVOE_B,10,1,2,46,P 57,,,TRUE,CV,q,574,cv,P,7,c,c,TRUE,1
CVOE_B,10,1,2,47,E 23,,,FALSE,CV,p,601,cv,E,3,v,v,TRUE,1
CVOE_B,10,1,2,48,S 61,,,TRUE,CV,q,697,cv,S,1,c,c,TRUE,1
CVOE_B,10,1,2,49,U 67,,,FALSE,CV,p,700,cv,U,7,v,v,TRUE,1
CVOE_B,10,1,2,50,H 32,,,FALSE,CV,q,600,cv,H,2,c,c,TRUE,1
CVOE_B,10,1,2,51,U 50,,,TRUE,CV,p,336,cv,U,0,v,v,TRUE,1
CVOE_B,10,1,2,52,O 49,,,FALSE,CV,p,1555,cv,O,9,v,v,TRUE,1
CVOE_B,10,1,2,53,U 32,,,TRUE,CV,p,580,cv,U,2,v,v,TRUE,1
CVOE_B,10,1,2,54,J 78,,,FALSE,CV,q,623,cv,J,8,c,c,TRUE,1
CVOE_B,10,1,2,55,S 54,,,FALSE,CV,q,613,cv,S,4,c,c,TRUE,1
CVOE_B,10,1,2,56,J 27,,,TRUE,CV,q,608,cv,J,7,c,c,TRUE,1
CVOE_B,10,1,2,57,S 06,,,FALSE,CV,q,1251,cv,S,6,c,c,TRUE,1
CVOE_B,10,1,2,58,D 67,,,TRUE,CV,q,1094,cv,D,7,c,c,TRUE,1
CVOE_B,10,1,2,59,A 79,,,FALSE,CV,p,513,cv,A,9,v,v,TRUE,1
CVOE_B,10,1,2,60,S 52,,,FALSE,CV,q,535,cv,S,2,c,c,TRUE,1
CVOE_B,10,1,2,61,U 16,,,TRUE,CV,p,1610,cv,U,6,v,v,TRUE,1
CVOE_B,10,1,2,62,O 82,,,TRUE,CV,p,1174,cv,O,2,v,v,TRUE,1
CVOE_B,10,1,2,63,H 87,,,TRUE,CV,q,801,cv,H,7,c,c,TRUE,1
CVOE_B,10,1,2,64,I 32,,,TRUE,CV,p,489,cv,I,2,v,v,TRUE,1
CVOE_B,10,1,2,65,U 37,,,FALSE,CV,p,541,cv,U,7,v,v,TRUE,1
CVOE_B,10,1,2,66,I 42,,,TRUE,CV,p,522,cv,I,2,v,v,TRUE,1
CVOE_B,10,1,2,67,D 65,,,TRUE,CV,q,939,cv,D,5,c,c,TRUE,1
CVOE_B,10,1,2,68,U 77,,,FALSE,CV,p,2078,cv,U,7,v,v,TRUE,1
CVOE_B,10,1,2,69,E 12,,,TRUE,CV,p,439,cv,E,2,v,v,TRUE,1
CVOE_B,10,1,2,70,I 60,,,TRUE,CV,p,375,cv,I,0,v,v,TRUE,1
CVOE_B,10,1,2,71,J 36,,,FALSE,CV,q,586,cv,J,6,c,c,TRUE,1
CVOE_B,10,1,2,72,H 75,,,TRUE,CV,q,640,cv,H,5,c,c,TRUE,1
CVOE_B,10,1,2,73,I 50,,,TRUE,CV,p,664,cv,I,0,v,v,TRUE,1
CVOE_B,10,1,2,74,E 99,,,FALSE,CV,p,2926,cv,E,9,v,v,TRUE,1
CVOE_B,10,1,2,75,A 86,,,TRUE,CV,p,720,cv,A,6,v,v,TRUE,1
CVOE_B,10,1,2,76,U 48,,,TRUE,CV,p,752,cv,U,8,v,v,TRUE,1
CVOE_B,10,1,2,77,E 01,,,FALSE,CV,p,574,cv,E,1,v,v,TRUE,1
CVOE_B,10,1,2,78,A 78,,,TRUE,CV,p,409,cv,A,8,v,v,TRUE,1
CVOE_B,10,1,2,79,P 60,,,FALSE,CV,q,588,cv,P,0,c,c,TRUE,1
CVOE_B,10,1,2,80,E 43,,,FALSE,CV,p,538,cv,E,3,v,v,TRUE,1
CVOE_B,10,1,2,81,D 69,,,TRUE,CV,q,1317,cv,D,9,c,c,TRUE,1
CVOE_B,10,1,2,82,H 11,,,TRUE,CV,q,637,cv,H,1,c,c,TRUE,1
CVOE_B,10,1,2,83,P 43,,,TRUE,CV,q,534,cv,P,3,c,c,TRUE,1
CVOE_B,10,1,2,84,O 67,,,FALSE,CV,p,433,cv,O,7,v,v,TRUE,1
CVOE_B,10,1,2,85,S 91,,,FALSE,CV,q,599,cv,S,1,c,c,TRUE,1
CVOE_B,10,1,2,86,J 68,,,TRUE,CV,q,647,cv,J,8,c,c,TRUE,1
CVOE_B,10,1,2,87,S 47,,,FALSE,CV,q,903,cv,S,7,c,c,TRUE,1
CVOE_B,10,1,2,88,I 81,,,TRUE,CV,p,629,cv,I,1,v,v,TRUE,1
CVOE_B,10,1,2,89,J 39,,,FALSE,CV,q,2691,cv,J,9,c,c,TRUE,1
CVOE_B,10,1,2,90,A 11,,,TRUE,CV,p,359,cv,A,1,v,v,TRUE,1
CVOE_B,10,1,2,91,O 76,,,FALSE,CV,p,343,cv,O,6,v,v,TRUE,1
CVOE_B,10,1,2,92,A 62,,,FALSE,CV,p,629,cv,A,2,v,v,TRUE,1
CVOE_B,10,1,2,93,O 27,,,TRUE,CV,p,1347,cv,O,7,v,v,TRUE,1
CVOE_B,10,1,2,94,E 66,,,FALSE,CV,p,1249,cv,E,6,v,v,TRUE,1
CVOE_B,10,1,2,95,J 62,,,TRUE,CV,q,476,cv,J,2,c,c,TRUE,1
CVOE_B,10,1,2,96,H 72,,,TRUE,CV,q,549,cv,H,2,c,c,TRUE,1
CVOE_B,10,1,2,97,E 49,,,TRUE,CV,p,762,cv,E,9,v,v,TRUE,1
CVOE_B,10,1,2,98,D 52,,,TRUE,CV,q,747,cv,D,2,c,c,TRUE,1
CVOE_B,10,1,2,99,H 62,,,TRUE,CV,q,673,cv,H,2,c,c,TRUE,1
CVOE_B,10,1,2,100,I 11,,,TRUE,CV,p,1182,cv,I,1,v,v,TRUE,1
CVOE_B,10,1,2,101,A 98,,,FALSE,CV,p,580,cv,A,8,v,v,TRUE,1
CVOE_B,10,1,2,102,H 29,,,FALSE,CV,q,631,cv,H,9,c,c,TRUE,1
CVOE_B,10,1,2,103,E 83,,,TRUE,CV,p,437,cv,E,3,v,v,TRUE,1
CVOE_B,10,1,2,104,D 43,,,FALSE,CV,q,694,cv,D,3,c,c,TRUE,1
CVOE_B,10,1,2,105,P 45,,,TRUE,CV,q,2057,cv,P,5,c,c,TRUE,1
CVOE_B,10,1,2,106,J 17,,,TRUE,CV,q,524,cv,J,7,c,c,TRUE,1
CVOE_B,6,1,2,11,A 71,,,FALSE,CV,p,5563,cv,A,1,v,v,TRUE,1
CVOE_B,6,1,2,12,I 66,,,TRUE,CV,p,1477,cv,I,6,v,v,TRUE,1
CVOE_B,6,1,2,13,S 30,,,FALSE,CV,q,894,cv,S,0,c,c,TRUE,1
CVOE_B,6,1,2,14,D 20,,,FALSE,CV,q,1961,cv,D,0,c,c,TRUE,1
CVOE_B,6,1,2,15,I 31,,,FALSE,CV,p,978,cv,I,1,v,v,TRUE,1
CVOE_B,6,1,2,16,P 16,,,FALSE,CV,q,885,cv,P,6,c,c,TRUE,1
CVOE_B,6,1,2,17,A 49,,,FALSE,CV,p,934,cv,A,9,v,v,TRUE,1
CVOE_B,6,1,2,18,O 64,,,TRUE,CV,p,721,cv,O,4,v,v,TRUE,1
CVOE_B,6,1,2,19,D 02,,,FALSE,CV,q,770,cv,D,2,c,c,TRUE,1
CVOE_B,6,1,2,20,P 81,,,TRUE,CV,q,805,cv,P,1,c,c,TRUE,1
CVOE_B,6,1,2,21,J 58,,,FALSE,CV,q,749,cv,J,8,c,c,TRUE,1
CVOE_B,6,1,2,22,A 22,,,TRUE,CV,p,763,cv,A,2,v,v,TRUE,1
CVOE_B,6,1,2,23,J 72,,,FALSE,CV,q,972,cv,J,2,c,c,TRUE,1
CVOE_B,6,1,2,24,P 91,,,TRUE,CV,q,1671,cv,P,1,c,c,TRUE,1
CVOE_B,6,1,2,25,E 19,,,FALSE,CV,p,773,cv,E,9,v,v,TRUE,1
CVOE_B,6,1,2,26,I 30,,,TRUE,CV,p,936,cv,I,0,v,v,TRUE,1
CVOE_B,6,1,2,27,D 91,,,TRUE,CV,q,675,cv,D,1,c,c,TRUE,1
CVOE_B,6,1,2,28,O 48,,,TRUE,CV,p,892,cv,O,8,v,v,TRUE,1
CVOE_B,6,1,2,29,A 89,,,FALSE,CV,p,807,cv,A,9,v,v,TRUE,1
CVOE_B,6,1,2,30,U 11,,,FALSE,CV,p,882,cv,U,1,v,v,TRUE,1
CVOE_B,6,1,2,31,I 76,,,TRUE,CV,p,715,cv,I,6,v,v,TRUE,1
CVOE_B,6,1,2,32,U 89,,,FALSE,CV,p,859,cv,U,9,v,v,TRUE,1
CVOE_B,6,1,2,33,D 63,,,TRUE,CV,q,654,cv,D,3,c,c,TRUE,1
CVOE_B,6,1,2,34,H 70,,,FALSE,CV,q,1257,cv,H,0,c,c,TRUE,1
CVOE_B,6,1,2,35,D 48,,,FALSE,CV,q,1205,cv,D,8,c,c,TRUE,1
CVOE_B,6,1,2,36,P 56,,,FALSE,CV,q,1117,cv,P,6,c,c,TRUE,1
CVOE_B,6,1,2,37,O 77,,,FALSE,CV,p,606,cv,O,7,v,v,TRUE,1
CVOE_B,6,1,2,38,P 42,,,FALSE,CV,q,1230,cv,P,2,c,c,TRUE,1
CVOE_B,6,1,2,39,H 22,,,FALSE,CV,q,2244,cv,H,2,c,c,TRUE,1
CVOE_B,6,1,2,40,E 42,,,TRUE,CV,p,654,cv,E,2,v,v,TRUE,1
CVOE_B,6,1,2,41,J 28,,,FALSE,CV,q,657,cv,J,8,c,c,TRUE,1
CVOE_B,6,1,2,42,E 95,,,FALSE,CV,p,604,cv,E,5,v,v,TRUE,1
CVOE_B,6,1,2,43,S 63,,,TRUE,CV,q,668,cv,S,3,c,c,TRUE,1
CVOE_B,6,1,2,44,H 50,,,FALSE,CV,q,746,cv,H,0,c,c,TRUE,1
CVOE_B,6,1,2,45,S 33,,,TRUE,CV,p,696,cv,S,3,c,v,FALSE,0
CVOE_B,6,1,2,46,P 57,,,TRUE,CV,q,3707,cv,P,7,c,c,TRUE,1
CVOE_B,6,1,2,47,E 23,,,FALSE,CV,p,850,cv,E,3,v,v,TRUE,1
CVOE_B,6,1,2,48,S 61,,,TRUE,CV,q,2413,cv,S,1,c,c,TRUE,1
CVOE_B,6,1,2,49,U 67,,,FALSE,CV,p,761,cv,U,7,v,v,TRUE,1
CVOE_B,6,1,2,50,H 32,,,FALSE,CV,q,913,cv,H,2,c,c,TRUE,1
CVOE_B,6,1,2,51,U 50,,,TRUE,CV,p,679,cv,U,0,v,v,TRUE,1
CVOE_B,6,1,2,52,O 49,,,FALSE,CV,p,920,cv,O,9,v,v,TRUE,1
CVOE_B,6,1,2,53,U 32,,,TRUE,CV,p,688,cv,U,2,v,v,TRUE,1
CVOE_B,6,1,2,54,J 78,,,FALSE,CV,q,747,cv,J,8,c,c,TRUE,1
CVOE_B,6,1,2,55,S 54,,,FALSE,CV,q,881,cv,S,4,c,c,TRUE,1
CVOE_B,6,1,2,56,J 27,,,TRUE,CV,q,762,cv,J,7,c,c,TRUE,1
CVOE_B,6,1,2,57,S 06,,,FALSE,CV,q,906,cv,S,6,c,c,TRUE,1
CVOE_B,6,1,2,58,D 67,,,TRUE,CV,q,744,cv,D,7,c,c,TRUE,1
CVOE_B,6,1,2,59,A 79,,,FALSE,CV,p,766,cv,A,9,v,v,TRUE,1
CVOE_B,6,1,2,60,S 52,,,FALSE,CV,q,894,cv,S,2,c,c,TRUE,1
CVOE_B,6,1,2,61,U 16,,,TRUE,CV,p,874,cv,U,6,v,v,TRUE,1
CVOE_B,6,1,2,62,O 82,,,TRUE,CV,p,1402,cv,O,2,v,v,TRUE,1
CVOE_B,6,1,2,63,H 87,,,TRUE,CV,q,779,cv,H,7,c,c,TRUE,1
CVOE_B,6,1,2,64,I 32,,,TRUE,CV,p,894,cv,I,2,v,v,TRUE,1
CVOE_B,6,1,2,65,U 37,,,FALSE,CV,p,752,cv,U,7,v,v,TRUE,1
CVOE_B,6,1,2,66,I 42,,,TRUE,CV,p,2095,cv,I,2,v,v,TRUE,1
CVOE_B,6,1,2,67,D 65,,,TRUE,CV,q,875,cv,D,5,c,c,TRUE,1
CVOE_B,6,1,2,68,U 77,,,FALSE,CV,p,691,cv,U,7,v,v,TRUE,1
CVOE_B,6,1,2,69,E 12,,,TRUE,CV,p,758,cv,E,2,v,v,TRUE,1
CVOE_B,6,1,2,70,I 60,,,TRUE,CV,p,783,cv,I,0,v,v,TRUE,1
CVOE_B,6,1,2,71,J 36,,,FALSE,CV,q,741,cv,J,6,c,c,TRUE,1
CVOE_B,6,1,2,72,H 75,,,TRUE,CV,q,802,cv,H,5,c,c,TRUE,1
CVOE_B,6,1,2,73,I 50,,,TRUE,CV,p,675,cv,I,0,v,v,TRUE,1
CVOE_B,6,1,2,74,E 99,,,FALSE,CV,p,907,cv,E,9,v,v,TRUE,1
CVOE_B,6,1,2,75,A 86,,,TRUE,CV,p,873,cv,A,6,v,v,TRUE,1
CVOE_B,6,1,2,76,U 48,,,TRUE,CV,p,791,cv,U,8,v,v,TRUE,1
CVOE_B,6,1,2,77,E 01,,,FALSE,CV,p,693,cv,E,1,v,v,TRUE,1
CVOE_B,6,1,2,78,A 78,,,TRUE,CV,p,752,cv,A,8,v,v,TRUE,1
CVOE_B,6,1,2,79,P 60,,,FALSE,CV,q,814,cv,P,0,c,c,TRUE,1
CVOE_B,6,1,2,80,E 43,,,FALSE,CV,p,673,cv,E,3,v,v,TRUE,1
CVOE_B,6,1,2,81,D 69,,,TRUE,CV,q,1798,cv,D,9,c,c,TRUE,1
CVOE_B,6,1,2,82,H 11,,,TRUE,CV,q,935,cv,H,1,c,c,TRUE,1
CVOE_B,6,1,2,83,P 43,,,TRUE,CV,q,955,cv,P,3,c,c,TRUE,1
CVOE_B,6,1,2,84,O 67,,,FALSE,CV,p,660,cv,O,7,v,v,TRUE,1
CVOE_B,6,1,2,85,S 91,,,FALSE,CV,q,678,cv,S,1,c,c,TRUE,1
CVOE_B,6,1,2,86,J 68,,,TRUE,CV,q,1574,cv,J,8,c,c,TRUE,1
CVOE_B,6,1,2,87,S 47,,,FALSE,CV,q,499,cv,S,7,c,c,TRUE,1
CVOE_B,6,1,2,88,I 81,,,TRUE,CV,p,678,cv,I,1,v,v,TRUE,1
CVOE_B,6,1,2,89,J 39,,,FALSE,CV,q,806,cv,J,9,c,c,TRUE,1
CVOE_B,6,1,2,90,A 11,,,TRUE,CV,p,663,cv,A,1,v,v,TRUE,1
CVOE_B,6,1,2,91,O 76,,,FALSE,CV,p,1491,cv,O,6,v,v,TRUE,1
CVOE_B,6,1,2,92,A 62,,,FALSE,CV,p,720,cv,A,2,v,v,TRUE,1
CVOE_B,6,1,2,93,O 27,,,TRUE,CV,p,920,cv,O,7,v,v,TRUE,1
CVOE_B,6,1,2,94,E 66,,,FALSE,CV,p,641,cv,E,6,v,v,TRUE,1
CVOE_B,6,1,2,95,J 62,,,TRUE,CV,q,769,cv,J,2,c,c,TRUE,1
CVOE_B,6,1,2,96,H 72,,,TRUE,CV,q,620,cv,H,2,c,c,TRUE,1
CVOE_B,6,1,2,97,E 49,,,TRUE,CV,p,530,cv,E,9,v,v,TRUE,1
CVOE_B,6,1,2,98,D 52,,,TRUE,CV,q,653,cv,D,2,c,c,TRUE,1
CVOE_B,6,1,2,99,H 62,,,TRUE,CV,q,568,cv,H,2,c,c,TRUE,1
CVOE_B,6,1,2,100,I 11,,,TRUE,CV,p,660,cv,I,1,v,v,TRUE,1
CVOE_B,6,1,2,101,A 98,,,FALSE,CV,p,1054,cv,A,8,v,v,TRUE,1
CVOE_B,6,1,2,102,H 29,,,FALSE,CV,q,890,cv,H,9,c,c,TRUE,1
CVOE_B,6,1,2,103,E 83,,,TRUE,CV,p,789,cv,E,3,v,v,TRUE,1
CVOE_B,6,1,2,104,D 43,,,FALSE,CV,q,1587,cv,D,3,c,c,TRUE,1
CVOE_B,6,1,2,105,P 45,,,TRUE,CV,q,681,cv,P,5,c,c,TRUE,1
CVOE_B,6,1,2,106,J 17,,,TRUE,CV,q,546,cv,J,7,c,c,TRUE,1
CVOE_C,3,1,2,11,A 71,,,FALSE,CV,p,5876,cv,A,1,v,v,TRUE,1
CVOE_C,3,1,2,12,I 66,,,TRUE,CV,p,678,cv,I,6,v,v,TRUE,1
CVOE_C,3,1,2,13,S 30,,,FALSE,CV,q,743,cv,S,0,c,c,TRUE,1
CVOE_C,3,1,2,14,D 20,,,FALSE,CV,q,765,cv,D,0,c,c,TRUE,1
CVOE_C,3,1,2,15,I 31,,,FALSE,CV,p,533,cv,I,1,v,v,TRUE,1
CVOE_C,3,1,2,16,P 16,,,FALSE,CV,q,568,cv,P,6,c,c,TRUE,1
CVOE_C,3,1,2,17,A 49,,,FALSE,CV,p,643,cv,A,9,v,v,TRUE,1
CVOE_C,3,1,2,18,O 64,,,TRUE,CV,p,524,cv,O,4,v,v,TRUE,1
CVOE_C,3,1,2,19,D 02,,,FALSE,CV,q,532,cv,D,2,c,c,TRUE,1
CVOE_C,3,1,2,20,P 81,,,TRUE,CV,q,871,cv,P,1,c,c,TRUE,1
CVOE_C,3,1,2,21,J 58,,,FALSE,CV,q,797,cv,J,8,c,c,TRUE,1
CVOE_C,3,1,2,22,A 22,,,TRUE,CV,p,557,cv,A,2,v,v,TRUE,1
CVOE_C,3,1,2,23,J 72,,,FALSE,CV,q,678,cv,J,2,c,c,TRUE,1
CVOE_C,3,1,2,24,P 91,,,TRUE,CV,q,454,cv,P,1,c,c,TRUE,1
CVOE_C,3,1,2,25,E 19,,,FALSE,CV,p,513,cv,E,9,v,v,TRUE,1
CVOE_C,3,1,2,26,I 30,,,TRUE,CV,p,482,cv,I,0,v,v,TRUE,1
CVOE_C,3,1,2,27,D 91,,,TRUE,CV,q,378,cv,D,1,c,c,TRUE,1
CVOE_C,3,1,2,28,O 48,,,TRUE,CV,p,589,cv,O,8,v,v,TRUE,1
CVOE_C,3,1,2,29,A 89,,,FALSE,CV,p,531,cv,A,9,v,v,TRUE,1
CVOE_C,3,1,2,30,U 11,,,FALSE,CV,q,382,cv,U,1,v,c,FALSE,0
CVOE_C,3,1,2,31,I 76,,,TRUE,CV,p,684,cv,I,6,v,v,TRUE,1
CVOE_C,3,1,2,32,U 89,,,FALSE,CV,p,380,cv,U,9,v,v,TRUE,1
CVOE_C,3,1,2,33,D 63,,,TRUE,CV,q,562,cv,D,3,c,c,TRUE,1
CVOE_C,3,1,2,34,H 70,,,FALSE,CV,q,874,cv,H,0,c,c,TRUE,1
CVOE_C,3,1,2,35,D 48,,,FALSE,CV,q,475,cv,D,8,c,c,TRUE,1
CVOE_C,3,1,2,36,P 56,,,FALSE,CV,q,475,cv,P,6,c,c,TRUE,1
CVOE_C,3,1,2,37,O 77,,,FALSE,CV,p,643,cv,O,7,v,v,TRUE,1
CVOE_C,3,1,2,38,P 42,,,FALSE,CV,q,804,cv,P,2,c,c,TRUE,1
CVOE_C,3,1,2,39,H 22,,,FALSE,CV,q,484,cv,H,2,c,c,TRUE,1
CVOE_C,3,1,2,40,E 42,,,TRUE,CV,p,485,cv,E,2,v,v,TRUE,1
CVOE_C,3,1,2,41,J 28,,,FALSE,CV,q,389,cv,J,8,c,c,TRUE,1
CVOE_C,3,1,2,42,E 95,,,FALSE,CV,q,491,cv,E,5,v,c,FALSE,0
CVOE_C,3,1,2,43,S 63,,,TRUE,CV,q,814,cv,S,3,c,c,TRUE,1
CVOE_C,3,1,2,44,H 50,,,FALSE,CV,q,521,cv,H,0,c,c,TRUE,1
CVOE_C,3,1,2,45,S 33,,,TRUE,CV,q,985,cv,S,3,c,c,TRUE,1
CVOE_C,3,1,2,46,P 57,,,TRUE,CV,q,543,cv,P,7,c,c,TRUE,1
CVOE_C,3,1,2,47,E 23,,,FALSE,CV,p,901,cv,E,3,v,v,TRUE,1
CVOE_C,3,1,2,48,S 61,,,TRUE,CV,q,763,cv,S,1,c,c,TRUE,1
CVOE_C,3,1,2,49,U 67,,,FALSE,CV,p,771,cv,U,7,v,v,TRUE,1
CVOE_C,3,1,2,50,H 32,,,FALSE,CV,q,607,cv,H,2,c,c,TRUE,1
CVOE_C,3,1,2,51,U 50,,,TRUE,CV,p,498,cv,U,0,v,v,TRUE,1
CVOE_C,3,1,2,52,O 49,,,FALSE,CV,p,469,cv,O,9,v,v,TRUE,1
CVOE_C,3,1,2,53,U 32,,,TRUE,CV,p,434,cv,U,2,v,v,TRUE,1
CVOE_C,3,1,2,54,J 78,,,FALSE,CV,q,667,cv,J,8,c,c,TRUE,1
CVOE_C,3,1,2,55,S 54,,,FALSE,CV,q,849,cv,S,4,c,c,TRUE,1
CVOE_C,3,1,2,56,J 27,,,TRUE,CV,q,612,cv,J,7,c,c,TRUE,1
CVOE_C,3,1,2,57,S 06,,,FALSE,CV,q,759,cv,S,6,c,c,TRUE,1
CVOE_C,3,1,2,58,D 67,,,TRUE,CV,q,1023,cv,D,7,c,c,TRUE,1
CVOE_C,3,1,2,59,A 79,,,FALSE,CV,p,701,cv,A,9,v,v,TRUE,1
CVOE_C,3,1,2,60,S 52,,,FALSE,CV,q,1147,cv,S,2,c,c,TRUE,1
CVOE_C,3,1,2,61,U 16,,,TRUE,CV,p,593,cv,U,6,v,v,TRUE,1
CVOE_C,3,1,2,62,O 82,,,TRUE,CV,p,434,cv,O,2,v,v,TRUE,1
CVOE_C,3,1,2,63,H 87,,,TRUE,CV,q,474,cv,H,7,c,c,TRUE,1
CVOE_C,3,1,2,64,I 32,,,TRUE,CV,p,586,cv,I,2,v,v,TRUE,1
CVOE_C,3,1,2,65,U 37,,,FALSE,CV,p,496,cv,U,7,v,v,TRUE,1
CVOE_C,3,1,2,66,I 42,,,TRUE,CV,p,483,cv,I,2,v,v,TRUE,1
CVOE_C,3,1,2,67,D 65,,,TRUE,CV,q,603,cv,D,5,c,c,TRUE,1
CVOE_C,3,1,2,68,U 77,,,FALSE,CV,p,604,cv,U,7,v,v,TRUE,1
CVOE_C,3,1,2,69,E 12,,,TRUE,CV,p,492,cv,E,2,v,v,TRUE,1
CVOE_C,3,1,2,70,I 60,,,TRUE,CV,p,383,cv,I,0,v,v,TRUE,1
CVOE_C,3,1,2,71,J 36,,,FALSE,CV,q,541,cv,J,6,c,c,TRUE,1
CVOE_C,3,1,2,72,H 75,,,TRUE,CV,q,555,cv,H,5,c,c,TRUE,1
CVOE_C,3,1,2,73,I 50,,,TRUE,CV,p,459,cv,I,0,v,v,TRUE,1
CVOE_C,3,1,2,74,E 99,,,FALSE,CV,q,446,cv,E,9,v,c,FALSE,0
CVOE_C,3,1,2,75,A 86,,,TRUE,CV,p,519,cv,A,6,v,v,TRUE,1
CVOE_C,3,1,2,76,U 48,,,TRUE,CV,p,367,cv,U,8,v,v,TRUE,1
CVOE_C,3,1,2,77,E 01,,,FALSE,CV,p,370,cv,E,1,v,v,TRUE,1
CVOE_C,3,1,2,78,A 78,,,TRUE,CV,p,1013,cv,A,8,v,v,TRUE,1
CVOE_C,3,1,2,79,P 60,,,FALSE,CV,q,728,cv,P,0,c,c,TRUE,1
CVOE_C,3,1,2,80,E 43,,,FALSE,CV,p,619,cv,E,3,v,v,TRUE,1
CVOE_C,3,1,2,81,D 69,,,TRUE,CV,q,646,cv,D,9,c,c,TRUE,1
CVOE_C,3,1,2,82,H 11,,,TRUE,CV,q,634,cv,H,1,c,c,TRUE,1
CVOE_C,3,1,2,83,P 43,,,TRUE,CV,q,586,cv,P,3,c,c,TRUE,1
CVOE_C,3,1,2,84,O 67,,,FALSE,CV,p,536,cv,O,7,v,v,TRUE,1
CVOE_C,3,1,2,85,S 91,,,FALSE,CV,q,467,cv,S,1,c,c,TRUE,1
CVOE_C,3,1,2,86,J 68,,,TRUE,CV,q,441,cv,J,8,c,c,TRUE,1
CVOE_C,3,1,2,87,S 47,,,FALSE,CV,q,353,cv,S,7,c,c,TRUE,1
CVOE_C,3,1,2,88,I 81,,,TRUE,CV,p,511,cv,I,1,v,v,TRUE,1
CVOE_C,3,1,2,89,J 39,,,FALSE,CV,q,484,cv,J,9,c,c,TRUE,1
CVOE_C,3,1,2,90,A 11,,,TRUE,CV,p,509,cv,A,1,v,v,TRUE,1
CVOE_C,3,1,2,91,O 76,,,FALSE,CV,p,490,cv,O,6,v,v,TRUE,1
CVOE_C,3,1,2,92,A 62,,,FALSE,CV,p,406,cv,A,2,v,v,TRUE,1
CVOE_C,3,1,2,93,O 27,,,TRUE,CV,p,342,cv,O,7,v,v,TRUE,1
CVOE_C,3,1,2,94,E 66,,,FALSE,CV,p,420,cv,E,6,v,v,TRUE,1
CVOE_C,3,1,2,95,J 62,,,TRUE,CV,q,647,cv,J,2,c,c,TRUE,1
CVOE_C,3,1,2,96,H 72,,,TRUE,CV,p,530,cv,H,2,c,v,FALSE,0
CVOE_C,3,1,2,97,E 49,,,TRUE,CV,p,973,cv,E,9,v,v,TRUE,1
CVOE_C,3,1,2,98,D 52,,,TRUE,CV,q,648,cv,D,2,c,c,TRUE,1
CVOE_C,3,1,2,99,H 62,,,TRUE,CV,q,451,cv,H,2,c,c,TRUE,1
CVOE_C,3,1,2,100,I 11,,,TRUE,CV,p,694,cv,I,1,v,v,TRUE,1
CVOE_C,3,1,2,101,A 98,,,FALSE,CV,p,425,cv,A,8,v,v,TRUE,1
CVOE_C,3,1,2,102,H 29,,,FALSE,CV,q,559,cv,H,9,c,c,TRUE,1
CVOE_C,3,1,2,103,E 83,,,TRUE,CV,q,479,cv,E,3,v,c,FALSE,0
CVOE_C,3,1,2,104,D 43,,,FALSE,CV,q,1089,cv,D,3,c,c,TRUE,1
CVOE_C,3,1,2,105,P 45,,,TRUE,CV,q,555,cv,P,5,c,c,TRUE,1
CVOE_C,3,1,2,106,J 17,,,TRUE,CV,q,459,cv,J,7,c,c,TRUE,1
CVOE_C,11,1,2,11,A 71,,,FALSE,CV,p,2185,cv,A,1,v,v,TRUE,1
CVOE_C,11,1,2,12,I 66,,,TRUE,CV,p,727,cv,I,6,v,v,TRUE,1
CVOE_C,11,1,2,13,S 30,,,FALSE,CV,q,575,cv,S,0,c,c,TRUE,1
CVOE_C,11,1,2,14,D 20,,,FALSE,CV,q,1930,cv,D,0,c,c,TRUE,1
CVOE_C,11,1,2,15,I 31,,,FALSE,CV,p,574,cv,I,1,v,v,TRUE,1
CVOE_C,11,1,2,16,P 16,,,FALSE,CV,q,705,cv,P,6,c,c,TRUE,1
CVOE_C,11,1,2,17,A 49,,,FALSE,CV,p,775,cv,A,9,v,v,TRUE,1
CVOE_C,11,1,2,18,O 64,,,TRUE,CV,p,466,cv,O,4,v,v,TRUE,1
CVOE_C,11,1,2,19,D 02,,,FALSE,CV,q,544,cv,D,2,c,c,TRUE,1
CVOE_C,11,1,2,20,P 81,,,TRUE,CV,q,870,cv,P,1,c,c,TRUE,1
CVOE_C,11,1,2,21,J 58,,,FALSE,CV,q,499,cv,J,8,c,c,TRUE,1
CVOE_C,11,1,2,22,A 22,,,TRUE,CV,p,598,cv,A,2,v,v,TRUE,1
CVOE_C,11,1,2,23,J 72,,,FALSE,CV,q,559,cv,J,2,c,c,TRUE,1
CVOE_C,11,1,2,24,P 91,,,TRUE,CV,q,903,cv,P,1,c,c,TRUE,1
CVOE_C,11,1,2,25,E 19,,,FALSE,CV,p,765,cv,E,9,v,v,TRUE,1
CVOE_C,11,1,2,26,I 30,,,TRUE,CV,p,398,cv,I,0,v,v,TRUE,1
CVOE_C,11,1,2,27,D 91,,,TRUE,CV,q,486,cv,D,1,c,c,TRUE,1
CVOE_C,11,1,2,28,O 48,,,TRUE,CV,p,550,cv,O,8,v,v,TRUE,1
CVOE_C,11,1,2,29,A 89,,,FALSE,CV,q,556,cv,A,9,v,c,FALSE,0
CVOE_C,11,1,2,30,U 11,,,FALSE,CV,p,1045,cv,U,1,v,v,TRUE,1
CVOE_C,11,1,2,31,I 76,,,TRUE,CV,p,1189,cv,I,6,v,v,TRUE,1
CVOE_C,11,1,2,32,U 89,,,FALSE,CV,p,483,cv,U,9,v,v,TRUE,1
CVOE_C,11,1,2,33,D 63,,,TRUE,CV,q,892,cv,D,3,c,c,TRUE,1
CVOE_C,11,1,2,34,H 70,,,FALSE,CV,q,495,cv,H,0,c,c,TRUE,1
CVOE_C,11,1,2,35,D 48,,,FALSE,CV,q,858,cv,D,8,c,c,TRUE,1
CVOE_C,11,1,2,36,P 56,,,FALSE,CV,q,429,cv,P,6,c,c,TRUE,1
CVOE_C,11,1,2,37,O 77,,,FALSE,CV,p,859,cv,O,7,v,v,TRUE,1
CVOE_C,11,1,2,38,P 42,,,FALSE,CV,q,654,cv,P,2,c,c,TRUE,1
CVOE_C,11,1,2,39,H 22,,,FALSE,CV,q,897,cv,H,2,c,c,TRUE,1
CVOE_C,11,1,2,40,E 42,,,TRUE,CV,p,564,cv,E,2,v,v,TRUE,1
CVOE_C,11,1,2,41,J 28,,,FALSE,CV,q,485,cv,J,8,c,c,TRUE,1
CVOE_C,11,1,2,42,E 95,,,FALSE,CV,p,509,cv,E,5,v,v,TRUE,1
CVOE_C,11,1,2,43,S 63,,,TRUE,CV,q,387,cv,S,3,c,c,TRUE,1
CVOE_C,11,1,2,44,H 50,,,FALSE,CV,q,496,cv,H,0,c,c,TRUE,1
CVOE_C,11,1,2,45,S 33,,,TRUE,CV,q,595,cv,S,3,c,c,TRUE,1
CVOE_C,11,1,2,46,P 57,,,TRUE,CV,q,460,cv,P,7,c,c,TRUE,1
CVOE_C,11,1,2,47,E 23,,,FALSE,CV,p,567,cv,E,3,v,v,TRUE,1
CVOE_C,11,1,2,48,S 61,,,TRUE,CV,q,695,cv,S,1,c,c,TRUE,1
CVOE_C,11,1,2,49,U 67,,,FALSE,CV,p,490,cv,U,7,v,v,TRUE,1
CVOE_C,11,1,2,50,H 32,,,FALSE,CV,q,397,cv,H,2,c,c,TRUE,1
CVOE_C,11,1,2,51,U 50,,,TRUE,CV,p,502,cv,U,0,v,v,TRUE,1
CVOE_C,11,1,2,52,O 49,,,FALSE,CV,p,619,cv,O,9,v,v,TRUE,1
CVOE_C,11,1,2,53,U 32,,,TRUE,CV,p,799,cv,U,2,v,v,TRUE,1
CVOE_C,11,1,2,54,J 78,,,FALSE,CV,q,527,cv,J,8,c,c,TRUE,1
CVOE_C,11,1,2,55,S 54,,,FALSE,CV,q,831,cv,S,4,c,c,TRUE,1
CVOE_C,11,1,2,56,J 27,,,TRUE,CV,q,421,cv,J,7,c,c,TRUE,1
CVOE_C,11,1,2,57,S 06,,,FALSE,CV,q,491,cv,S,6,c,c,TRUE,1
CVOE_C,11,1,2,58,D 67,,,TRUE,CV,q,446,cv,D,7,c,c,TRUE,1
CVOE_C,11,1,2,59,A 79,,,FALSE,CV,p,398,cv,A,9,v,v,TRUE,1
CVOE_C,11,1,2,60,S 52,,,FALSE,CV,q,479,cv,S,2,c,c,TRUE,1
CVOE_C,11,1,2,61,U 16,,,TRUE,CV,p,503,cv,U,6,v,v,TRUE,1
CVOE_C,11,1,2,62,O 82,,,TRUE,CV,p,837,cv,O,2,v,v,TRUE,1
CVOE_C,11,1,2,63,H 87,,,TRUE,CV,q,509,cv,H,7,c,c,TRUE,1
CVOE_C,11,1,2,64,I 32,,,TRUE,CV,p,451,cv,I,2,v,v,TRUE,1
CVOE_C,11,1,2,65,U 37,,,FALSE,CV,p,574,cv,U,7,v,v,TRUE,1
CVOE_C,11,1,2,66,I 42,,,TRUE,CV,p,409,cv,I,2,v,v,TRUE,1
CVOE_C,11,1,2,67,D 65,,,TRUE,CV,q,420,cv,D,5,c,c,TRUE,1
CVOE_C,11,1,2,68,U 77,,,FALSE,CV,p,447,cv,U,7,v,v,TRUE,1
CVOE_C,11,1,2,69,E 12,,,TRUE,CV,q,368,cv,E,2,v,c,FALSE,0
CVOE_C,11,1,2,70,I 60,,,TRUE,CV,p,544,cv,I,0,v,v,TRUE,1
CVOE_C,11,1,2,71,J 36,,,FALSE,CV,q,646,cv,J,6,c,c,TRUE,1
CVOE_C,11,1,2,72,H 75,,,TRUE,CV,q,646,cv,H,5,c,c,TRUE,1
CVOE_C,11,1,2,73,I 50,,,TRUE,CV,p,1543,cv,I,0,v,v,TRUE,1
CVOE_C,11,1,2,74,E 99,,,FALSE,CV,p,381,cv,E,9,v,v,TRUE,1
CVOE_C,11,1,2,75,A 86,,,TRUE,CV,p,520,cv,A,6,v,v,TRUE,1
CVOE_C,11,1,2,76,U 48,,,TRUE,CV,p,408,cv,U,8,v,v,TRUE,1
CVOE_C,11,1,2,77,E 01,,,FALSE,CV,p,763,cv,E,1,v,v,TRUE,1
CVOE_C,11,1,2,78,A 78,,,TRUE,CV,p,460,cv,A,8,v,v,TRUE,1
CVOE_C,11,1,2,79,P 60,,,FALSE,CV,q,471,cv,P,0,c,c,TRUE,1
CVOE_C,11,1,2,80,E 43,,,FALSE,CV,p,428,cv,E,3,v,v,TRUE,1
CVOE_C,11,1,2,81,D 69,,,TRUE,CV,q,578,cv,D,9,c,c,TRUE,1
CVOE_C,11,1,2,82,H 11,,,TRUE,CV,q,1333,cv,H,1,c,c,TRUE,1
CVOE_C,11,1,2,83,P 43,,,TRUE,CV,q,696,cv,P,3,c,c,TRUE,1
CVOE_C,11,1,2,84,O 67,,,FALSE,CV,p,460,cv,O,7,v,v,TRUE,1
CVOE_C,11,1,2,85,S 91,,,FALSE,CV,q,559,cv,S,1,c,c,TRUE,1
CVOE_C,11,1,2,86,J 68,,,TRUE,CV,q,407,cv,J,8,c,c,TRUE,1
CVOE_C,11,1,2,87,S 47,,,FALSE,CV,q,367,cv,S,7,c,c,TRUE,1
CVOE_C,11,1,2,88,I 81,,,TRUE,CV,p,568,cv,I,1,v,v,TRUE,1
CVOE_C,11,1,2,89,J 39,,,FALSE,CV,q,459,cv,J,9,c,c,TRUE,1
CVOE_C,11,1,2,90,A 11,,,TRUE,CV,p,502,cv,A,1,v,v,TRUE,1
CVOE_C,11,1,2,91,O 76,,,FALSE,CV,p,436,cv,O,6,v,v,TRUE,1
CVOE_C,11,1,2,92,A 62,,,FALSE,CV,p,372,cv,A,2,v,v,TRUE,1
CVOE_C,11,1,2,93,O 27,,,TRUE,CV,p,407,cv,O,7,v,v,TRUE,1
CVOE_C,11,1,2,94,E 66,,,FALSE,CV,p,439,cv,E,6,v,v,TRUE,1
CVOE_C,11,1,2,95,J 62,,,TRUE,CV,q,536,cv,J,2,c,c,TRUE,1
CVOE_C,11,1,2,96,H 72,,,TRUE,CV,q,483,cv,H,2,c,c,TRUE,1
CVOE_C,11,1,2,97,E 49,,,TRUE,CV,p,403,cv,E,9,v,v,TRUE,1
CVOE_C,11,1,2,98,D 52,,,TRUE,CV,q,467,cv,D,2,c,c,TRUE,1
CVOE_C,11,1,2,99,H 62,,,TRUE,CV,q,809,cv,H,2,c,c,TRUE,1
CVOE_C,11,1,2,100,I 11,,,TRUE,CV,p,516,cv,I,1,v,v,TRUE,1
CVOE_C,11,1,2,101,A 98,,,FALSE,CV,p,789,cv,A,8,v,v,TRUE,1
CVOE_C,11,1,2,102,H 29,,,FALSE,CV,q,507,cv,H,9,c,c,TRUE,1
CVOE_C,11,1,2,103,E 83,,,TRUE,CV,p,400,cv,E,3,v,v,TRUE,1
CVOE_C,11,1,2,104,D 43,,,FALSE,CV,q,537,cv,D,3,c,c,TRUE,1
CVOE_C,11,1,2,105,P 45,,,TRUE,CV,q,572,cv,P,5,c,c,TRUE,1
CVOE_C,11,1,2,106,J 17,,,TRUE,CV,q,375,cv,J,7,c,c,TRUE,1
CVOE_C,15,1,2,11,A 71,,,FALSE,CV,p,1555,cv,A,1,v,v,TRUE,1
CVOE_C,15,1,2,12,I 66,,,TRUE,CV,p,1180,cv,I,6,v,v,TRUE,1
CVOE_C,15,1,2,13,S 30,,,FALSE,CV,q,442,cv,S,0,c,c,TRUE,1
CVOE_C,15,1,2,14,D 20,,,FALSE,CV,q,450,cv,D,0,c,c,TRUE,1
CVOE_C,15,1,2,15,I 31,,,FALSE,CV,p,430,cv,I,1,v,v,TRUE,1
CVOE_C,15,1,2,16,P 16,,,FALSE,CV,q,603,cv,P,6,c,c,TRUE,1
CVOE_C,15,1,2,17,A 49,,,FALSE,CV,p,500,cv,A,9,v,v,TRUE,1
CVOE_C,15,1,2,18,O 64,,,TRUE,CV,p,415,cv,O,4,v,v,TRUE,1
CVOE_C,15,1,2,19,D 02,,,FALSE,CV,q,1338,cv,D,2,c,c,TRUE,1
CVOE_C,15,1,2,20,P 81,,,TRUE,CV,q,437,cv,P,1,c,c,TRUE,1
CVOE_C,15,1,2,21,J 58,,,FALSE,CV,q,429,cv,J,8,c,c,TRUE,1
CVOE_C,15,1,2,22,A 22,,,TRUE,CV,p,419,cv,A,2,v,v,TRUE,1
CVOE_C,15,1,2,23,J 72,,,FALSE,CV,q,414,cv,J,2,c,c,TRUE,1
CVOE_C,15,1,2,24,P 91,,,TRUE,CV,q,377,cv,P,1,c,c,TRUE,1
CVOE_C,15,1,2,25,E 19,,,FALSE,CV,p,404,cv,E,9,v,v,TRUE,1
CVOE_C,15,1,2,26,I 30,,,TRUE,CV,p,413,cv,I,0,v,v,TRUE,1
CVOE_C,15,1,2,27,D 91,,,TRUE,CV,q,512,cv,D,1,c,c,TRUE,1
CVOE_C,15,1,2,28,O 48,,,TRUE,CV,p,381,cv,O,8,v,v,TRUE,1
CVOE_C,15,1,2,29,A 89,,,FALSE,CV,q,339,cv,A,9,v,c,FALSE,0
CVOE_C,15,1,2,30,U 11,,,FALSE,CV,q,614,cv,U,1,v,c,FALSE,0
CVOE_C,15,1,2,31,I 76,,,TRUE,CV,p,481,cv,I,6,v,v,TRUE,1
CVOE_C,15,1,2,32,U 89,,,FALSE,CV,p,497,cv,U,9,v,v,TRUE,1
CVOE_C,15,1,2,33,D 63,,,TRUE,CV,q,628,cv,D,3,c,c,TRUE,1
CVOE_C,15,1,2,34,H 70,,,FALSE,CV,q,674,cv,H,0,c,c,TRUE,1
CVOE_C,15,1,2,35,D 48,,,FALSE,CV,q,467,cv,D,8,c,c,TRUE,1
CVOE_C,15,1,2,36,P 56,,,FALSE,CV,q,368,cv,P,6,c,c,TRUE,1
CVOE_C,15,1,2,37,O 77,,,FALSE,CV,p,379,cv,O,7,v,v,TRUE,1
CVOE_C,15,1,2,38,P 42,,,FALSE,CV,q,350,cv,P,2,c,c,TRUE,1
CVOE_C,15,1,2,39,H 22,,,FALSE,CV,q,404,cv,H,2,c,c,TRUE,1
CVOE_C,15,1,2,40,E 42,,,TRUE,CV,p,436,cv,E,2,v,v,TRUE,1
CVOE_C,15,1,2,41,J 28,,,FALSE,CV,q,405,cv,J,8,c,c,TRUE,1
CVOE_C,15,1,2,42,E 95,,,FALSE,CV,q,301,cv,E,5,v,c,FALSE,0
CVOE_C,15,1,2,43,S 63,,,TRUE,CV,q,523,cv,S,3,c,c,TRUE,1
CVOE_C,15,1,2,44,H 50,,,FALSE,CV,q,363,cv,H,0,c,c,TRUE,1
CVOE_C,15,1,2,45,S 33,,,TRUE,CV,q,467,cv,S,3,c,c,TRUE,1
CVOE_C,15,1,2,46,P 57,,,TRUE,CV,q,329,cv,P,7,c,c,TRUE,1
CVOE_C,15,1,2,47,E 23,,,FALSE,CV,p,348,cv,E,3,v,v,TRUE,1
CVOE_C,15,1,2,48,S 61,,,TRUE,CV,q,578,cv,S,1,c,c,TRUE,1
CVOE_C,15,1,2,49,U 67,,,FALSE,CV,p,669,cv,U,7,v,v,TRUE,1
CVOE_C,15,1,2,50,H 32,,,FALSE,CV,q,547,cv,H,2,c,c,TRUE,1
CVOE_C,15,1,2,51,U 50,,,TRUE,CV,p,312,cv,U,0,v,v,TRUE,1
CVOE_C,15,1,2,52,O 49,,,FALSE,CV,p,462,cv,O,9,v,v,TRUE,1
CVOE_C,15,1,2,53,U 32,,,TRUE,CV,p,388,cv,U,2,v,v,TRUE,1
CVOE_C,15,1,2,54,J 78,,,FALSE,CV,q,345,cv,J,8,c,c,TRUE,1
CVOE_C,15,1,2,55,S 54,,,FALSE,CV,q,367,cv,S,4,c,c,TRUE,1
CVOE_C,15,1,2,56,J 27,,,TRUE,CV,q,354,cv,J,7,c,c,TRUE,1
CVOE_C,15,1,2,57,S 06,,,FALSE,CV,q,1354,cv,S,6,c,c,TRUE,1
CVOE_C,15,1,2,58,D 67,,,TRUE,CV,q,379,cv,D,7,c,c,TRUE,1
CVOE_C,15,1,2,59,A 79,,,FALSE,CV,p,462,cv,A,9,v,v,TRUE,1
CVOE_C,15,1,2,60,S 52,,,FALSE,CV,q,460,cv,S,2,c,c,TRUE,1
CVOE_C,15,1,2,61,U 16,,,TRUE,CV,p,431,cv,U,6,v,v,TRUE,1
CVOE_C,15,1,2,62,O 82,,,TRUE,CV,p,357,cv,O,2,v,v,TRUE,1
CVOE_C,15,1,2,63,H 87,,,TRUE,CV,q,349,cv,H,7,c,c,TRUE,1
CVOE_C,15,1,2,64,I 32,,,TRUE,CV,p,403,cv,I,2,v,v,TRUE,1
CVOE_C,15,1,2,65,U 37,,,FALSE,CV,p,803,cv,U,7,v,v,TRUE,1
CVOE_C,15,1,2,66,I 42,,,TRUE,CV,p,355,cv,I,2,v,v,TRUE,1
CVOE_C,15,1,2,67,D 65,,,TRUE,CV,q,300,cv,D,5,c,c,TRUE,1
CVOE_C,15,1,2,68,U 77,,,FALSE,CV,p,343,cv,U,7,v,v,TRUE,1
CVOE_C,15,1,2,69,E 12,,,TRUE,CV,p,396,cv,E,2,v,v,TRUE,1
CVOE_C,15,1,2,70,I 60,,,TRUE,CV,p,365,cv,I,0,v,v,TRUE,1
CVOE_C,15,1,2,71,J 36,,,FALSE,CV,p,333,cv,J,6,c,v,FALSE,0
CVOE_C,15,1,2,72,H 75,,,TRUE,CV,q,392,cv,H,5,c,c,TRUE,1
CVOE_C,15,1,2,73,I 50,,,TRUE,CV,p,366,cv,I,0,v,v,TRUE,1
CVOE_C,15,1,2,74,E 99,,,FALSE,CV,q,350,cv,E,9,v,c,FALSE,0
CVOE_C,15,1,2,75,A 86,,,TRUE,CV,q,340,cv,A,6,v,c,FALSE,0
CVOE_C,15,1,2,76,U 48,,,TRUE,CV,p,591,cv,U,8,v,v,TRUE,1
CVOE_C,15,1,2,77,E 01,,,FALSE,CV,p,405,cv,E,1,v,v,TRUE,1
CVOE_C,15,1,2,78,A 78,,,TRUE,CV,p,429,cv,A,8,v,v,TRUE,1
CVOE_C,15,1,2,79,P 60,,,FALSE,CV,q,307,cv,P,0,c,c,TRUE,1
CVOE_C,15,1,2,80,E 43,,,FALSE,CV,p,344,cv,E,3,v,v,TRUE,1
CVOE_C,15,1,2,81,D 69,,,TRUE,CV,q,278,cv,D,9,c,c,TRUE,1
CVOE_C,15,1,2,82,H 11,,,TRUE,CV,q,382,cv,H,1,c,c,TRUE,1
CVOE_C,15,1,2,83,P 43,,,TRUE,CV,q,380,cv,P,3,c,c,TRUE,1
CVOE_C,15,1,2,84,O 67,,,FALSE,CV,p,431,cv,O,7,v,v,TRUE,1
CVOE_C,15,1,2,85,S 91,,,FALSE,CV,p,357,cv,S,1,c,v,FALSE,0
CVOE_C,15,1,2,86,J 68,,,TRUE,CV,q,469,cv,J,8,c,c,TRUE,1
CVOE_C,15,1,2,87,S 47,,,FALSE,CV,q,371,cv,S,7,c,c,TRUE,1
CVOE_C,15,1,2,88,I 81,,,TRUE,CV,p,478,cv,I,1,v,v,TRUE,1
CVOE_C,15,1,2,89,J 39,,,FALSE,CV,q,462,cv,J,9,c,c,TRUE,1
CVOE_C,15,1,2,90,A 11,,,TRUE,CV,q,380,cv,A,1,v,c,FALSE,0
CVOE_C,15,1,2,91,O 76,,,FALSE,CV,p,457,cv,O,6,v,v,TRUE,1
CVOE_C,15,1,2,92,A 62,,,FALSE,CV,p,620,cv,A,2,v,v,TRUE,1
CVOE_C,15,1,2,93,O 27,,,TRUE,CV,p,354,cv,O,7,v,v,TRUE,1
CVOE_C,15,1,2,94,E 66,,,FALSE,CV,p,411,cv,E,6,v,v,TRUE,1
CVOE_C,15,1,2,95,J 62,,,TRUE,CV,q,494,cv,J,2,c,c,TRUE,1
CVOE_C,15,1,2,96,H 72,,,TRUE,CV,q,521,cv,H,2,c,c,TRUE,1
CVOE_C,15,1,2,97,E 49,,,TRUE,CV,p,361,cv,E,9,v,v,TRUE,1
CVOE_C,15,1,2,98,D 52,,,TRUE,CV,q,329,cv,D,2,c,c,TRUE,1
CVOE_C,15,1,2,99,H 62,,,TRUE,CV,q,396,cv,H,2,c,c,TRUE,1
CVOE_C,15,1,2,100,I 11,,,TRUE,CV,p,397,cv,I,1,v,v,TRUE,1
CVOE_C,15,1,2,101,A 98,,,FALSE,CV,p,501,cv,A,8,v,v,TRUE,1
CVOE_C,15,1,2,102,H 29,,,FALSE,CV,p,363,cv,H,9,c,v,FALSE,0
CVOE_C,15,1,2,103,E 83,,,TRUE,CV,q,299,cv,E,3,v,c,FALSE,0
CVOE_C,15,1,2,104,D 43,,,FALSE,CV,q,518,cv,D,3,c,c,TRUE,1
CVOE_C,15,1,2,105,P 45,,,TRUE,CV,q,430,cv,P,5,c,c,TRUE,1
CVOE_C,15,1,2,106,J 17,,,TRUE,CV,q,316,cv,J,7,c,c,TRUE,1
CVOE_C,7,1,2,11,A 71,,,FALSE,CV,p,3005,cv,A,1,v,v,TRUE,1
CVOE_C,7,1,2,12,I 66,,,TRUE,CV,p,830,cv,I,6,v,v,TRUE,1
CVOE_C,7,1,2,13,S 30,,,FALSE,CV,q,668,cv,S,0,c,c,TRUE,1
CVOE_C,7,1,2,14,D 20,,,FALSE,CV,q,754,cv,D,0,c,c,TRUE,1
CVOE_C,7,1,2,15,I 31,,,FALSE,CV,p,874,cv,I,1,v,v,TRUE,1
CVOE_C,7,1,2,16,P 16,,,FALSE,CV,q,859,cv,P,6,c,c,TRUE,1
CVOE_C,7,1,2,17,A 49,,,FALSE,CV,p,902,cv,A,9,v,v,TRUE,1
CVOE_C,7,1,2,18,O 64,,,TRUE,CV,p,1076,cv,O,4,v,v,TRUE,1
CVOE_C,7,1,2,19,D 02,,,FALSE,CV,q,581,cv,D,2,c,c,TRUE,1
CVOE_C,7,1,2,20,P 81,,,TRUE,CV,q,1338,cv,P,1,c,c,TRUE,1
CVOE_C,7,1,2,21,J 58,,,FALSE,CV,q,646,cv,J,8,c,c,TRUE,1
CVOE_C,7,1,2,22,A 22,,,TRUE,CV,p,606,cv,A,2,v,v,TRUE,1
CVOE_C,7,1,2,23,J 72,,,FALSE,CV,q,601,cv,J,2,c,c,TRUE,1
CVOE_C,7,1,2,24,P 91,,,TRUE,CV,q,986,cv,P,1,c,c,TRUE,1
CVOE_C,7,1,2,25,E 19,,,FALSE,CV,p,1024,cv,E,9,v,v,TRUE,1
CVOE_C,7,1,2,26,I 30,,,TRUE,CV,p,694,cv,I,0,v,v,TRUE,1
CVOE_C,7,1,2,27,D 91,,,TRUE,CV,q,697,cv,D,1,c,c,TRUE,1
CVOE_C,7,1,2,28,O 48,,,TRUE,CV,p,636,cv,O,8,v,v,TRUE,1
CVOE_C,7,1,2,29,A 89,,,FALSE,CV,p,764,cv,A,9,v,v,TRUE,1
CVOE_C,7,1,2,30,U 11,,,FALSE,CV,p,789,cv,U,1,v,v,TRUE,1
CVOE_C,7,1,2,31,I 76,,,TRUE,CV,p,787,cv,I,6,v,v,TRUE,1
CVOE_C,7,1,2,32,U 89,,,FALSE,CV,p,672,cv,U,9,v,v,TRUE,1
CVOE_C,7,1,2,33,D 63,,,TRUE,CV,q,614,cv,D,3,c,c,TRUE,1
CVOE_C,7,1,2,34,H 70,,,FALSE,CV,q,857,cv,H,0,c,c,TRUE,1
CVOE_C,7,1,2,35,D 48,,,FALSE,CV,q,597,cv,D,8,c,c,TRUE,1
CVOE_C,7,1,2,36,P 56,,,FALSE,CV,q,861,cv,P,6,c,c,TRUE,1
CVOE_C,7,1,2,37,O 77,,,FALSE,CV,p,699,cv,O,7,v,v,TRUE,1
CVOE_C,7,1,2,38,P 42,,,FALSE,CV,q,598,cv,P,2,c,c,TRUE,1
CVOE_C,7,1,2,39,H 22,,,FALSE,CV,q,1014,cv,H,2,c,c,TRUE,1
CVOE_C,7,1,2,40,E 42,,,TRUE,CV,p,954,cv,E,2,v,v,TRUE,1
CVOE_C,7,1,2,41,J 28,,,FALSE,CV,q,1394,cv,J,8,c,c,TRUE,1
CVOE_C,7,1,2,42,E 95,,,FALSE,CV,p,595,cv,E,5,v,v,TRUE,1
CVOE_C,7,1,2,43,S 63,,,TRUE,CV,q,587,cv,S,3,c,c,TRUE,1
CVOE_C,7,1,2,44,H 50,,,FALSE,CV,q,1201,cv,H,0,c,c,TRUE,1
CVOE_C,7,1,2,45,S 33,,,TRUE,CV,q,642,cv,S,3,c,c,TRUE,1
CVOE_C,7,1,2,46,P 57,,,TRUE,CV,q,1034,cv,P,7,c,c,TRUE,1
CVOE_C,7,1,2,47,E 23,,,FALSE,CV,p,923,cv,E,3,v,v,TRUE,1
CVOE_C,7,1,2,48,S 61,,,TRUE,CV,q,587,cv,S,1,c,c,TRUE,1
CVOE_C,7,1,2,49,U 67,,,FALSE,CV,p,697,cv,U,7,v,v,TRUE,1
CVOE_C,7,1,2,50,H 32,,,FALSE,CV,q,516,cv,H,2,c,c,TRUE,1
CVOE_C,7,1,2,51,U 50,,,TRUE,CV,p,653,cv,U,0,v,v,TRUE,1
CVOE_C,7,1,2,52,O 49,,,FALSE,CV,p,776,cv,O,9,v,v,TRUE,1
CVOE_C,7,1,2,53,U 32,,,TRUE,CV,p,675,cv,U,2,v,v,TRUE,1
CVOE_C,7,1,2,54,J 78,,,FALSE,CV,q,539,cv,J,8,c,c,TRUE,1
CVOE_C,7,1,2,55,S 54,,,FALSE,CV,q,942,cv,S,4,c,c,TRUE,1
CVOE_C,7,1,2,56,J 27,,,TRUE,CV,q,572,cv,J,7,c,c,TRUE,1
CVOE_C,7,1,2,57,S 06,,,FALSE,CV,q,647,cv,S,6,c,c,TRUE,1
CVOE_C,7,1,2,58,D 67,,,TRUE,CV,q,691,cv,D,7,c,c,TRUE,1
CVOE_C,7,1,2,59,A 79,,,FALSE,CV,p,598,cv,A,9,v,v,TRUE,1
CVOE_C,7,1,2,60,S 52,,,FALSE,CV,q,494,cv,S,2,c,c,TRUE,1
CVOE_C,7,1,2,61,U 16,,,TRUE,CV,p,465,cv,U,6,v,v,TRUE,1
CVOE_C,7,1,2,62,O 82,,,TRUE,CV,p,511,cv,O,2,v,v,TRUE,1
CVOE_C,7,1,2,63,H 87,,,TRUE,CV,q,573,cv,H,7,c,c,TRUE,1
CVOE_C,7,1,2,64,I 32,,,TRUE,CV,p,592,cv,I,2,v,v,TRUE,1
CVOE_C,7,1,2,65,U 37,,,FALSE,CV,p,549,cv,U,7,v,v,TRUE,1
CVOE_C,7,1,2,66,I 42,,,TRUE,CV,p,515,cv,I,2,v,v,TRUE,1
CVOE_C,7,1,2,67,D 65,,,TRUE,CV,q,652,cv,D,5,c,c,TRUE,1
CVOE_C,7,1,2,68,U 77,,,FALSE,CV,p,599,cv,U,7,v,v,TRUE,1
CVOE_C,7,1,2,69,E 12,,,TRUE,CV,p,999,cv,E,2,v,v,TRUE,1
CVOE_C,7,1,2,70,I 60,,,TRUE,CV,p,784,cv,I,0,v,v,TRUE,1
CVOE_C,7,1,2,71,J 36,,,FALSE,CV,q,582,cv,J,6,c,c,TRUE,1
CVOE_C,7,1,2,72,H 75,,,TRUE,CV,q,579,cv,H,5,c,c,TRUE,1
CVOE_C,7,1,2,73,I 50,,,TRUE,CV,p,1022,cv,I,0,v,v,TRUE,1
CVOE_C,7,1,2,74,E 99,,,FALSE,CV,p,956,cv,E,9,v,v,TRUE,1
CVOE_C,7,1,2,75,A 86,,,TRUE,CV,p,805,cv,A,6,v,v,TRUE,1
CVOE_C,7,1,2,76,U 48,,,TRUE,CV,p,1085,cv,U,8,v,v,TRUE,1
CVOE_C,7,1,2,77,E 01,,,FALSE,CV,p,574,cv,E,1,v,v,TRUE,1
CVOE_C,7,1,2,78,A 78,,,TRUE,CV,p,497,cv,A,8,v,v,TRUE,1
CVOE_C,7,1,2,79,P 60,,,FALSE,CV,q,548,cv,P,0,c,c,TRUE,1
CVOE_C,7,1,2,80,E 43,,,FALSE,CV,p,562,cv,E,3,v,v,TRUE,1
CVOE_C,7,1,2,81,D 69,,,TRUE,CV,q,570,cv,D,9,c,c,TRUE,1
CVOE_C,7,1,2,82,H 11,,,TRUE,CV,q,981,cv,H,1,c,c,TRUE,1
CVOE_C,7,1,2,83,P 43,,,TRUE,CV,q,1235,cv,P,3,c,c,TRUE,1
CVOE_C,7,1,2,84,O 67,,,FALSE,CV,p,628,cv,O,7,v,v,TRUE,1
CVOE_C,7,1,2,85,S 91,,,FALSE,CV,q,922,cv,S,1,c,c,TRUE,1
CVOE_C,7,1,2,86,J 68,,,TRUE,CV,q,1162,cv,J,8,c,c,TRUE,1
CVOE_C,7,1,2,87,S 47,,,FALSE,CV,q,467,cv,S,7,c,c,TRUE,1
CVOE_C,7,1,2,88,I 81,,,TRUE,CV,p,721,cv,I,1,v,v,TRUE,1
CVOE_C,7,1,2,89,J 39,,,FALSE,CV,q,537,cv,J,9,c,c,TRUE,1
CVOE_C,7,1,2,90,A 11,,,TRUE,CV,p,556,cv,A,1,v,v,TRUE,1
CVOE_C,7,1,2,91,O 76,,,FALSE,CV,p,445,cv,O,6,v,v,TRUE,1
CVOE_C,7,1,2,92,A 62,,,FALSE,CV,p,573,cv,A,2,v,v,TRUE,1
CVOE_C,7,1,2,93,O 27,,,TRUE,CV,p,800,cv,O,7,v,v,TRUE,1
CVOE_C,7,1,2,94,E 66,,,FALSE,CV,p,832,cv,E,6,v,v,TRUE,1
CVOE_C,7,1,2,95,J 62,,,TRUE,CV,q,494,cv,J,2,c,c,TRUE,1
CVOE_C,7,1,2,96,H 72,,,TRUE,CV,q,441,cv,H,2,c,c,TRUE,1
CVOE_C,7,1,2,97,E 49,,,TRUE,CV,p,602,cv,E,9,v,v,TRUE,1
CVOE_C,7,1,2,98,D 52,,,TRUE,CV,q,682,cv,D,2,c,c,TRUE,1
CVOE_C,7,1,2,99,H 62,,,TRUE,CV,q,579,cv,H,2,c,c,TRUE,1
CVOE_C,7,1,2,100,I 11,,,TRUE,CV,p,494,cv,I,1,v,v,TRUE,1
CVOE_C,7,1,2,101,A 98,,,FALSE,CV,p,825,cv,A,8,v,v,TRUE,1
CVOE_C,7,1,2,102,H 29,,,FALSE,CV,q,687,cv,H,9,c,c,TRUE,1
CVOE_C,7,1,2,103,E 83,,,TRUE,CV,p,554,cv,E,3,v,v,TRUE,1
CVOE_C,7,1,2,104,D 43,,,FALSE,CV,q,562,cv,D,3,c,c,TRUE,1
CVOE_C,7,1,2,105,P 45,,,TRUE,CV,q,491,cv,P,5,c,c,TRUE,1
CVOE_C,7,1,2,106,J 17,,,TRUE,CV,q,518,cv,J,7,c,c,TRUE,1
CVOE_D,4,1,1,11,A 71,,,FALSE,CV,p,1212,cv,A,1,v,v,TRUE,1
CVOE_D,4,1,1,12,I 66,,,TRUE,CV,p,840,cv,I,6,v,v,TRUE,1
CVOE_D,4,1,1,13,S 30,,,FALSE,CV,q,728,cv,S,0,c,c,TRUE,1
CVOE_D,4,1,1,14,D 20,,,FALSE,CV,q,1075,cv,D,0,c,c,TRUE,1
CVOE_D,4,1,1,15,I 31,,,FALSE,CV,p,708,cv,I,1,v,v,TRUE,1
CVOE_D,4,1,1,16,P 16,,,FALSE,CV,q,802,cv,P,6,c,c,TRUE,1
CVOE_D,4,1,1,17,A 49,,,FALSE,CV,p,706,cv,A,9,v,v,TRUE,1
CVOE_D,4,1,1,18,O 64,,,TRUE,CV,p,776,cv,O,4,v,v,TRUE,1
CVOE_D,4,1,1,19,D 02,,,FALSE,CV,q,851,cv,D,2,c,c,TRUE,1
CVOE_D,4,1,1,20,P 81,,,TRUE,CV,q,1006,cv,P,1,c,c,TRUE,1
CVOE_D,4,1,1,21,J 58,,,FALSE,CV,q,687,cv,J,8,c,c,TRUE,1
CVOE_D,4,1,1,22,A 22,,,TRUE,CV,p,959,cv,A,2,v,v,TRUE,1
CVOE_D,4,1,1,23,J 72,,,FALSE,CV,q,1439,cv,J,2,c,c,TRUE,1
CVOE_D,4,1,1,24,P 91,,,TRUE,CV,q,889,cv,P,1,c,c,TRUE,1
CVOE_D,4,1,1,25,E 19,,,FALSE,CV,p,860,cv,E,9,v,v,TRUE,1
CVOE_D,4,1,1,26,I 30,,,TRUE,CV,p,743,cv,I,0,v,v,TRUE,1
CVOE_D,4,1,1,27,D 91,,,TRUE,CV,q,1597,cv,D,1,c,c,TRUE,1
CVOE_D,4,1,1,28,O 48,,,TRUE,CV,p,3798,cv,O,8,v,v,TRUE,1
CVOE_D,4,1,1,29,A 89,,,FALSE,CV,p,663,cv,A,9,v,v,TRUE,1
CVOE_D,4,1,1,30,U 11,,,FALSE,CV,p,1909,cv,U,1,v,v,TRUE,1
CVOE_D,4,1,1,31,I 76,,,TRUE,CV,p,651,cv,I,6,v,v,TRUE,1
CVOE_D,4,1,1,32,U 89,,,FALSE,CV,p,950,cv,U,9,v,v,TRUE,1
CVOE_D,4,1,1,33,D 63,,,TRUE,CV,q,1036,cv,D,3,c,c,TRUE,1
CVOE_D,4,1,1,34,H 70,,,FALSE,CV,q,1157,cv,H,0,c,c,TRUE,1
CVOE_D,4,1,1,35,D 48,,,FALSE,CV,q,734,cv,D,8,c,c,TRUE,1
CVOE_D,4,1,1,36,P 56,,,FALSE,CV,q,689,cv,P,6,c,c,TRUE,1
CVOE_D,4,1,1,37,O 77,,,FALSE,CV,p,924,cv,O,7,v,v,TRUE,1
CVOE_D,4,1,1,38,P 42,,,FALSE,CV,q,756,cv,P,2,c,c,TRUE,1
CVOE_D,4,1,1,39,H 22,,,FALSE,CV,q,1901,cv,H,2,c,c,TRUE,1
CVOE_D,4,1,1,40,E 42,,,TRUE,CV,p,667,cv,E,2,v,v,TRUE,1
CVOE_D,4,1,1,41,J 28,,,FALSE,CV,q,897,cv,J,8,c,c,TRUE,1
CVOE_D,4,1,1,42,E 95,,,FALSE,CV,p,908,cv,E,5,v,v,TRUE,1
CVOE_D,4,1,1,43,S 63,,,TRUE,CV,q,738,cv,S,3,c,c,TRUE,1
CVOE_D,4,1,1,44,H 50,,,FALSE,CV,q,1133,cv,H,0,c,c,TRUE,1
CVOE_D,4,1,1,45,S 33,,,TRUE,CV,q,712,cv,S,3,c,c,TRUE,1
CVOE_D,4,1,1,46,P 57,,,TRUE,CV,q,926,cv,P,7,c,c,TRUE,1
CVOE_D,4,1,1,47,E 23,,,FALSE,CV,p,1031,cv,E,3,v,v,TRUE,1
CVOE_D,4,1,1,48,S 61,,,TRUE,CV,q,677,cv,S,1,c,c,TRUE,1
CVOE_D,4,1,1,49,U 67,,,FALSE,CV,p,805,cv,U,7,v,v,TRUE,1
CVOE_D,4,1,1,50,H 32,,,FALSE,CV,q,1102,cv,H,2,c,c,TRUE,1
CVOE_D,4,1,1,51,U 50,,,TRUE,CV,p,836,cv,U,0,v,v,TRUE,1
CVOE_D,4,1,1,52,O 49,,,FALSE,CV,p,820,cv,O,9,v,v,TRUE,1
CVOE_D,4,1,1,53,U 32,,,TRUE,CV,p,711,cv,U,2,v,v,TRUE,1
CVOE_D,4,1,1,54,J 78,,,FALSE,CV,q,749,cv,J,8,c,c,TRUE,1
CVOE_D,4,1,1,55,S 54,,,FALSE,CV,q,723,cv,S,4,c,c,TRUE,1
CVOE_D,4,1,1,56,J 27,,,TRUE,CV,q,707,cv,J,7,c,c,TRUE,1
CVOE_D,4,1,1,57,S 06,,,FALSE,CV,q,569,cv,S,6,c,c,TRUE,1
CVOE_D,4,1,1,58,D 67,,,TRUE,CV,q,1188,cv,D,7,c,c,TRUE,1
CVOE_D,4,1,1,59,A 79,,,FALSE,CV,p,642,cv,A,9,v,v,TRUE,1
CVOE_D,4,1,1,60,S 52,,,FALSE,CV,q,819,cv,S,2,c,c,TRUE,1
CVOE_D,4,1,1,61,U 16,,,TRUE,CV,p,709,cv,U,6,v,v,TRUE,1
CVOE_D,4,1,1,62,O 82,,,TRUE,CV,p,756,cv,O,2,v,v,TRUE,1
CVOE_D,4,1,1,63,H 87,,,TRUE,CV,q,788,cv,H,7,c,c,TRUE,1
CVOE_D,4,1,1,64,I 32,,,TRUE,CV,p,778,cv,I,2,v,v,TRUE,1
CVOE_D,4,1,1,65,U 37,,,FALSE,CV,p,1237,cv,U,7,v,v,TRUE,1
CVOE_D,4,1,1,66,I 42,,,TRUE,CV,p,750,cv,I,2,v,v,TRUE,1
CVOE_D,4,1,1,67,D 65,,,TRUE,CV,q,628,cv,D,5,c,c,TRUE,1
CVOE_D,4,1,1,68,U 77,,,FALSE,CV,p,785,cv,U,7,v,v,TRUE,1
CVOE_D,4,1,1,69,E 12,,,TRUE,CV,p,1191,cv,E,2,v,v,TRUE,1
CVOE_D,4,1,1,70,I 60,,,TRUE,CV,p,781,cv,I,0,v,v,TRUE,1
CVOE_D,4,1,1,71,J 36,,,FALSE,CV,q,699,cv,J,6,c,c,TRUE,1
CVOE_D,4,1,1,72,H 75,,,TRUE,CV,q,598,cv,H,5,c,c,TRUE,1
CVOE_D,4,1,1,73,I 50,,,TRUE,CV,p,759,cv,I,0,v,v,TRUE,1
CVOE_D,4,1,1,74,E 99,,,FALSE,CV,p,1423,cv,E,9,v,v,TRUE,1
CVOE_D,4,1,1,75,A 86,,,TRUE,CV,p,669,cv,A,6,v,v,TRUE,1
CVOE_D,4,1,1,76,U 48,,,TRUE,CV,p,771,cv,U,8,v,v,TRUE,1
CVOE_D,4,1,1,77,E 01,,,FALSE,CV,p,694,cv,E,1,v,v,TRUE,1
CVOE_D,4,1,1,78,A 78,,,TRUE,CV,p,721,cv,A,8,v,v,TRUE,1
CVOE_D,4,1,1,79,P 60,,,FALSE,CV,q,698,cv,P,0,c,c,TRUE,1
CVOE_D,4,1,1,80,E 43,,,FALSE,CV,p,693,cv,E,3,v,v,TRUE,1
CVOE_D,4,1,1,81,D 69,,,TRUE,CV,q,768,cv,D,9,c,c,TRUE,1
CVOE_D,4,1,1,82,H 11,,,TRUE,CV,q,603,cv,H,1,c,c,TRUE,1
CVOE_D,4,1,1,83,P 43,,,TRUE,CV,q,820,cv,P,3,c,c,TRUE,1
CVOE_D,4,1,1,84,O 67,,,FALSE,CV,p,719,cv,O,7,v,v,TRUE,1
CVOE_D,4,1,1,85,S 91,,,FALSE,CV,q,743,cv,S,1,c,c,TRUE,1
CVOE_D,4,1,1,86,J 68,,,TRUE,CV,q,693,cv,J,8,c,c,TRUE,1
CVOE_D,4,1,1,87,S 47,,,FALSE,CV,q,568,cv,S,7,c,c,TRUE,1
CVOE_D,4,1,1,88,I 81,,,TRUE,CV,p,675,cv,I,1,v,v,TRUE,1
CVOE_D,4,1,1,89,J 39,,,FALSE,CV,q,580,cv,J,9,c,c,TRUE,1
CVOE_D,4,1,1,90,A 11,,,TRUE,CV,p,671,cv,A,1,v,v,TRUE,1
CVOE_D,4,1,1,91,O 76,,,FALSE,CV,p,669,cv,O,6,v,v,TRUE,1
CVOE_D,4,1,1,92,A 62,,,FALSE,CV,p,618,cv,A,2,v,v,TRUE,1
CVOE_D,4,1,1,93,O 27,,,TRUE,CV,p,582,cv,O,7,v,v,TRUE,1
CVOE_D,4,1,1,94,E 66,,,FALSE,CV,p,643,cv,E,6,v,v,TRUE,1
CVOE_D,4,1,1,95,J 62,,,TRUE,CV,q,652,cv,J,2,c,c,TRUE,1
CVOE_D,4,1,1,96,H 72,,,TRUE,CV,q,655,cv,H,2,c,c,TRUE,1
CVOE_D,4,1,1,97,E 49,,,TRUE,CV,p,818,cv,E,9,v,v,TRUE,1
CVOE_D,4,1,1,98,D 52,,,TRUE,CV,q,533,cv,D,2,c,c,TRUE,1
CVOE_D,4,1,1,99,H 62,,,TRUE,CV,q,624,cv,H,2,c,c,TRUE,1
CVOE_D,4,1,1,100,I 11,,,TRUE,CV,p,974,cv,I,1,v,v,TRUE,1
CVOE_D,4,1,1,101,A 98,,,FALSE,CV,p,657,cv,A,8,v,v,TRUE,1
CVOE_D,4,1,1,102,H 29,,,FALSE,CV,q,604,cv,H,9,c,c,TRUE,1
CVOE_D,4,1,1,103,E 83,,,TRUE,CV,p,645,cv,E,3,v,v,TRUE,1
CVOE_D,4,1,1,104,D 43,,,FALSE,CV,q,613,cv,D,3,c,c,TRUE,1
CVOE_D,4,1,1,105,P 45,,,TRUE,CV,q,528,cv,P,5,c,c,TRUE,1
CVOE_D,4,1,1,106,J 17,,,TRUE,CV,q,675,cv,J,7,c,c,TRUE,1
CVOE_D,12,1,1,11,A 71,,,FALSE,CV,p,2677,cv,A,1,v,v,TRUE,1
CVOE_D,12,1,1,12,I 66,,,TRUE,CV,p,926,cv,I,6,v,v,TRUE,1
CVOE_D,12,1,1,13,S 30,,,FALSE,CV,q,823,cv,S,0,c,c,TRUE,1
CVOE_D,12,1,1,14,D 20,,,FALSE,CV,q,589,cv,D,0,c,c,TRUE,1
CVOE_D,12,1,1,15,I 31,,,FALSE,CV,p,738,cv,I,1,v,v,TRUE,1
CVOE_D,12,1,1,16,P 16,,,FALSE,CV,q,750,cv,P,6,c,c,TRUE,1
CVOE_D,12,1,1,17,A 49,,,FALSE,CV,p,635,cv,A,9,v,v,TRUE,1
CVOE_D,12,1,1,18,O 64,,,TRUE,CV,p,828,cv,O,4,v,v,TRUE,1
CVOE_D,12,1,1,19,D 02,,,FALSE,CV,q,506,cv,D,2,c,c,TRUE,1
CVOE_D,12,1,1,20,P 81,,,TRUE,CV,q,775,cv,P,1,c,c,TRUE,1
CVOE_D,12,1,1,21,J 58,,,FALSE,CV,q,499,cv,J,8,c,c,TRUE,1
CVOE_D,12,1,1,22,A 22,,,TRUE,CV,p,646,cv,A,2,v,v,TRUE,1
CVOE_D,12,1,1,23,J 72,,,FALSE,CV,q,534,cv,J,2,c,c,TRUE,1
CVOE_D,12,1,1,24,P 91,,,TRUE,CV,q,737,cv,P,1,c,c,TRUE,1
CVOE_D,12,1,1,25,E 19,,,FALSE,CV,p,948,cv,E,9,v,v,TRUE,1
CVOE_D,12,1,1,26,I 30,,,TRUE,CV,p,658,cv,I,0,v,v,TRUE,1
CVOE_D,12,1,1,27,D 91,,,TRUE,CV,q,589,cv,D,1,c,c,TRUE,1
CVOE_D,12,1,1,28,O 48,,,TRUE,CV,p,627,cv,O,8,v,v,TRUE,1
CVOE_D,12,1,1,29,A 89,,,FALSE,CV,p,697,cv,A,9,v,v,TRUE,1
CVOE_D,12,1,1,30,U 11,,,FALSE,CV,p,692,cv,U,1,v,v,TRUE,1
CVOE_D,12,1,1,31,I 76,,,TRUE,CV,p,471,cv,I,6,v,v,TRUE,1
CVOE_D,12,1,1,32,U 89,,,FALSE,CV,p,501,cv,U,9,v,v,TRUE,1
CVOE_D,12,1,1,33,D 63,,,TRUE,CV,q,640,cv,D,3,c,c,TRUE,1
CVOE_D,12,1,1,34,H 70,,,FALSE,CV,q,800,cv,H,0,c,c,TRUE,1
CVOE_D,12,1,1,35,D 48,,,FALSE,CV,q,729,cv,D,8,c,c,TRUE,1
CVOE_D,12,1,1,36,P 56,,,FALSE,CV,q,788,cv,P,6,c,c,TRUE,1
CVOE_D,12,1,1,37,O 77,,,FALSE,CV,p,586,cv,O,7,v,v,TRUE,1
CVOE_D,12,1,1,38,P 42,,,FALSE,CV,q,519,cv,P,2,c,c,TRUE,1
CVOE_D,12,1,1,39,H 22,,,FALSE,CV,q,904,cv,H,2,c,c,TRUE,1
CVOE_D,12,1,1,40,E 42,,,TRUE,CV,p,662,cv,E,2,v,v,TRUE,1
CVOE_D,12,1,1,41,J 28,,,FALSE,CV,q,468,cv,J,8,c,c,TRUE,1
CVOE_D,12,1,1,42,E 95,,,FALSE,CV,p,577,cv,E,5,v,v,TRUE,1
CVOE_D,12,1,1,43,S 63,,,TRUE,CV,q,484,cv,S,3,c,c,TRUE,1
CVOE_D,12,1,1,44,H 50,,,FALSE,CV,q,565,cv,H,0,c,c,TRUE,1
CVOE_D,12,1,1,45,S 33,,,TRUE,CV,q,1117,cv,S,3,c,c,TRUE,1
CVOE_D,12,1,1,46,P 57,,,TRUE,CV,q,502,cv,P,7,c,c,TRUE,1
CVOE_D,12,1,1,47,E 23,,,FALSE,CV,p,467,cv,E,3,v,v,TRUE,1
CVOE_D,12,1,1,48,S 61,,,TRUE,CV,q,529,cv,S,1,c,c,TRUE,1
CVOE_D,12,1,1,49,U 67,,,FALSE,CV,p,636,cv,U,7,v,v,TRUE,1
CVOE_D,12,1,1,50,H 32,,,FALSE,CV,q,477,cv,H,2,c,c,TRUE,1
CVOE_D,12,1,1,51,U 50,,,TRUE,CV,p,693,cv,U,0,v,v,TRUE,1
CVOE_D,12,1,1,52,O 49,,,FALSE,CV,p,528,cv,O,9,v,v,TRUE,1
CVOE_D,12,1,1,53,U 32,,,TRUE,CV,p,595,cv,U,2,v,v,TRUE,1
CVOE_D,12,1,1,54,J 78,,,FALSE,CV,q,516,cv,J,8,c,c,TRUE,1
CVOE_D,12,1,1,55,S 54,,,FALSE,CV,q,724,cv,S,4,c,c,TRUE,1
CVOE_D,12,1,1,56,J 27,,,TRUE,CV,q,573,cv,J,7,c,c,TRUE,1
CVOE_D,12,1,1,57,S 06,,,FALSE,CV,q,504,cv,S,6,c,c,TRUE,1
CVOE_D,12,1,1,58,D 67,,,TRUE,CV,q,517,cv,D,7,c,c,TRUE,1
CVOE_D,12,1,1,59,A 79,,,FALSE,CV,p,718,cv,A,9,v,v,TRUE,1
CVOE_D,12,1,1,60,S 52,,,FALSE,CV,q,470,cv,S,2,c,c,TRUE,1
CVOE_D,12,1,1,61,U 16,,,TRUE,CV,p,604,cv,U,6,v,v,TRUE,1
CVOE_D,12,1,1,62,O 82,,,TRUE,CV,p,484,cv,O,2,v,v,TRUE,1
CVOE_D,12,1,1,63,H 87,,,TRUE,CV,q,565,cv,H,7,c,c,TRUE,1
CVOE_D,12,1,1,64,I 32,,,TRUE,CV,p,533,cv,I,2,v,v,TRUE,1
CVOE_D,12,1,1,65,U 37,,,FALSE,CV,p,512,cv,U,7,v,v,TRUE,1
CVOE_D,12,1,1,66,I 42,,,TRUE,CV,p,510,cv,I,2,v,v,TRUE,1
CVOE_D,12,1,1,67,D 65,,,TRUE,CV,q,492,cv,D,5,c,c,TRUE,1
CVOE_D,12,1,1,68,U 77,,,FALSE,CV,q,543,cv,U,7,v,c,FALSE,0
CVOE_D,12,1,1,69,E 12,,,TRUE,CV,p,964,cv,E,2,v,v,TRUE,1
CVOE_D,12,1,1,70,I 60,,,TRUE,CV,p,541,cv,I,0,v,v,TRUE,1
CVOE_D,12,1,1,71,J 36,,,FALSE,CV,q,536,cv,J,6,c,c,TRUE,1
CVOE_D,12,1,1,72,H 75,,,TRUE,CV,q,603,cv,H,5,c,c,TRUE,1
CVOE_D,12,1,1,73,I 50,,,TRUE,CV,p,516,cv,I,0,v,v,TRUE,1
CVOE_D,12,1,1,74,E 99,,,FALSE,CV,p,492,cv,E,9,v,v,TRUE,1
CVOE_D,12,1,1,75,A 86,,,TRUE,CV,p,487,cv,A,6,v,v,TRUE,1
CVOE_D,12,1,1,76,U 48,,,TRUE,CV,p,455,cv,U,8,v,v,TRUE,1
CVOE_D,12,1,1,77,E 01,,,FALSE,CV,p,394,cv,E,1,v,v,TRUE,1
CVOE_D,12,1,1,78,A 78,,,TRUE,CV,p,427,cv,A,8,v,v,TRUE,1
CVOE_D,12,1,1,79,P 60,,,FALSE,CV,q,440,cv,P,0,c,c,TRUE,1
CVOE_D,12,1,1,80,E 43,,,FALSE,CV,p,505,cv,E,3,v,v,TRUE,1
CVOE_D,12,1,1,81,D 69,,,TRUE,CV,q,478,cv,D,9,c,c,TRUE,1
CVOE_D,12,1,1,82,H 11,,,TRUE,CV,q,535,cv,H,1,c,c,TRUE,1
CVOE_D,12,1,1,83,P 43,,,TRUE,CV,q,474,cv,P,3,c,c,TRUE,1
CVOE_D,12,1,1,84,O 67,,,FALSE,CV,p,456,cv,O,7,v,v,TRUE,1
CVOE_D,12,1,1,85,S 91,,,FALSE,CV,q,539,cv,S,1,c,c,TRUE,1
CVOE_D,12,1,1,86,J 68,,,TRUE,CV,q,494,cv,J,8,c,c,TRUE,1
CVOE_D,12,1,1,87,S 47,,,FALSE,CV,q,505,cv,S,7,c,c,TRUE,1
CVOE_D,12,1,1,88,I 81,,,TRUE,CV,p,479,cv,I,1,v,v,TRUE,1
CVOE_D,12,1,1,89,J 39,,,FALSE,CV,q,463,cv,J,9,c,c,TRUE,1
CVOE_D,12,1,1,90,A 11,,,TRUE,CV,p,517,cv,A,1,v,v,TRUE,1
CVOE_D,12,1,1,91,O 76,,,FALSE,CV,p,525,cv,O,6,v,v,TRUE,1
CVOE_D,12,1,1,92,A 62,,,FALSE,CV,p,485,cv,A,2,v,v,TRUE,1
CVOE_D,12,1,1,93,O 27,,,TRUE,CV,p,406,cv,O,7,v,v,TRUE,1
CVOE_D,12,1,1,94,E 66,,,FALSE,CV,p,438,cv,E,6,v,v,TRUE,1
CVOE_D,12,1,1,95,J 62,,,TRUE,CV,q,575,cv,J,2,c,c,TRUE,1
CVOE_D,12,1,1,96,H 72,,,TRUE,CV,q,498,cv,H,2,c,c,TRUE,1
CVOE_D,12,1,1,97,E 49,,,TRUE,CV,p,477,cv,E,9,v,v,TRUE,1
CVOE_D,12,1,1,98,D 52,,,TRUE,CV,q,493,cv,D,2,c,c,TRUE,1
CVOE_D,12,1,1,99,H 62,,,TRUE,CV,p,752,cv,H,2,c,v,FALSE,0
CVOE_D,12,1,1,100,I 11,,,TRUE,CV,p,702,cv,I,1,v,v,TRUE,1
CVOE_D,12,1,1,101,A 98,,,FALSE,CV,p,524,cv,A,8,v,v,TRUE,1
CVOE_D,12,1,1,102,H 29,,,FALSE,CV,q,820,cv,H,9,c,c,TRUE,1
CVOE_D,12,1,1,103,E 83,,,TRUE,CV,p,463,cv,E,3,v,v,TRUE,1
CVOE_D,12,1,1,104,D 43,,,FALSE,CV,q,485,cv,D,3,c,c,TRUE,1
CVOE_D,12,1,1,105,P 45,,,TRUE,CV,q,525,cv,P,5,c,c,TRUE,1
CVOE_D,12,1,1,106,J 17,,,TRUE,CV,q,470,cv,J,7,c,c,TRUE,1
CVOE_D,16,1,1,11,A 71,,,FALSE,CV,p,3638,cv,A,1,v,v,TRUE,1
CVOE_D,16,1,1,12,I 66,,,TRUE,CV,p,1496,cv,I,6,v,v,TRUE,1
CVOE_D,16,1,1,13,S 30,,,FALSE,CV,q,2051,cv,S,0,c,c,TRUE,1
CVOE_D,16,1,1,14,D 20,,,FALSE,CV,q,687,cv,D,0,c,c,TRUE,1
CVOE_D,16,1,1,15,I 31,,,FALSE,CV,p,695,cv,I,1,v,v,TRUE,1
CVOE_D,16,1,1,16,P 16,,,FALSE,CV,q,618,cv,P,6,c,c,TRUE,1
CVOE_D,16,1,1,17,A 49,,,FALSE,CV,p,662,cv,A,9,v,v,TRUE,1
CVOE_D,16,1,1,18,O 64,,,TRUE,CV,p,2587,cv,O,4,v,v,TRUE,1
CVOE_D,16,1,1,19,D 02,,,FALSE,CV,q,714,cv,D,2,c,c,TRUE,1
CVOE_D,16,1,1,20,P 81,,,TRUE,CV,p,728,cv,P,1,c,v,FALSE,0
CVOE_D,16,1,1,21,J 58,,,FALSE,CV,q,4563,cv,J,8,c,c,TRUE,1
CVOE_D,16,1,1,22,A 22,,,TRUE,CV,p,1149,cv,A,2,v,v,TRUE,1
CVOE_D,16,1,1,23,J 72,,,FALSE,CV,q,675,cv,J,2,c,c,TRUE,1
CVOE_D,16,1,1,24,P 91,,,TRUE,CV,q,587,cv,P,1,c,c,TRUE,1
CVOE_D,16,1,1,25,E 19,,,FALSE,CV,p,1993,cv,E,9,v,v,TRUE,1
CVOE_D,16,1,1,26,I 30,,,TRUE,CV,p,1359,cv,I,0,v,v,TRUE,1
CVOE_D,16,1,1,27,D 91,,,TRUE,CV,q,640,cv,D,1,c,c,TRUE,1
CVOE_D,16,1,1,28,O 48,,,TRUE,CV,p,600,cv,O,8,v,v,TRUE,1
CVOE_D,16,1,1,29,A 89,,,FALSE,CV,p,817,cv,A,9,v,v,TRUE,1
CVOE_D,16,1,1,30,U 11,,,FALSE,CV,p,796,cv,U,1,v,v,TRUE,1
CVOE_D,16,1,1,31,I 76,,,TRUE,CV,p,860,cv,I,6,v,v,TRUE,1
CVOE_D,16,1,1,32,U 89,,,FALSE,CV,p,976,cv,U,9,v,v,TRUE,1
CVOE_D,16,1,1,33,D 63,,,TRUE,CV,q,747,cv,D,3,c,c,TRUE,1
CVOE_D,16,1,1,34,H 70,,,FALSE,CV,q,1441,cv,H,0,c,c,TRUE,1
CVOE_D,16,1,1,35,D 48,,,FALSE,CV,q,777,cv,D,8,c,c,TRUE,1
CVOE_D,16,1,1,36,P 56,,,FALSE,CV,q,757,cv,P,6,c,c,TRUE,1
CVOE_D,16,1,1,37,O 77,,,FALSE,CV,p,1253,cv,O,7,v,v,TRUE,1
CVOE_D,16,1,1,38,P 42,,,FALSE,CV,q,888,cv,P,2,c,c,TRUE,1
CVOE_D,16,1,1,39,H 22,,,FALSE,CV,q,1372,cv,H,2,c,c,TRUE,1
CVOE_D,16,1,1,40,E 42,,,TRUE,CV,p,919,cv,E,2,v,v,TRUE,1
CVOE_D,16,1,1,41,J 28,,,FALSE,CV,q,1288,cv,J,8,c,c,TRUE,1
CVOE_D,16,1,1,42,E 95,,,FALSE,CV,p,827,cv,E,5,v,v,TRUE,1
CVOE_D,16,1,1,43,S 63,,,TRUE,CV,q,689,cv,S,3,c,c,TRUE,1
CVOE_D,16,1,1,44,H 50,,,FALSE,CV,q,716,cv,H,0,c,c,TRUE,1
CVOE_D,16,1,1,45,S 33,,,TRUE,CV,q,508,cv,S,3,c,c,TRUE,1
CVOE_D,16,1,1,46,P 57,,,TRUE,CV,q,554,cv,P,7,c,c,TRUE,1
CVOE_D,16,1,1,47,E 23,,,FALSE,CV,p,880,cv,E,3,v,v,TRUE,1
CVOE_D,16,1,1,48,S 61,,,TRUE,CV,q,672,cv,S,1,c,c,TRUE,1
CVOE_D,16,1,1,49,U 67,,,FALSE,CV,p,718,cv,U,7,v,v,TRUE,1
CVOE_D,16,1,1,50,H 32,,,FALSE,CV,q,1167,cv,H,2,c,c,TRUE,1
CVOE_D,16,1,1,51,U 50,,,TRUE,CV,p,679,cv,U,0,v,v,TRUE,1
CVOE_D,16,1,1,52,O 49,,,FALSE,CV,p,1000,cv,O,9,v,v,TRUE,1
CVOE_D,16,1,1,53,U 32,,,TRUE,CV,p,544,cv,U,2,v,v,TRUE,1
CVOE_D,16,1,1,54,J 78,,,FALSE,CV,q,678,cv,J,8,c,c,TRUE,1
CVOE_D,16,1,1,55,S 54,,,FALSE,CV,q,1590,cv,S,4,c,c,TRUE,1
CVOE_D,16,1,1,56,J 27,,,TRUE,CV,q,765,cv,J,7,c,c,TRUE,1
CVOE_D,16,1,1,57,S 06,,,FALSE,CV,q,757,cv,S,6,c,c,TRUE,1
CVOE_D,16,1,1,58,D 67,,,TRUE,CV,q,1230,cv,D,7,c,c,TRUE,1
CVOE_D,16,1,1,59,A 79,,,FALSE,CV,p,540,cv,A,9,v,v,TRUE,1
CVOE_D,16,1,1,60,S 52,,,FALSE,CV,q,591,cv,S,2,c,c,TRUE,1
CVOE_D,16,1,1,61,U 16,,,TRUE,CV,p,556,cv,U,6,v,v,TRUE,1
CVOE_D,16,1,1,62,O 82,,,TRUE,CV,p,797,cv,O,2,v,v,TRUE,1
CVOE_D,16,1,1,63,H 87,,,TRUE,CV,q,557,cv,H,7,c,c,TRUE,1
CVOE_D,16,1,1,64,I 32,,,TRUE,CV,p,486,cv,I,2,v,v,TRUE,1
CVOE_D,16,1,1,65,U 37,,,FALSE,CV,p,654,cv,U,7,v,v,TRUE,1
CVOE_D,16,1,1,66,I 42,,,TRUE,CV,p,705,cv,I,2,v,v,TRUE,1
CVOE_D,16,1,1,67,D 65,,,TRUE,CV,q,799,cv,D,5,c,c,TRUE,1
CVOE_D,16,1,1,68,U 77,,,FALSE,CV,p,1423,cv,U,7,v,v,TRUE,1
CVOE_D,16,1,1,69,E 12,,,TRUE,CV,p,1046,cv,E,2,v,v,TRUE,1
CVOE_D,16,1,1,70,I 60,,,TRUE,CV,p,638,cv,I,0,v,v,TRUE,1
CVOE_D,16,1,1,71,J 36,,,FALSE,CV,q,671,cv,J,6,c,c,TRUE,1
CVOE_D,16,1,1,72,H 75,,,TRUE,CV,q,852,cv,H,5,c,c,TRUE,1
CVOE_D,16,1,1,73,I 50,,,TRUE,CV,p,840,cv,I,0,v,v,TRUE,1
CVOE_D,16,1,1,74,E 99,,,FALSE,CV,p,800,cv,E,9,v,v,TRUE,1
CVOE_D,16,1,1,75,A 86,,,TRUE,CV,p,609,cv,A,6,v,v,TRUE,1
CVOE_D,16,1,1,76,U 48,,,TRUE,CV,p,1148,cv,U,8,v,v,TRUE,1
CVOE_D,16,1,1,77,E 01,,,FALSE,CV,p,562,cv,E,1,v,v,TRUE,1
CVOE_D,16,1,1,78,A 78,,,TRUE,CV,p,546,cv,A,8,v,v,TRUE,1
CVOE_D,16,1,1,79,P 60,,,FALSE,CV,q,1552,cv,P,0,c,c,TRUE,1
CVOE_D,16,1,1,80,E 43,,,FALSE,CV,p,694,cv,E,3,v,v,TRUE,1
CVOE_D,16,1,1,81,D 69,,,TRUE,CV,q,2705,cv,D,9,c,c,TRUE,1
CVOE_D,16,1,1,82,H 11,,,TRUE,CV,q,832,cv,H,1,c,c,TRUE,1
CVOE_D,16,1,1,83,P 43,,,TRUE,CV,q,733,cv,P,3,c,c,TRUE,1
CVOE_D,16,1,1,84,O 67,,,FALSE,CV,p,681,cv,O,7,v,v,TRUE,1
CVOE_D,16,1,1,85,S 91,,,FALSE,CV,q,633,cv,S,1,c,c,TRUE,1
CVOE_D,16,1,1,86,J 68,,,TRUE,CV,q,1247,cv,J,8,c,c,TRUE,1
CVOE_D,16,1,1,87,S 47,,,FALSE,CV,q,887,cv,S,7,c,c,TRUE,1
CVOE_D,16,1,1,88,I 81,,,TRUE,CV,p,1171,cv,I,1,v,v,TRUE,1
CVOE_D,16,1,1,89,J 39,,,FALSE,CV,q,974,cv,J,9,c,c,TRUE,1
CVOE_D,16,1,1,90,A 11,,,TRUE,CV,p,1713,cv,A,1,v,v,TRUE,1
CVOE_D,16,1,1,91,O 76,,,FALSE,CV,p,5111,cv,O,6,v,v,TRUE,1
CVOE_D,16,1,1,92,A 62,,,FALSE,CV,p,567,cv,A,2,v,v,TRUE,1
CVOE_D,16,1,1,93,O 27,,,TRUE,CV,p,615,cv,O,7,v,v,TRUE,1
CVOE_D,16,1,1,94,E 66,,,FALSE,CV,p,634,cv,E,6,v,v,TRUE,1
CVOE_D,16,1,1,95,J 62,,,TRUE,CV,q,627,cv,J,2,c,c,TRUE,1
CVOE_D,16,1,1,96,H 72,,,TRUE,CV,q,705,cv,H,2,c,c,TRUE,1
CVOE_D,16,1,1,97,E 49,,,TRUE,CV,p,638,cv,E,9,v,v,TRUE,1
CVOE_D,16,1,1,98,D 52,,,TRUE,CV,q,1111,cv,D,2,c,c,TRUE,1
CVOE_D,16,1,1,99,H 62,,,TRUE,CV,q,541,cv,H,2,c,c,TRUE,1
CVOE_D,16,1,1,100,I 11,,,TRUE,CV,p,554,cv,I,1,v,v,TRUE,1
CVOE_D,16,1,1,101,A 98,,,FALSE,CV,p,467,cv,A,8,v,v,TRUE,1
CVOE_D,16,1,1,102,H 29,,,FALSE,CV,q,593,cv,H,9,c,c,TRUE,1
CVOE_D,16,1,1,103,E 83,,,TRUE,CV,p,550,cv,E,3,v,v,TRUE,1
CVOE_D,16,1,1,104,D 43,,,FALSE,CV,q,2188,cv,D,3,c,c,TRUE,1
CVOE_D,16,1,1,105,P 45,,,TRUE,CV,q,850,cv,P,5,c,c,TRUE,1
CVOE_D,16,1,1,106,J 17,,,TRUE,CV,q,1182,cv,J,7,c,c,TRUE,1
CVOE_D,8,1,1,11,A 71,,,FALSE,CV,p,1660,cv,A,1,v,v,TRUE,1
CVOE_D,8,1,1,12,I 66,,,TRUE,CV,p,922,cv,I,6,v,v,TRUE,1
CVOE_D,8,1,1,13,S 30,,,FALSE,CV,q,723,cv,S,0,c,c,TRUE,1
CVOE_D,8,1,1,14,D 20,,,FALSE,CV,q,883,cv,D,0,c,c,TRUE,1
CVOE_D,8,1,1,15,I 31,,,FALSE,CV,p,868,cv,I,1,v,v,TRUE,1
CVOE_D,8,1,1,16,P 16,,,FALSE,CV,q,842,cv,P,6,c,c,TRUE,1
CVOE_D,8,1,1,17,A 49,,,FALSE,CV,p,714,cv,A,9,v,v,TRUE,1
CVOE_D,8,1,1,18,O 64,,,TRUE,CV,p,763,cv,O,4,v,v,TRUE,1
CVOE_D,8,1,1,19,D 02,,,FALSE,CV,q,771,cv,D,2,c,c,TRUE,1
CVOE_D,8,1,1,20,P 81,,,TRUE,CV,q,1006,cv,P,1,c,c,TRUE,1
CVOE_D,8,1,1,21,J 58,,,FALSE,CV,q,991,cv,J,8,c,c,TRUE,1
CVOE_D,8,1,1,22,A 22,,,TRUE,CV,p,557,cv,A,2,v,v,TRUE,1
CVOE_D,8,1,1,23,J 72,,,FALSE,CV,q,869,cv,J,2,c,c,TRUE,1
CVOE_D,8,1,1,24,P 91,,,TRUE,CV,q,611,cv,P,1,c,c,TRUE,1
CVOE_D,8,1,1,25,E 19,,,FALSE,CV,p,686,cv,E,9,v,v,TRUE,1
CVOE_D,8,1,1,26,I 30,,,TRUE,CV,p,791,cv,I,0,v,v,TRUE,1
CVOE_D,8,1,1,27,D 91,,,TRUE,CV,q,732,cv,D,1,c,c,TRUE,1
CVOE_D,8,1,1,28,O 48,,,TRUE,CV,p,976,cv,O,8,v,v,TRUE,1
CVOE_D,8,1,1,29,A 89,,,FALSE,CV,p,859,cv,A,9,v,v,TRUE,1
CVOE_D,8,1,1,30,U 11,,,FALSE,CV,p,870,cv,U,1,v,v,TRUE,1
CVOE_D,8,1,1,31,I 76,,,TRUE,CV,p,588,cv,I,6,v,v,TRUE,1
CVOE_D,8,1,1,32,U 89,,,FALSE,CV,p,794,cv,U,9,v,v,TRUE,1
CVOE_D,8,1,1,33,D 63,,,TRUE,CV,q,698,cv,D,3,c,c,TRUE,1
CVOE_D,8,1,1,34,H 70,,,FALSE,CV,q,741,cv,H,0,c,c,TRUE,1
CVOE_D,8,1,1,35,D 48,,,FALSE,CV,q,755,cv,D,8,c,c,TRUE,1
CVOE_D,8,1,1,36,P 56,,,FALSE,CV,q,764,cv,P,6,c,c,TRUE,1
CVOE_D,8,1,1,37,O 77,,,FALSE,CV,p,788,cv,O,7,v,v,TRUE,1
CVOE_D,8,1,1,38,P 42,,,FALSE,CV,q,682,cv,P,2,c,c,TRUE,1
CVOE_D,8,1,1,39,H 22,,,FALSE,CV,q,690,cv,H,2,c,c,TRUE,1
CVOE_D,8,1,1,40,E 42,,,TRUE,CV,p,669,cv,E,2,v,v,TRUE,1
CVOE_D,8,1,1,41,J 28,,,FALSE,CV,q,587,cv,J,8,c,c,TRUE,1
CVOE_D,8,1,1,42,E 95,,,FALSE,CV,p,521,cv,E,5,v,v,TRUE,1
CVOE_D,8,1,1,43,S 63,,,TRUE,CV,q,561,cv,S,3,c,c,TRUE,1
CVOE_D,8,1,1,44,H 50,,,FALSE,CV,q,890,cv,H,0,c,c,TRUE,1
CVOE_D,8,1,1,45,S 33,,,TRUE,CV,q,1117,cv,S,3,c,c,TRUE,1
CVOE_D,8,1,1,46,P 57,,,TRUE,CV,q,950,cv,P,7,c,c,TRUE,1
CVOE_D,8,1,1,47,E 23,,,FALSE,CV,p,596,cv,E,3,v,v,TRUE,1
CVOE_D,8,1,1,48,S 61,,,TRUE,CV,q,764,cv,S,1,c,c,TRUE,1
CVOE_D,8,1,1,49,U 67,,,FALSE,CV,p,916,cv,U,7,v,v,TRUE,1
CVOE_D,8,1,1,50,H 32,,,FALSE,CV,q,741,cv,H,2,c,c,TRUE,1
CVOE_D,8,1,1,51,U 50,,,TRUE,CV,p,867,cv,U,0,v,v,TRUE,1
CVOE_D,8,1,1,52,O 49,,,FALSE,CV,p,841,cv,O,9,v,v,TRUE,1
CVOE_D,8,1,1,53,U 32,,,TRUE,CV,p,1177,cv,U,2,v,v,TRUE,1
CVOE_D,8,1,1,54,J 78,,,FALSE,CV,q,845,cv,J,8,c,c,TRUE,1
CVOE_D,8,1,1,55,S 54,,,FALSE,CV,q,1061,cv,S,4,c,c,TRUE,1
CVOE_D,8,1,1,56,J 27,,,TRUE,CV,q,883,cv,J,7,c,c,TRUE,1
CVOE_D,8,1,1,57,S 06,,,FALSE,CV,q,1516,cv,S,6,c,c,TRUE,1
CVOE_D,8,1,1,58,D 67,,,TRUE,CV,q,668,cv,D,7,c,c,TRUE,1
CVOE_D,8,1,1,59,A 79,,,FALSE,CV,p,874,cv,A,9,v,v,TRUE,1
CVOE_D,8,1,1,60,S 52,,,FALSE,CV,q,755,cv,S,2,c,c,TRUE,1
CVOE_D,8,1,1,61,U 16,,,TRUE,CV,p,731,cv,U,6,v,v,TRUE,1
CVOE_D,8,1,1,62,O 82,,,TRUE,CV,p,742,cv,O,2,v,v,TRUE,1
CVOE_D,8,1,1,63,H 87,,,TRUE,CV,q,812,cv,H,7,c,c,TRUE,1
CVOE_D,8,1,1,64,I 32,,,TRUE,CV,p,1343,cv,I,2,v,v,TRUE,1
CVOE_D,8,1,1,65,U 37,,,FALSE,CV,p,613,cv,U,7,v,v,TRUE,1
CVOE_D,8,1,1,66,I 42,,,TRUE,CV,p,712,cv,I,2,v,v,TRUE,1
CVOE_D,8,1,1,67,D 65,,,TRUE,CV,q,718,cv,D,5,c,c,TRUE,1
CVOE_D,8,1,1,68,U 77,,,FALSE,CV,p,831,cv,U,7,v,v,TRUE,1
CVOE_D,8,1,1,69,E 12,,,TRUE,CV,p,732,cv,E,2,v,v,TRUE,1
CVOE_D,8,1,1,70,I 60,,,TRUE,CV,p,632,cv,I,0,v,v,TRUE,1
CVOE_D,8,1,1,71,J 36,,,FALSE,CV,q,1133,cv,J,6,c,c,TRUE,1
CVOE_D,8,1,1,72,H 75,,,TRUE,CV,q,897,cv,H,5,c,c,TRUE,1
CVOE_D,8,1,1,73,I 50,,,TRUE,CV,p,900,cv,I,0,v,v,TRUE,1
CVOE_D,8,1,1,74,E 99,,,FALSE,CV,p,1103,cv,E,9,v,v,TRUE,1
CVOE_D,8,1,1,75,A 86,,,TRUE,CV,p,805,cv,A,6,v,v,TRUE,1
CVOE_D,8,1,1,76,U 48,,,TRUE,CV,p,694,cv,U,8,v,v,TRUE,1
CVOE_D,8,1,1,77,E 01,,,FALSE,CV,p,929,cv,E,1,v,v,TRUE,1
CVOE_D,8,1,1,78,A 78,,,TRUE,CV,p,716,cv,A,8,v,v,TRUE,1
CVOE_D,8,1,1,79,P 60,,,FALSE,CV,q,724,cv,P,0,c,c,TRUE,1
CVOE_D,8,1,1,80,E 43,,,FALSE,CV,p,717,cv,E,3,v,v,TRUE,1
CVOE_D,8,1,1,81,D 69,,,TRUE,CV,q,629,cv,D,9,c,c,TRUE,1
CVOE_D,8,1,1,82,H 11,,,TRUE,CV,q,755,cv,H,1,c,c,TRUE,1
CVOE_D,8,1,1,83,P 43,,,TRUE,CV,q,660,cv,P,3,c,c,TRUE,1
CVOE_D,8,1,1,84,O 67,,,FALSE,CV,p,783,cv,O,7,v,v,TRUE,1
CVOE_D,8,1,1,85,S 91,,,FALSE,CV,q,669,cv,S,1,c,c,TRUE,1
CVOE_D,8,1,1,86,J 68,,,TRUE,CV,q,818,cv,J,8,c,c,TRUE,1
CVOE_D,8,1,1,87,S 47,,,FALSE,CV,q,806,cv,S,7,c,c,TRUE,1
CVOE_D,8,1,1,88,I 81,,,TRUE,CV,p,982,cv,I,1,v,v,TRUE,1
CVOE_D,8,1,1,89,J 39,,,FALSE,CV,q,1132,cv,J,9,c,c,TRUE,1
CVOE_D,8,1,1,90,A 11,,,TRUE,CV,p,847,cv,A,1,v,v,TRUE,1
CVOE_D,8,1,1,91,O 76,,,FALSE,CV,p,610,cv,O,6,v,v,TRUE,1
CVOE_D,8,1,1,92,A 62,,,FALSE,CV,p,1238,cv,A,2,v,v,TRUE,1
CVOE_D,8,1,1,93,O 27,,,TRUE,CV,p,830,cv,O,7,v,v,TRUE,1
CVOE_D,8,1,1,94,E 66,,,FALSE,CV,p,1020,cv,E,6,v,v,TRUE,1
CVOE_D,8,1,1,95,J 62,,,TRUE,CV,q,538,cv,J,2,c,c,TRUE,1
CVOE_D,8,1,1,96,H 72,,,TRUE,CV,q,989,cv,H,2,c,c,TRUE,1
CVOE_D,8,1,1,97,E 49,,,TRUE,CV,p,931,cv,E,9,v,v,TRUE,1
CVOE_D,8,1,1,98,D 52,,,TRUE,CV,q,686,cv,D,2,c,c,TRUE,1
CVOE_D,8,1,1,99,H 62,,,TRUE,CV,q,1071,cv,H,2,c,c,TRUE,1
CVOE_D,8,1,1,100,I 11,,,TRUE,CV,p,957,cv,I,1,v,v,TRUE,1
CVOE_D,8,1,1,101,A 98,,,FALSE,CV,p,781,cv,A,8,v,v,TRUE,1
CVOE_D,8,1,1,102,H 29,,,FALSE,CV,q,947,cv,H,9,c,c,TRUE,1
CVOE_D,8,1,1,103,E 83,,,TRUE,CV,p,937,cv,E,3,v,v,TRUE,1
CVOE_D,8,1,1,104,D 43,,,FALSE,CV,q,1068,cv,D,3,c,c,TRUE,1
CVOE_D,8,1,1,105,P 45,,,TRUE,CV,q,1298,cv,P,5,c,c,TRUE,1
CVOE_D,8,1,1,106,J 17,,,TRUE,CV,q,853,cv,J,7,c,c,TRUE,1
CVOE updated,13,1,1,11,A 71,,,FALSE,CV,p,2671,cv,A,1,v,v,TRUE,1
CVOE updated,13,1,1,12,I 66,,,TRUE,CV,p,1062,cv,I,6,v,v,TRUE,1
CVOE updated,13,1,1,13,S 30,,,FALSE,CV,q,595,cv,S,0,c,c,TRUE,1
CVOE updated,13,1,1,14,D 20,,,FALSE,CV,q,748,cv,D,0,c,c,TRUE,1
CVOE updated,13,1,1,15,I 31,,,FALSE,CV,p,1090,cv,I,1,v,v,TRUE,1
CVOE updated,13,1,1,16,P 16,,,FALSE,CV,q,692,cv,P,6,c,c,TRUE,1
CVOE updated,13,1,1,17,A 49,,,FALSE,CV,p,703,cv,A,9,v,v,TRUE,1
CVOE updated,13,1,1,18,O 64,,,TRUE,CV,p,1006,cv,O,4,v,v,TRUE,1
CVOE updated,13,1,1,19,D 02,,,FALSE,CV,q,598,cv,D,2,c,c,TRUE,1
CVOE updated,13,1,1,20,P 81,,,TRUE,CV,q,918,cv,P,1,c,c,TRUE,1
CVOE updated,13,1,1,21,J 58,,,FALSE,CV,q,623,cv,J,8,c,c,TRUE,1
CVOE updated,13,1,1,22,A 22,,,TRUE,CV,p,781,cv,A,2,v,v,TRUE,1
CVOE updated,13,1,1,23,J 72,,,FALSE,CV,q,634,cv,J,2,c,c,TRUE,1
CVOE updated,13,1,1,24,P 91,,,TRUE,CV,q,1115,cv,P,1,c,c,TRUE,1
CVOE updated,13,1,1,25,E 19,,,FALSE,CV,p,747,cv,E,9,v,v,TRUE,1
CVOE updated,13,1,1,26,I 30,,,TRUE,CV,p,577,cv,I,0,v,v,TRUE,1
CVOE updated,13,1,1,27,D 91,,,TRUE,CV,q,644,cv,D,1,c,c,TRUE,1
CVOE updated,13,1,1,28,O 48,,,TRUE,CV,p,533,cv,O,8,v,v,TRUE,1
CVOE updated,13,1,1,29,A 89,,,FALSE,CV,p,729,cv,A,9,v,v,TRUE,1
CVOE updated,13,1,1,30,U 11,,,FALSE,CV,p,699,cv,U,1,v,v,TRUE,1
CVOE updated,13,1,1,31,I 76,,,TRUE,CV,p,679,cv,I,6,v,v,TRUE,1
CVOE updated,13,1,1,32,U 89,,,FALSE,CV,p,655,cv,U,9,v,v,TRUE,1
CVOE updated,13,1,1,33,D 63,,,TRUE,CV,q,585,cv,D,3,c,c,TRUE,1
CVOE updated,13,1,1,34,H 70,,,FALSE,CV,q,631,cv,H,0,c,c,TRUE,1
CVOE updated,13,1,1,35,D 48,,,FALSE,CV,q,870,cv,D,8,c,c,TRUE,1
CVOE updated,13,1,1,36,P 56,,,FALSE,CV,q,643,cv,P,6,c,c,TRUE,1
CVOE updated,13,1,1,37,O 77,,,FALSE,CV,p,475,cv,O,7,v,v,TRUE,1
CVOE updated,13,1,1,38,P 42,,,FALSE,CV,q,956,cv,P,2,c,c,TRUE,1
CVOE updated,13,1,1,39,H 22,,,FALSE,CV,q,540,cv,H,2,c,c,TRUE,1
CVOE updated,13,1,1,40,E 42,,,TRUE,CV,p,618,cv,E,2,v,v,TRUE,1
CVOE updated,13,1,1,41,J 28,,,FALSE,CV,q,574,cv,J,8,c,c,TRUE,1
CVOE updated,13,1,1,42,E 95,,,FALSE,CV,p,697,cv,E,5,v,v,TRUE,1
CVOE updated,13,1,1,43,S 63,,,TRUE,CV,q,531,cv,S,3,c,c,TRUE,1
CVOE updated,13,1,1,44,H 50,,,FALSE,CV,q,566,cv,H,0,c,c,TRUE,1
CVOE updated,13,1,1,45,S 33,,,TRUE,CV,q,1241,cv,S,3,c,c,TRUE,1
CVOE updated,13,1,1,46,P 57,,,TRUE,CV,q,811,cv,P,7,c,c,TRUE,1
CVOE updated,13,1,1,47,E 23,,,FALSE,CV,p,685,cv,E,3,v,v,TRUE,1
CVOE updated,13,1,1,48,S 61,,,TRUE,CV,q,558,cv,S,1,c,c,TRUE,1
CVOE updated,13,1,1,49,U 67,,,FALSE,CV,p,655,cv,U,7,v,v,TRUE,1
CVOE updated,13,1,1,50,H 32,,,FALSE,CV,q,546,cv,H,2,c,c,TRUE,1
CVOE updated,13,1,1,51,U 50,,,TRUE,CV,p,687,cv,U,0,v,v,TRUE,1
CVOE updated,13,1,1,52,O 49,,,FALSE,CV,p,674,cv,O,9,v,v,TRUE,1
CVOE updated,13,1,1,53,U 32,,,TRUE,CV,p,532,cv,U,2,v,v,TRUE,1
CVOE updated,13,1,1,54,J 78,,,FALSE,CV,q,550,cv,J,8,c,c,TRUE,1
CVOE updated,13,1,1,55,S 54,,,FALSE,CV,q,683,cv,S,4,c,c,TRUE,1
CVOE updated,13,1,1,56,J 27,,,TRUE,CV,q,572,cv,J,7,c,c,TRUE,1
CVOE updated,13,1,1,57,S 06,,,FALSE,CV,q,543,cv,S,6,c,c,TRUE,1
CVOE updated,13,1,1,58,D 67,,,TRUE,CV,q,646,cv,D,7,c,c,TRUE,1
CVOE updated,13,1,1,59,A 79,,,FALSE,CV,p,477,cv,A,9,v,v,TRUE,1
CVOE updated,13,1,1,60,S 52,,,FALSE,CV,q,614,cv,S,2,c,c,TRUE,1
CVOE updated,13,1,1,61,U 16,,,TRUE,CV,p,506,cv,U,6,v,v,TRUE,1
CVOE updated,13,1,1,62,O 82,,,TRUE,CV,p,566,cv,O,2,v,v,TRUE,1
CVOE updated,13,1,1,63,H 87,,,TRUE,CV,q,513,cv,H,7,c,c,TRUE,1
CVOE updated,13,1,1,64,I 32,,,TRUE,CV,p,610,cv,I,2,v,v,TRUE,1
CVOE updated,13,1,1,65,U 37,,,FALSE,CV,p,862,cv,U,7,v,v,TRUE,1
CVOE updated,13,1,1,66,I 42,,,TRUE,CV,p,532,cv,I,2,v,v,TRUE,1
CVOE updated,13,1,1,67,D 65,,,TRUE,CV,q,446,cv,D,5,c,c,TRUE,1
CVOE updated,13,1,1,68,U 77,,,FALSE,CV,p,510,cv,U,7,v,v,TRUE,1
CVOE updated,13,1,1,69,E 12,,,TRUE,CV,p,508,cv,E,2,v,v,TRUE,1
CVOE updated,13,1,1,70,I 60,,,TRUE,CV,p,530,cv,I,0,v,v,TRUE,1
CVOE updated,13,1,1,71,J 36,,,FALSE,CV,q,581,cv,J,6,c,c,TRUE,1
CVOE updated,13,1,1,72,H 75,,,TRUE,CV,q,595,cv,H,5,c,c,TRUE,1
CVOE updated,13,1,1,73,I 50,,,TRUE,CV,p,564,cv,I,0,v,v,TRUE,1
CVOE updated,13,1,1,74,E 99,,,FALSE,CV,p,555,cv,E,9,v,v,TRUE,1
CVOE updated,13,1,1,75,A 86,,,TRUE,CV,p,597,cv,A,6,v,v,TRUE,1
CVOE updated,13,1,1,76,U 48,,,TRUE,CV,p,949,cv,U,8,v,v,TRUE,1
CVOE updated,13,1,1,77,E 01,,,FALSE,CV,p,554,cv,E,1,v,v,TRUE,1
CVOE updated,13,1,1,78,A 78,,,TRUE,CV,p,507,cv,A,8,v,v,TRUE,1
CVOE updated,13,1,1,79,P 60,,,FALSE,CV,q,536,cv,P,0,c,c,TRUE,1
CVOE updated,13,1,1,80,E 43,,,FALSE,CV,p,1099,cv,E,3,v,v,TRUE,1
CVOE updated,13,1,1,81,D 69,,,TRUE,CV,q,554,cv,D,9,c,c,TRUE,1
CVOE updated,13,1,1,82,H 11,,,TRUE,CV,q,586,cv,H,1,c,c,TRUE,1
CVOE updated,13,1,1,83,P 43,,,TRUE,CV,q,640,cv,P,3,c,c,TRUE,1
CVOE updated,13,1,1,84,O 67,,,FALSE,CV,p,688,cv,O,7,v,v,TRUE,1
CVOE updated,13,1,1,85,S 91,,,FALSE,CV,q,1059,cv,S,1,c,c,TRUE,1
CVOE updated,13,1,1,86,J 68,,,TRUE,CV,q,502,cv,J,8,c,c,TRUE,1
CVOE updated,13,1,1,87,S 47,,,FALSE,CV,q,572,cv,S,7,c,c,TRUE,1
CVOE updated,13,1,1,88,I 81,,,TRUE,CV,p,519,cv,I,1,v,v,TRUE,1
CVOE updated,13,1,1,89,J 39,,,FALSE,CV,q,608,cv,J,9,c,c,TRUE,1
CVOE updated,13,1,1,90,A 11,,,TRUE,CV,q,580,cv,A,1,v,c,FALSE,0
CVOE updated,13,1,1,91,O 76,,,FALSE,CV,p,1222,cv,O,6,v,v,TRUE,1
CVOE updated,13,1,1,92,A 62,,,FALSE,CV,p,652,cv,A,2,v,v,TRUE,1
CVOE updated,13,1,1,93,O 27,,,TRUE,CV,p,599,cv,O,7,v,v,TRUE,1
CVOE updated,13,1,1,94,E 66,,,FALSE,CV,p,479,cv,E,6,v,v,TRUE,1
CVOE updated,13,1,1,95,J 62,,,TRUE,CV,q,616,cv,J,2,c,c,TRUE,1
CVOE updated,13,1,1,96,H 72,,,TRUE,CV,q,499,cv,H,2,c,c,TRUE,1
CVOE updated,13,1,1,97,E 49,,,TRUE,CV,p,494,cv,E,9,v,v,TRUE,1
CVOE updated,13,1,1,98,D 52,,,TRUE,CV,q,746,cv,D,2,c,c,TRUE,1
CVOE updated,13,1,1,99,H 62,,,TRUE,CV,q,591,cv,H,2,c,c,TRUE,1
CVOE updated,13,1,1,100,I 11,,,TRUE,CV,p,508,cv,I,1,v,v,TRUE,1
CVOE updated,13,1,1,101,A 98,,,FALSE,CV,p,922,cv,A,8,v,v,TRUE,1
CVOE updated,13,1,1,102,H 29,,,FALSE,CV,q,547,cv,H,9,c,c,TRUE,1
CVOE updated,13,1,1,103,E 83,,,TRUE,CV,p,648,cv,E,3,v,v,TRUE,1
CVOE updated,13,1,1,104,D 43,,,FALSE,CV,q,612,cv,D,3,c,c,TRUE,1
CVOE updated,13,1,1,105,P 45,,,TRUE,CV,q,583,cv,P,5,c,c,TRUE,1
CVOE updated,13,1,1,106,J 17,,,TRUE,CV,q,572,cv,J,7,c,c,TRUE,1
CVOE updated,17,1,1,11,A 71,,,FALSE,CV,p,1322,cv,A,1,v,v,TRUE,1
CVOE updated,17,1,1,12,I 66,,,TRUE,CV,p,610,cv,I,6,v,v,TRUE,1
CVOE updated,17,1,1,13,S 30,,,FALSE,CV,q,742,cv,S,0,c,c,TRUE,1
CVOE updated,17,1,1,14,D 20,,,FALSE,CV,q,787,cv,D,0,c,c,TRUE,1
CVOE updated,17,1,1,15,I 31,,,FALSE,CV,p,593,cv,I,1,v,v,TRUE,1
CVOE updated,17,1,1,16,P 16,,,FALSE,CV,q,1128,cv,P,6,c,c,TRUE,1
CVOE updated,17,1,1,17,A 49,,,FALSE,CV,p,930,cv,A,9,v,v,TRUE,1
CVOE updated,17,1,1,18,O 64,,,TRUE,CV,p,645,cv,O,4,v,v,TRUE,1
CVOE updated,17,1,1,19,D 02,,,FALSE,CV,q,423,cv,D,2,c,c,TRUE,1
CVOE updated,17,1,1,20,P 81,,,TRUE,CV,q,972,cv,P,1,c,c,TRUE,1
CVOE updated,17,1,1,21,J 58,,,FALSE,CV,q,463,cv,J,8,c,c,TRUE,1
CVOE updated,17,1,1,22,A 22,,,TRUE,CV,p,486,cv,A,2,v,v,TRUE,1
CVOE updated,17,1,1,23,J 72,,,FALSE,CV,q,550,cv,J,2,c,c,TRUE,1
CVOE updated,17,1,1,24,P 91,,,TRUE,CV,q,700,cv,P,1,c,c,TRUE,1
CVOE updated,17,1,1,25,E 19,,,FALSE,CV,p,470,cv,E,9,v,v,TRUE,1
CVOE updated,17,1,1,26,I 30,,,TRUE,CV,p,884,cv,I,0,v,v,TRUE,1
CVOE updated,17,1,1,27,D 91,,,TRUE,CV,q,564,cv,D,1,c,c,TRUE,1
CVOE updated,17,1,1,28,O 48,,,TRUE,CV,p,492,cv,O,8,v,v,TRUE,1
CVOE updated,17,1,1,29,A 89,,,FALSE,CV,p,551,cv,A,9,v,v,TRUE,1
CVOE updated,17,1,1,30,U 11,,,FALSE,CV,p,525,cv,U,1,v,v,TRUE,1
CVOE updated,17,1,1,31,I 76,,,TRUE,CV,p,583,cv,I,6,v,v,TRUE,1
CVOE updated,17,1,1,32,U 89,,,FALSE,CV,p,547,cv,U,9,v,v,TRUE,1
CVOE updated,17,1,1,33,D 63,,,TRUE,CV,q,418,cv,D,3,c,c,TRUE,1
CVOE updated,17,1,1,34,H 70,,,FALSE,CV,q,461,cv,H,0,c,c,TRUE,1
CVOE updated,17,1,1,35,D 48,,,FALSE,CV,q,471,cv,D,8,c,c,TRUE,1
CVOE updated,17,1,1,36,P 56,,,FALSE,CV,q,438,cv,P,6,c,c,TRUE,1
CVOE updated,17,1,1,37,O 77,,,FALSE,CV,p,502,cv,O,7,v,v,TRUE,1
CVOE updated,17,1,1,38,P 42,,,FALSE,CV,q,596,cv,P,2,c,c,TRUE,1
CVOE updated,17,1,1,39,H 22,,,FALSE,CV,q,404,cv,H,2,c,c,TRUE,1
CVOE updated,17,1,1,40,E 42,,,TRUE,CV,p,605,cv,E,2,v,v,TRUE,1
CVOE updated,17,1,1,41,J 28,,,FALSE,CV,q,469,cv,J,8,c,c,TRUE,1
CVOE updated,17,1,1,42,E 95,,,FALSE,CV,p,419,cv,E,5,v,v,TRUE,1
CVOE updated,17,1,1,43,S 63,,,TRUE,CV,q,382,cv,S,3,c,c,TRUE,1
CVOE updated,17,1,1,44,H 50,,,FALSE,CV,q,444,cv,H,0,c,c,TRUE,1
CVOE updated,17,1,1,45,S 33,,,TRUE,CV,q,476,cv,S,3,c,c,TRUE,1
CVOE updated,17,1,1,46,P 57,,,TRUE,CV,q,844,cv,P,7,c,c,TRUE,1
CVOE updated,17,1,1,47,E 23,,,FALSE,CV,p,549,cv,E,3,v,v,TRUE,1
CVOE updated,17,1,1,48,S 61,,,TRUE,CV,q,563,cv,S,1,c,c,TRUE,1
CVOE updated,17,1,1,49,U 67,,,FALSE,CV,p,379,cv,U,7,v,v,TRUE,1
CVOE updated,17,1,1,50,H 32,,,FALSE,CV,q,374,cv,H,2,c,c,TRUE,1
CVOE updated,17,1,1,51,U 50,,,TRUE,CV,p,401,cv,U,0,v,v,TRUE,1
CVOE updated,17,1,1,52,O 49,,,FALSE,CV,p,529,cv,O,9,v,v,TRUE,1
CVOE updated,17,1,1,53,U 32,,,TRUE,CV,p,452,cv,U,2,v,v,TRUE,1
CVOE updated,17,1,1,54,J 78,,,FALSE,CV,q,407,cv,J,8,c,c,TRUE,1
CVOE updated,17,1,1,55,S 54,,,FALSE,CV,q,432,cv,S,4,c,c,TRUE,1
CVOE updated,17,1,1,56,J 27,,,TRUE,CV,q,413,cv,J,7,c,c,TRUE,1
CVOE updated,17,1,1,57,S 06,,,FALSE,CV,q,336,cv,S,6,c,c,TRUE,1
CVOE updated,17,1,1,58,D 67,,,TRUE,CV,q,411,cv,D,7,c,c,TRUE,1
CVOE updated,17,1,1,59,A 79,,,FALSE,CV,p,438,cv,A,9,v,v,TRUE,1
CVOE updated,17,1,1,60,S 52,,,FALSE,CV,q,375,cv,S,2,c,c,TRUE,1
CVOE updated,17,1,1,61,U 16,,,TRUE,CV,p,362,cv,U,6,v,v,TRUE,1
CVOE updated,17,1,1,62,O 82,,,TRUE,CV,p,394,cv,O,2,v,v,TRUE,1
CVOE updated,17,1,1,63,H 87,,,TRUE,CV,q,360,cv,H,7,c,c,TRUE,1
CVOE updated,17,1,1,64,I 32,,,TRUE,CV,p,600,cv,I,2,v,v,TRUE,1
CVOE updated,17,1,1,65,U 37,,,FALSE,CV,q,361,cv,U,7,v,c,FALSE,0
CVOE updated,17,1,1,66,I 42,,,TRUE,CV,p,625,cv,I,2,v,v,TRUE,1
CVOE updated,17,1,1,67,D 65,,,TRUE,CV,q,519,cv,D,5,c,c,TRUE,1
CVOE updated,17,1,1,68,U 77,,,FALSE,CV,p,487,cv,U,7,v,v,TRUE,1
CVOE updated,17,1,1,69,E 12,,,TRUE,CV,p,384,cv,E,2,v,v,TRUE,1
CVOE updated,17,1,1,70,I 60,,,TRUE,CV,p,469,cv,I,0,v,v,TRUE,1
CVOE updated,17,1,1,71,J 36,,,FALSE,CV,q,491,cv,J,6,c,c,TRUE,1
CVOE updated,17,1,1,72,H 75,,,TRUE,CV,q,510,cv,H,5,c,c,TRUE,1
CVOE updated,17,1,1,73,I 50,,,TRUE,CV,p,460,cv,I,0,v,v,TRUE,1
CVOE updated,17,1,1,74,E 99,,,FALSE,CV,p,583,cv,E,9,v,v,TRUE,1
CVOE updated,17,1,1,75,A 86,,,TRUE,CV,p,612,cv,A,6,v,v,TRUE,1
CVOE updated,17,1,1,76,U 48,,,TRUE,CV,q,464,cv,U,8,v,c,FALSE,0
CVOE updated,17,1,1,77,E 01,,,FALSE,CV,p,573,cv,E,1,v,v,TRUE,1
CVOE updated,17,1,1,78,A 78,,,TRUE,CV,p,816,cv,A,8,v,v,TRUE,1
CVOE updated,17,1,1,79,P 60,,,FALSE,CV,q,1004,cv,P,0,c,c,TRUE,1
CVOE updated,17,1,1,80,E 43,,,FALSE,CV,p,836,cv,E,3,v,v,TRUE,1
CVOE updated,17,1,1,81,D 69,,,TRUE,CV,q,589,cv,D,9,c,c,TRUE,1
CVOE updated,17,1,1,82,H 11,,,TRUE,CV,q,562,cv,H,1,c,c,TRUE,1
CVOE updated,17,1,1,83,P 43,,,TRUE,CV,q,891,cv,P,3,c,c,TRUE,1
CVOE updated,17,1,1,84,O 67,,,FALSE,CV,p,510,cv,O,7,v,v,TRUE,1
CVOE updated,17,1,1,85,S 91,,,FALSE,CV,q,644,cv,S,1,c,c,TRUE,1
CVOE updated,17,1,1,86,J 68,,,TRUE,CV,q,620,cv,J,8,c,c,TRUE,1
CVOE updated,17,1,1,87,S 47,,,FALSE,CV,q,639,cv,S,7,c,c,TRUE,1
CVOE updated,17,1,1,88,I 81,,,TRUE,CV,p,536,cv,I,1,v,v,TRUE,1
CVOE updated,17,1,1,89,J 39,,,FALSE,CV,q,571,cv,J,9,c,c,TRUE,1
CVOE updated,17,1,1,90,A 11,,,TRUE,CV,p,486,cv,A,1,v,v,TRUE,1
CVOE updated,17,1,1,91,O 76,,,FALSE,CV,p,478,cv,O,6,v,v,TRUE,1
CVOE updated,17,1,1,92,A 62,,,FALSE,CV,p,503,cv,A,2,v,v,TRUE,1
CVOE updated,17,1,1,93,O 27,,,TRUE,CV,p,532,cv,O,7,v,v,TRUE,1
CVOE updated,17,1,1,94,E 66,,,FALSE,CV,p,495,cv,E,6,v,v,TRUE,1
CVOE updated,17,1,1,95,J 62,,,TRUE,CV,q,570,cv,J,2,c,c,TRUE,1
CVOE updated,17,1,1,96,H 72,,,TRUE,CV,q,613,cv,H,2,c,c,TRUE,1
CVOE updated,17,1,1,97,E 49,,,TRUE,CV,p,433,cv,E,9,v,v,TRUE,1
CVOE updated,17,1,1,98,D 52,,,TRUE,CV,q,574,cv,D,2,c,c,TRUE,1
CVOE updated,17,1,1,99,H 62,,,TRUE,CV,q,801,cv,H,2,c,c,TRUE,1
CVOE updated,17,1,1,100,I 11,,,TRUE,CV,p,546,cv,I,1,v,v,TRUE,1
CVOE updated,17,1,1,101,A 98,,,FALSE,CV,p,432,cv,A,8,v,v,TRUE,1
CVOE updated,17,1,1,102,H 29,,,FALSE,CV,q,389,cv,H,9,c,c,TRUE,1
CVOE updated,17,1,1,103,E 83,,,TRUE,CV,p,355,cv,E,3,v,v,TRUE,1
CVOE updated,17,1,1,104,D 43,,,FALSE,CV,q,395,cv,D,3,c,c,TRUE,1
CVOE updated,17,1,1,105,P 45,,,TRUE,CV,p,380,cv,P,5,c,v,FALSE,0
CVOE updated,17,1,1,106,J 17,,,TRUE,CV,q,551,cv,J,7,c,c,TRUE,1
CVOE updated,21,1,1,11,A 71,,,FALSE,CV,p,704,cv,A,1,v,v,TRUE,1
CVOE updated,21,1,1,12,I 66,,,TRUE,CV,q,437,cv,I,6,v,c,FALSE,0
CVOE updated,21,1,1,13,S 30,,,FALSE,CV,q,646,cv,S,0,c,c,TRUE,1
CVOE updated,21,1,1,14,D 20,,,FALSE,CV,q,798,cv,D,0,c,c,TRUE,1
CVOE updated,21,1,1,15,I 31,,,FALSE,CV,p,567,cv,I,1,v,v,TRUE,1
CVOE updated,21,1,1,16,P 16,,,FALSE,CV,q,559,cv,P,6,c,c,TRUE,1
CVOE updated,21,1,1,17,A 49,,,FALSE,CV,p,512,cv,A,9,v,v,TRUE,1
CVOE updated,21,1,1,18,O 64,,,TRUE,CV,p,549,cv,O,4,v,v,TRUE,1
CVOE updated,21,1,1,19,D 02,,,FALSE,CV,q,483,cv,D,2,c,c,TRUE,1
CVOE updated,21,1,1,20,P 81,,,TRUE,CV,q,499,cv,P,1,c,c,TRUE,1
CVOE updated,21,1,1,21,J 58,,,FALSE,CV,q,471,cv,J,8,c,c,TRUE,1
CVOE updated,21,1,1,22,A 22,,,TRUE,CV,p,420,cv,A,2,v,v,TRUE,1
CVOE updated,21,1,1,23,J 72,,,FALSE,CV,q,367,cv,J,2,c,c,TRUE,1
CVOE updated,21,1,1,24,P 91,,,TRUE,CV,q,776,cv,P,1,c,c,TRUE,1
CVOE updated,21,1,1,25,E 19,,,FALSE,CV,p,563,cv,E,9,v,v,TRUE,1
CVOE updated,21,1,1,26,I 30,,,TRUE,CV,p,459,cv,I,0,v,v,TRUE,1
CVOE updated,21,1,1,27,D 91,,,TRUE,CV,q,366,cv,D,1,c,c,TRUE,1
CVOE updated,21,1,1,28,O 48,,,TRUE,CV,p,367,cv,O,8,v,v,TRUE,1
CVOE updated,21,1,1,29,A 89,,,FALSE,CV,p,431,cv,A,9,v,v,TRUE,1
CVOE updated,21,1,1,30,U 11,,,FALSE,CV,p,533,cv,U,1,v,v,TRUE,1
CVOE updated,21,1,1,31,I 76,,,TRUE,CV,p,424,cv,I,6,v,v,TRUE,1
CVOE updated,21,1,1,32,U 89,,,FALSE,CV,p,461,cv,U,9,v,v,TRUE,1
CVOE updated,21,1,1,33,D 63,,,TRUE,CV,q,427,cv,D,3,c,c,TRUE,1
CVOE updated,21,1,1,34,H 70,,,FALSE,CV,q,361,cv,H,0,c,c,TRUE,1
CVOE updated,21,1,1,35,D 48,,,FALSE,CV,q,657,cv,D,8,c,c,TRUE,1
CVOE updated,21,1,1,36,P 56,,,FALSE,CV,q,476,cv,P,6,c,c,TRUE,1
CVOE updated,21,1,1,37,O 77,,,FALSE,CV,p,445,cv,O,7,v,v,TRUE,1
CVOE updated,21,1,1,38,P 42,,,FALSE,CV,q,485,cv,P,2,c,c,TRUE,1
CVOE updated,21,1,1,39,H 22,,,FALSE,CV,q,581,cv,H,2,c,c,TRUE,1
CVOE updated,21,1,1,40,E 42,,,TRUE,CV,p,491,cv,E,2,v,v,TRUE,1
CVOE updated,21,1,1,41,J 28,,,FALSE,CV,q,422,cv,J,8,c,c,TRUE,1
CVOE updated,21,1,1,42,E 95,,,FALSE,CV,p,508,cv,E,5,v,v,TRUE,1
CVOE updated,21,1,1,43,S 63,,,TRUE,CV,q,474,cv,S,3,c,c,TRUE,1
CVOE updated,21,1,1,44,H 50,,,FALSE,CV,q,455,cv,H,0,c,c,TRUE,1
CVOE updated,21,1,1,45,S 33,,,TRUE,CV,q,474,cv,S,3,c,c,TRUE,1
CVOE updated,21,1,1,46,P 57,,,TRUE,CV,q,539,cv,P,7,c,c,TRUE,1
CVOE updated,21,1,1,47,E 23,,,FALSE,CV,p,542,cv,E,3,v,v,TRUE,1
CVOE updated,21,1,1,48,S 61,,,TRUE,CV,q,443,cv,S,1,c,c,TRUE,1
CVOE updated,21,1,1,49,U 67,,,FALSE,CV,p,396,cv,U,7,v,v,TRUE,1
CVOE updated,21,1,1,50,H 32,,,FALSE,CV,p,324,cv,H,2,c,v,FALSE,0
CVOE updated,21,1,1,51,U 50,,,TRUE,CV,p,508,cv,U,0,v,v,TRUE,1
CVOE updated,21,1,1,52,O 49,,,FALSE,CV,p,538,cv,O,9,v,v,TRUE,1
CVOE updated,21,1,1,53,U 32,,,TRUE,CV,p,509,cv,U,2,v,v,TRUE,1
CVOE updated,21,1,1,54,J 78,,,FALSE,CV,q,435,cv,J,8,c,c,TRUE,1
CVOE updated,21,1,1,55,S 54,,,FALSE,CV,q,499,cv,S,4,c,c,TRUE,1
CVOE updated,21,1,1,56,J 27,,,TRUE,CV,q,486,cv,J,7,c,c,TRUE,1
CVOE updated,21,1,1,57,S 06,,,FALSE,CV,q,575,cv,S,6,c,c,TRUE,1
CVOE updated,21,1,1,58,D 67,,,TRUE,CV,q,418,cv,D,7,c,c,TRUE,1
CVOE updated,21,1,1,59,A 79,,,FALSE,CV,p,389,cv,A,9,v,v,TRUE,1
CVOE updated,21,1,1,60,S 52,,,FALSE,CV,q,371,cv,S,2,c,c,TRUE,1
CVOE updated,21,1,1,61,U 16,,,TRUE,CV,p,390,cv,U,6,v,v,TRUE,1
CVOE updated,21,1,1,62,O 82,,,TRUE,CV,p,515,cv,O,2,v,v,TRUE,1
CVOE updated,21,1,1,63,H 87,,,TRUE,CV,q,492,cv,H,7,c,c,TRUE,1
CVOE updated,21,1,1,64,I 32,,,TRUE,CV,p,415,cv,I,2,v,v,TRUE,1
CVOE updated,21,1,1,65,U 37,,,FALSE,CV,p,602,cv,U,7,v,v,TRUE,1
CVOE updated,21,1,1,66,I 42,,,TRUE,CV,p,490,cv,I,2,v,v,TRUE,1
CVOE updated,21,1,1,67,D 65,,,TRUE,CV,q,413,cv,D,5,c,c,TRUE,1
CVOE updated,21,1,1,68,U 77,,,FALSE,CV,p,520,cv,U,7,v,v,TRUE,1
CVOE updated,21,1,1,69,E 12,,,TRUE,CV,p,481,cv,E,2,v,v,TRUE,1
CVOE updated,21,1,1,70,I 60,,,TRUE,CV,p,385,cv,I,0,v,v,TRUE,1
CVOE updated,21,1,1,71,J 36,,,FALSE,CV,q,447,cv,J,6,c,c,TRUE,1
CVOE updated,21,1,1,72,H 75,,,TRUE,CV,p,439,cv,H,5,c,v,FALSE,0
CVOE updated,21,1,1,73,I 50,,,TRUE,CV,p,471,cv,I,0,v,v,TRUE,1
CVOE updated,21,1,1,74,E 99,,,FALSE,CV,p,541,cv,E,9,v,v,TRUE,1
CVOE updated,21,1,1,75,A 86,,,TRUE,CV,p,515,cv,A,6,v,v,TRUE,1
CVOE updated,21,1,1,76,U 48,,,TRUE,CV,p,435,cv,U,8,v,v,TRUE,1
CVOE updated,21,1,1,77,E 01,,,FALSE,CV,p,484,cv,E,1,v,v,TRUE,1
CVOE updated,21,1,1,78,A 78,,,TRUE,CV,p,452,cv,A,8,v,v,TRUE,1
CVOE updated,21,1,1,79,P 60,,,FALSE,CV,q,415,cv,P,0,c,c,TRUE,1
CVOE updated,21,1,1,80,E 43,,,FALSE,CV,p,450,cv,E,3,v,v,TRUE,1
CVOE updated,21,1,1,81,D 69,,,TRUE,CV,q,493,cv,D,9,c,c,TRUE,1
CVOE updated,21,1,1,82,H 11,,,TRUE,CV,q,424,cv,H,1,c,c,TRUE,1
CVOE updated,21,1,1,83,P 43,,,TRUE,CV,q,390,cv,P,3,c,c,TRUE,1
CVOE updated,21,1,1,84,O 67,,,FALSE,CV,p,532,cv,O,7,v,v,TRUE,1
CVOE updated,21,1,1,85,S 91,,,FALSE,CV,q,479,cv,S,1,c,c,TRUE,1
CVOE updated,21,1,1,86,J 68,,,TRUE,CV,q,407,cv,J,8,c,c,TRUE,1
CVOE updated,21,1,1,87,S 47,,,FALSE,CV,q,479,cv,S,7,c,c,TRUE,1
CVOE updated,21,1,1,88,I 81,,,TRUE,CV,p,376,cv,I,1,v,v,TRUE,1
CVOE updated,21,1,1,89,J 39,,,FALSE,CV,q,467,cv,J,9,c,c,TRUE,1
CVOE updated,21,1,1,90,A 11,,,TRUE,CV,p,496,cv,A,1,v,v,TRUE,1
CVOE updated,21,1,1,91,O 76,,,FALSE,CV,p,444,cv,O,6,v,v,TRUE,1
CVOE updated,21,1,1,92,A 62,,,FALSE,CV,p,420,cv,A,2,v,v,TRUE,1
CVOE updated,21,1,1,93,O 27,,,TRUE,CV,p,399,cv,O,7,v,v,TRUE,1
CVOE updated,21,1,1,94,E 66,,,FALSE,CV,q,383,cv,E,6,v,c,FALSE,0
CVOE updated,21,1,1,95,J 62,,,TRUE,CV,q,421,cv,J,2,c,c,TRUE,1
CVOE updated,21,1,1,96,H 72,,,TRUE,CV,q,475,cv,H,2,c,c,TRUE,1
CVOE updated,21,1,1,97,E 49,,,TRUE,CV,p,459,cv,E,9,v,v,TRUE,1
CVOE updated,21,1,1,98,D 52,,,TRUE,CV,q,438,cv,D,2,c,c,TRUE,1
CVOE updated,21,1,1,99,H 62,,,TRUE,CV,q,462,cv,H,2,c,c,TRUE,1
CVOE updated,21,1,1,100,I 11,,,TRUE,CV,p,460,cv,I,1,v,v,TRUE,1
CVOE updated,21,1,1,101,A 98,,,FALSE,CV,p,495,cv,A,8,v,v,TRUE,1
CVOE updated,21,1,1,102,H 29,,,FALSE,CV,q,490,cv,H,9,c,c,TRUE,1
CVOE updated,21,1,1,103,E 83,,,TRUE,CV,p,469,cv,E,3,v,v,TRUE,1
CVOE updated,21,1,1,104,D 43,,,FALSE,CV,q,491,cv,D,3,c,c,TRUE,1
CVOE updated,21,1,1,105,P 45,,,TRUE,CV,q,406,cv,P,5,c,c,TRUE,1
CVOE updated,21,1,1,106,J 17,,,TRUE,CV,q,534,cv,J,7,c,c,TRUE,1
CVOE_B,14,1,2,11,A 71,,,FALSE,CV,p,2407,cv,A,1,v,v,TRUE,1
CVOE_B,14,1,2,12,I 66,,,TRUE,CV,p,674,cv,I,6,v,v,TRUE,1
CVOE_B,14,1,2,13,S 30,,,FALSE,CV,q,643,cv,S,0,c,c,TRUE,1
CVOE_B,14,1,2,14,D 20,,,FALSE,CV,q,723,cv,D,0,c,c,TRUE,1
CVOE_B,14,1,2,15,I 31,,,FALSE,CV,p,660,cv,I,1,v,v,TRUE,1
CVOE_B,14,1,2,16,P 16,,,FALSE,CV,q,591,cv,P,6,c,c,TRUE,1
CVOE_B,14,1,2,17,A 49,,,FALSE,CV,p,597,cv,A,9,v,v,TRUE,1
CVOE_B,14,1,2,18,O 64,,,TRUE,CV,p,621,cv,O,4,v,v,TRUE,1
CVOE_B,14,1,2,19,D 02,,,FALSE,CV,q,603,cv,D,2,c,c,TRUE,1
CVOE_B,14,1,2,20,P 81,,,TRUE,CV,q,739,cv,P,1,c,c,TRUE,1
CVOE_B,14,1,2,21,J 58,,,FALSE,CV,q,1590,cv,J,8,c,c,TRUE,1
CVOE_B,14,1,2,22,A 22,,,TRUE,CV,p,1300,cv,A,2,v,v,TRUE,1
CVOE_B,14,1,2,23,J 72,,,FALSE,CV,q,1051,cv,J,2,c,c,TRUE,1
CVOE_B,14,1,2,24,P 91,,,TRUE,CV,q,1334,cv,P,1,c,c,TRUE,1
CVOE_B,14,1,2,25,E 19,,,FALSE,CV,p,625,cv,E,9,v,v,TRUE,1
CVOE_B,14,1,2,26,I 30,,,TRUE,CV,p,1231,cv,I,0,v,v,TRUE,1
CVOE_B,14,1,2,27,D 91,,,TRUE,CV,q,2429,cv,D,1,c,c,TRUE,1
CVOE_B,14,1,2,28,O 48,,,TRUE,CV,p,1131,cv,O,8,v,v,TRUE,1
CVOE_B,14,1,2,29,A 89,,,FALSE,CV,p,1079,cv,A,9,v,v,TRUE,1
CVOE_B,14,1,2,30,U 11,,,FALSE,CV,p,751,cv,U,1,v,v,TRUE,1
CVOE_B,14,1,2,31,I 76,,,TRUE,CV,p,357,cv,I,6,v,v,TRUE,1
CVOE_B,14,1,2,32,U 89,,,FALSE,CV,p,493,cv,U,9,v,v,TRUE,1
CVOE_B,14,1,2,33,D 63,,,TRUE,CV,q,481,cv,D,3,c,c,TRUE,1
CVOE_B,14,1,2,34,H 70,,,FALSE,CV,q,489,cv,H,0,c,c,TRUE,1
CVOE_B,14,1,2,35,D 48,,,FALSE,CV,q,684,cv,D,8,c,c,TRUE,1
CVOE_B,14,1,2,36,P 56,,,FALSE,CV,q,564,cv,P,6,c,c,TRUE,1
CVOE_B,14,1,2,37,O 77,,,FALSE,CV,p,693,cv,O,7,v,v,TRUE,1
CVOE_B,14,1,2,38,P 42,,,FALSE,CV,q,496,cv,P,2,c,c,TRUE,1
CVOE_B,14,1,2,39,H 22,,,FALSE,CV,q,571,cv,H,2,c,c,TRUE,1
CVOE_B,14,1,2,40,E 42,,,TRUE,CV,p,558,cv,E,2,v,v,TRUE,1
CVOE_B,14,1,2,41,J 28,,,FALSE,CV,q,550,cv,J,8,c,c,TRUE,1
CVOE_B,14,1,2,42,E 95,,,FALSE,CV,p,564,cv,E,5,v,v,TRUE,1
CVOE_B,14,1,2,43,S 63,,,TRUE,CV,q,797,cv,S,3,c,c,TRUE,1
CVOE_B,14,1,2,44,H 50,,,FALSE,CV,q,1109,cv,H,0,c,c,TRUE,1
CVOE_B,14,1,2,45,S 33,,,TRUE,CV,q,515,cv,S,3,c,c,TRUE,1
CVOE_B,14,1,2,46,P 57,,,TRUE,CV,q,620,cv,P,7,c,c,TRUE,1
CVOE_B,14,1,2,47,E 23,,,FALSE,CV,p,479,cv,E,3,v,v,TRUE,1
CVOE_B,14,1,2,48,S 61,,,TRUE,CV,q,2383,cv,S,1,c,c,TRUE,1
CVOE_B,14,1,2,49,U 67,,,FALSE,CV,p,997,cv,U,7,v,v,TRUE,1
CVOE_B,14,1,2,50,H 32,,,FALSE,CV,q,638,cv,H,2,c,c,TRUE,1
CVOE_B,14,1,2,51,U 50,,,TRUE,CV,p,502,cv,U,0,v,v,TRUE,1
CVOE_B,14,1,2,52,O 49,,,FALSE,CV,p,844,cv,O,9,v,v,TRUE,1
CVOE_B,14,1,2,53,U 32,,,TRUE,CV,p,685,cv,U,2,v,v,TRUE,1
CVOE_B,14,1,2,54,J 78,,,FALSE,CV,q,445,cv,J,8,c,c,TRUE,1
CVOE_B,14,1,2,55,S 54,,,FALSE,CV,q,438,cv,S,4,c,c,TRUE,1
CVOE_B,14,1,2,56,J 27,,,TRUE,CV,q,438,cv,J,7,c,c,TRUE,1
CVOE_B,14,1,2,57,S 06,,,FALSE,CV,q,502,cv,S,6,c,c,TRUE,1
CVOE_B,14,1,2,58,D 67,,,TRUE,CV,q,948,cv,D,7,c,c,TRUE,1
CVOE_B,14,1,2,59,A 79,,,FALSE,CV,p,706,cv,A,9,v,v,TRUE,1
CVOE_B,14,1,2,60,S 52,,,FALSE,CV,q,480,cv,S,2,c,c,TRUE,1
CVOE_B,14,1,2,61,U 16,,,TRUE,CV,p,520,cv,U,6,v,v,TRUE,1
CVOE_B,14,1,2,62,O 82,,,TRUE,CV,p,576,cv,O,2,v,v,TRUE,1
CVOE_B,14,1,2,63,H 87,,,TRUE,CV,q,1140,cv,H,7,c,c,TRUE,1
CVOE_B,14,1,2,64,I 32,,,TRUE,CV,p,623,cv,I,2,v,v,TRUE,1
CVOE_B,14,1,2,65,U 37,,,FALSE,CV,p,781,cv,U,7,v,v,TRUE,1
CVOE_B,14,1,2,66,I 42,,,TRUE,CV,p,442,cv,I,2,v,v,TRUE,1
CVOE_B,14,1,2,67,D 65,,,TRUE,CV,q,443,cv,D,5,c,c,TRUE,1
CVOE_B,14,1,2,68,U 77,,,FALSE,CV,p,491,cv,U,7,v,v,TRUE,1
CVOE_B,14,1,2,69,E 12,,,TRUE,CV,p,542,cv,E,2,v,v,TRUE,1
CVOE_B,14,1,2,70,I 60,,,TRUE,CV,p,508,cv,I,0,v,v,TRUE,1
CVOE_B,14,1,2,71,J 36,,,FALSE,CV,q,410,cv,J,6,c,c,TRUE,1
CVOE_B,14,1,2,72,H 75,,,TRUE,CV,q,541,cv,H,5,c,c,TRUE,1
CVOE_B,14,1,2,73,I 50,,,TRUE,CV,p,434,cv,I,0,v,v,TRUE,1
CVOE_B,14,1,2,74,E 99,,,FALSE,CV,p,555,cv,E,9,v,v,TRUE,1
CVOE_B,14,1,2,75,A 86,,,TRUE,CV,p,683,cv,A,6,v,v,TRUE,1
CVOE_B,14,1,2,76,U 48,,,TRUE,CV,p,1556,cv,U,8,v,v,TRUE,1
CVOE_B,14,1,2,77,E 01,,,FALSE,CV,p,573,cv,E,1,v,v,TRUE,1
CVOE_B,14,1,2,78,A 78,,,TRUE,CV,p,400,cv,A,8,v,v,TRUE,1
CVOE_B,14,1,2,79,P 60,,,FALSE,CV,q,520,cv,P,0,c,c,TRUE,1
CVOE_B,14,1,2,80,E 43,,,FALSE,CV,p,408,cv,E,3,v,v,TRUE,1
CVOE_B,14,1,2,81,D 69,,,TRUE,CV,q,459,cv,D,9,c,c,TRUE,1
CVOE_B,14,1,2,82,H 11,,,TRUE,CV,q,462,cv,H,1,c,c,TRUE,1
CVOE_B,14,1,2,83,P 43,,,TRUE,CV,q,380,cv,P,3,c,c,TRUE,1
CVOE_B,14,1,2,84,O 67,,,FALSE,CV,p,455,cv,O,7,v,v,TRUE,1
CVOE_B,14,1,2,85,S 91,,,FALSE,CV,q,466,cv,S,1,c,c,TRUE,1
CVOE_B,14,1,2,86,J 68,,,TRUE,CV,q,464,cv,J,8,c,c,TRUE,1
CVOE_B,14,1,2,87,S 47,,,FALSE,CV,q,462,cv,S,7,c,c,TRUE,1
CVOE_B,14,1,2,88,I 81,,,TRUE,CV,p,491,cv,I,1,v,v,TRUE,1
CVOE_B,14,1,2,89,J 39,,,FALSE,CV,q,438,cv,J,9,c,c,TRUE,1
CVOE_B,14,1,2,90,A 11,,,TRUE,CV,p,575,cv,A,1,v,v,TRUE,1
CVOE_B,14,1,2,91,O 76,,,FALSE,CV,p,538,cv,O,6,v,v,TRUE,1
CVOE_B,14,1,2,92,A 62,,,FALSE,CV,p,725,cv,A,2,v,v,TRUE,1
CVOE_B,14,1,2,93,O 27,,,TRUE,CV,p,509,cv,O,7,v,v,TRUE,1
