"","ExperimentName","Subject","Group","Block","Trial","STIM","TASK","Switch","Congruent","CVOE","Response","RT","block_type","letter","number","key2","response2","match2","score2"
"1","CVOE updated",5,1,1,11,"A 71","","",FALSE,"CV","p",2144,"cv","A","1","v","v",TRUE,1
"2","CVOE updated",5,1,1,12,"I 66","","",TRUE,"CV","q",783,"cv","I","6","v","c",FALSE,0
"3","CVOE updated",5,1,1,13,"S 30","","",FALSE,"CV","q",636,"cv","S","0","c","c",TRUE,1
"4","CVOE updated",5,1,1,14,"D 20","","",FALSE,"CV","q",1261,"cv","D","0","c","c",TRUE,1
"5","CVOE updated",5,1,1,15,"I 31","","",FALSE,"CV","p",611,"cv","I","1","v","v",TRUE,1
"6","CVOE updated",5,1,1,16,"P 16","","",FALSE,"CV","q",574,"cv","P","6","c","c",TRUE,1
"7","CVOE updated",5,1,1,17,"A 49","","",FALSE,"CV","p",777,"cv","A","9","v","v",TRUE,1
"8","CVOE updated",5,1,1,18,"O 64","","",TRUE,"CV","p",420,"cv","O","4","v","v",TRUE,1
"9","CVOE updated",5,1,1,19,"D 02","","",FALSE,"CV","q",466,"cv","D","2","c","c",TRUE,1
"10","CVOE updated",5,1,1,20,"P 81","","",TRUE,"CV","q",904,"cv","P","1","c","c",TRUE,1
"11","CVOE updated",5,1,1,21,"J 58","","",FALSE,"CV","q",693,"cv","J","8","c","c",TRUE,1
"12","CVOE updated",5,1,1,22,"A 22","","",TRUE,"CV","p",633,"cv","A","2","v","v",TRUE,1
"13","CVOE updated",5,1,1,23,"J 72","","",FALSE,"CV","q",582,"cv","J","2","c","c",TRUE,1
"14","CVOE updated",5,1,1,24,"P 91","","",TRUE,"CV","q",868,"cv","P","1","c","c",TRUE,1
"15","CVOE updated",5,1,1,25,"E 19","","",FALSE,"CV","p",642,"cv","E","9","v","v",TRUE,1
"16","CVOE updated",5,1,1,26,"I 30","","",TRUE,"CV","q",602,"cv","I","0","v","c",FALSE,0
"17","CVOE updated",5,1,1,27,"D 91","","",TRUE,"CV","q",587,"cv","D","1","c","c",TRUE,1
"18","CVOE updated",5,1,1,28,"O 48","","",TRUE,"CV","p",441,"cv","O","8","v","v",TRUE,1
"19","CVOE updated",5,1,1,29,"A 89","","",FALSE,"CV","p",921,"cv","A","9","v","v",TRUE,1
"20","CVOE updated",5,1,1,30,"U 11","","",FALSE,"CV","p",826,"cv","U","1","v","v",TRUE,1
"21","CVOE updated",5,1,1,31,"I 76","","",TRUE,"CV","q",1015,"cv","I","6","v","c",FALSE,0
"22","CVOE updated",5,1,1,32,"U 89","","",FALSE,"CV","p",827,"cv","U","9","v","v",TRUE,1
"23","CVOE updated",5,1,1,33,"D 63","","",TRUE,"CV","q",960,"cv","D","3","c","c",TRUE,1
"24","CVOE updated",5,1,1,34,"H 70","","",FALSE,"CV","q",689,"cv","H","0","c","c",TRUE,1
"25","CVOE updated",5,1,1,35,"D 48","","",FALSE,"CV","q",732,"cv","D","8","c","c",TRUE,1
"26","CVOE updated",5,1,1,36,"P 56","","",FALSE,"CV","q",895,"cv","P","6","c","c",TRUE,1
"27","CVOE updated",5,1,1,37,"O 77","","",FALSE,"CV","p",658,"cv","O","7","v","v",TRUE,1
"28","CVOE updated",5,1,1,38,"P 42","","",FALSE,"CV","q",766,"cv","P","2","c","c",TRUE,1
"29","CVOE updated",5,1,1,39,"H 22","","",FALSE,"CV","q",870,"cv","H","2","c","c",TRUE,1
"30","CVOE updated",5,1,1,40,"E 42","","",TRUE,"CV","p",716,"cv","E","2","v","v",TRUE,1
"31","CVOE updated",5,1,1,41,"J 28","","",FALSE,"CV","q",588,"cv","J","8","c","c",TRUE,1
"32","CVOE updated",5,1,1,42,"E 95","","",FALSE,"CV","p",506,"cv","E","5","v","v",TRUE,1
"33","CVOE updated",5,1,1,43,"S 63","","",TRUE,"CV","q",640,"cv","S","3","c","c",TRUE,1
"34","CVOE updated",5,1,1,44,"H 50","","",FALSE,"CV","q",1032,"cv","H","0","c","c",TRUE,1
"35","CVOE updated",5,1,1,45,"S 33","","",TRUE,"CV","q",470,"cv","S","3","c","c",TRUE,1
"36","CVOE updated",5,1,1,46,"P 57","","",TRUE,"CV","q",836,"cv","P","7","c","c",TRUE,1
"37","CVOE updated",5,1,1,47,"E 23","","",FALSE,"CV","p",828,"cv","E","3","v","v",TRUE,1
"38","CVOE updated",5,1,1,48,"S 61","","",TRUE,"CV","q",1066,"cv","S","1","c","c",TRUE,1
"39","CVOE updated",5,1,1,49,"U 67","","",FALSE,"CV","p",528,"cv","U","7","v","v",TRUE,1
"40","CVOE updated",5,1,1,50,"H 32","","",FALSE,"CV","q",547,"cv","H","2","c","c",TRUE,1
"41","CVOE updated",5,1,1,51,"U 50","","",TRUE,"CV","p",609,"cv","U","0","v","v",TRUE,1
"42","CVOE updated",5,1,1,52,"O 49","","",FALSE,"CV","p",452,"cv","O","9","v","v",TRUE,1
"43","CVOE updated",5,1,1,53,"U 32","","",TRUE,"CV","p",479,"cv","U","2","v","v",TRUE,1
"44","CVOE updated",5,1,1,54,"J 78","","",FALSE,"CV","q",560,"cv","J","8","c","c",TRUE,1
"45","CVOE updated",5,1,1,55,"S 54","","",FALSE,"CV","q",504,"cv","S","4","c","c",TRUE,1
"46","CVOE updated",5,1,1,56,"J 27","","",TRUE,"CV","q",638,"cv","J","7","c","c",TRUE,1
"47","CVOE updated",5,1,1,57,"S 06","","",FALSE,"CV","q",470,"cv","S","6","c","c",TRUE,1
"48","CVOE updated",5,1,1,58,"D 67","","",TRUE,"CV","q",644,"cv","D","7","c","c",TRUE,1
"49","CVOE updated",5,1,1,59,"A 79","","",FALSE,"CV","p",580,"cv","A","9","v","v",TRUE,1
"50","CVOE updated",5,1,1,60,"S 52","","",FALSE,"CV","q",466,"cv","S","2","c","c",TRUE,1
"51","CVOE updated",5,1,1,61,"U 16","","",TRUE,"CV","p",912,"cv","U","6","v","v",TRUE,1
"52","CVOE updated",5,1,1,62,"O 82","","",TRUE,"CV","p",670,"cv","O","2","v","v",TRUE,1
"53","CVOE updated",5,1,1,63,"H 87","","",TRUE,"CV","q",547,"cv","H","7","c","c",TRUE,1
"54","CVOE updated",5,1,1,64,"I 32","","",TRUE,"CV","p",881,"cv","I","2","v","v",TRUE,1
"55","CVOE updated",5,1,1,65,"U 37","","",FALSE,"CV","p",562,"cv","U","7","v","v",TRUE,1
"56","CVOE updated",5,1,1,66,"I 42","","",TRUE,"CV","p",946,"cv","I","2","v","v",TRUE,1
"57","CVOE updated",5,1,1,67,"D 65","","",TRUE,"CV","q",416,"cv","D","5","c","c",TRUE,1
"58","CVOE updated",5,1,1,68,"U 77","","",FALSE,"CV","p",491,"cv","U","7","v","v",TRUE,1
"59","CVOE updated",5,1,1,69,"E 12","","",TRUE,"CV","q",590,"cv","E","2","v","c",FALSE,0
"60","CVOE updated",5,1,1,70,"I 60","","",TRUE,"CV","p",964,"cv","I","0","v","v",TRUE,1
"61","CVOE updated",5,1,1,71,"J 36","","",FALSE,"CV","q",1332,"cv","J","6","c","c",TRUE,1
"62","CVOE updated",5,1,1,72,"H 75","","",TRUE,"CV","q",1288,"cv","H","5","c","c",TRUE,1
"63","CVOE updated",5,1,1,73,"I 50","","",TRUE,"CV","q",555,"cv","I","0","v","c",FALSE,0
"64","CVOE updated",5,1,1,74,"E 99","","",FALSE,"CV","p",956,"cv","E","9","v","v",TRUE,1
"65","CVOE updated",5,1,1,75,"A 86","","",TRUE,"CV","q",716,"cv","A","6","v","c",FALSE,0
"66","CVOE updated",5,1,1,76,"U 48","","",TRUE,"CV","p",533,"cv","U","8","v","v",TRUE,1
"67","CVOE updated",5,1,1,77,"E 01","","",FALSE,"CV","p",656,"cv","E","1","v","v",TRUE,1
"68","CVOE updated",5,1,1,78,"A 78","","",TRUE,"CV","q",731,"cv","A","8","v","c",FALSE,0
"69","CVOE updated",5,1,1,79,"P 60","","",FALSE,"CV","q",598,"cv","P","0","c","c",TRUE,1
"70","CVOE updated",5,1,1,80,"E 43","","",FALSE,"CV","p",958,"cv","E","3","v","v",TRUE,1
"71","CVOE updated",5,1,1,81,"D 69","","",TRUE,"CV","q",559,"cv","D","9","c","c",TRUE,1
"72","CVOE updated",5,1,1,82,"H 11","","",TRUE,"CV","q",895,"cv","H","1","c","c",TRUE,1
"73","CVOE updated",5,1,1,83,"P 43","","",TRUE,"CV","q",619,"cv","P","3","c","c",TRUE,1
"74","CVOE updated",5,1,1,84,"O 67","","",FALSE,"CV","p",1134,"cv","O","7","v","v",TRUE,1
"75","CVOE updated",5,1,1,85,"S 91","","",FALSE,"CV","q",505,"cv","S","1","c","c",TRUE,1
"76","CVOE updated",5,1,1,86,"J 68","","",TRUE,"CV","q",647,"cv","J","8","c","c",TRUE,1
"77","CVOE updated",5,1,1,87,"S 47","","",FALSE,"CV","q",762,"cv","S","7","c","c",TRUE,1
"78","CVOE updated",5,1,1,88,"I 81","","",TRUE,"CV","p",690,"cv","I","1","v","v",TRUE,1
"79","CVOE updated",5,1,1,89,"J 39","","",FALSE,"CV","q",621,"cv","J","9","c","c",TRUE,1
"80","CVOE updated",5,1,1,90,"A 11","","",TRUE,"CV","p",811,"cv","A","1","v","v",TRUE,1
"81","CVOE updated",5,1,1,91,"O 76","","",FALSE,"CV","p",510,"cv","O","6","v","v",TRUE,1
"82","CVOE updated",5,1,1,92,"A 62","","",FALSE,"CV","p",1260,"cv","A","2","v","v",TRUE,1
"83","CVOE updated",5,1,1,93,"O 27","","",TRUE,"CV","p",466,"cv","O","7","v","v",TRUE,1
"84","CVOE updated",5,1,1,94,"E 66","","",FALSE,"CV","q",552,"cv","E","6","v","c",FALSE,0
"85","CVOE updated",5,1,1,95,"J 62","","",TRUE,"CV","q",774,"cv","J","2","c","c",TRUE,1
"86","CVOE updated",5,1,1,96,"H 72","","",TRUE,"CV","q",609,"cv","H","2","c","c",TRUE,1
"87","CVOE updated",5,1,1,97,"E 49","","",TRUE,"CV","p",948,"cv","E","9","v","v",TRUE,1
"88","CVOE updated",5,1,1,98,"D 52","","",TRUE,"CV","q",466,"cv","D","2","c","c",TRUE,1
"89","CVOE updated",5,1,1,99,"H 62","","",TRUE,"CV","q",551,"cv","H","2","c","c",TRUE,1
"90","CVOE updated",5,1,1,100,"I 11","","",TRUE,"CV","p",637,"cv","I","1","v","v",TRUE,1
"91","CVOE updated",5,1,1,101,"A 98","","",FALSE,"CV","p",1494,"cv","A","8","v","v",TRUE,1
"92","CVOE updated",5,1,1,102,"H 29","","",FALSE,"CV","q",1457,"cv","H","9","c","c",TRUE,1
"93","CVOE updated",5,1,1,103,"E 83","","",TRUE,"CV","p",596,"cv","E","3","v","v",TRUE,1
"94","CVOE updated",5,1,1,104,"D 43","","",FALSE,"CV","q",501,"cv","D","3","c","c",TRUE,1
"95","CVOE updated",5,1,1,105,"P 45","","",TRUE,"CV","q",491,"cv","P","5","c","c",TRUE,1
"96","CVOE updated",5,1,1,106,"J 17","","",TRUE,"CV","q",462,"cv","J","7","c","c",TRUE,1
"433","CVOE updated",1,1,1,11,"A 71","","",FALSE,"CV","p",2421,"cv","A","1","v","v",TRUE,1
"434","CVOE updated",1,1,1,12,"I 66","","",TRUE,"CV","p",717,"cv","I","6","v","v",TRUE,1
"435","CVOE updated",1,1,1,13,"S 30","","",FALSE,"CV","q",566,"cv","S","0","c","c",TRUE,1
"436","CVOE updated",1,1,1,14,"D 20","","",FALSE,"CV","q",868,"cv","D","0","c","c",TRUE,1
"437","CVOE updated",1,1,1,15,"I 31","","",FALSE,"CV","p",550,"cv","I","1","v","v",TRUE,1
"438","CVOE updated",1,1,1,16,"P 16","","",FALSE,"CV","q",731,"cv","P","6","c","c",TRUE,1
"439","CVOE updated",1,1,1,17,"A 49","","",FALSE,"CV","p",784,"cv","A","9","v","v",TRUE,1
"440","CVOE updated",1,1,1,18,"O 64","","",TRUE,"CV","p",1165,"cv","O","4","v","v",TRUE,1
"441","CVOE updated",1,1,1,19,"D 02","","",FALSE,"CV","q",1267,"cv","D","2","c","c",TRUE,1
"442","CVOE updated",1,1,1,20,"P 81","","",TRUE,"CV","q",1141,"cv","P","1","c","c",TRUE,1
"443","CVOE updated",1,1,1,21,"J 58","","",FALSE,"CV","q",3512,"cv","J","8","c","c",TRUE,1
"444","CVOE updated",1,1,1,22,"A 22","","",TRUE,"CV","p",492,"cv","A","2","v","v",TRUE,1
"445","CVOE updated",1,1,1,23,"J 72","","",FALSE,"CV","q",599,"cv","J","2","c","c",TRUE,1
"446","CVOE updated",1,1,1,24,"P 91","","",TRUE,"CV","q",590,"cv","P","1","c","c",TRUE,1
"447","CVOE updated",1,1,1,25,"E 19","","",FALSE,"CV","p",666,"cv","E","9","v","v",TRUE,1
"448","CVOE updated",1,1,1,26,"I 30","","",TRUE,"CV","p",710,"cv","I","0","v","v",TRUE,1
"449","CVOE updated",1,1,1,27,"D 91","","",TRUE,"CV","q",515,"cv","D","1","c","c",TRUE,1
"450","CVOE updated",1,1,1,28,"O 48","","",TRUE,"CV","p",823,"cv","O","8","v","v",TRUE,1
"451","CVOE updated",1,1,1,29,"A 89","","",FALSE,"CV","p",545,"cv","A","9","v","v",TRUE,1
"452","CVOE updated",1,1,1,30,"U 11","","",FALSE,"CV","p",736,"cv","U","1","v","v",TRUE,1
"453","CVOE updated",1,1,1,31,"I 76","","",TRUE,"CV","p",608,"cv","I","6","v","v",TRUE,1
"454","CVOE updated",1,1,1,32,"U 89","","",FALSE,"CV","p",978,"cv","U","9","v","v",TRUE,1
"455","CVOE updated",1,1,1,33,"D 63","","",TRUE,"CV","q",482,"cv","D","3","c","c",TRUE,1
"456","CVOE updated",1,1,1,34,"H 70","","",FALSE,"CV","q",795,"cv","H","0","c","c",TRUE,1
"457","CVOE updated",1,1,1,35,"D 48","","",FALSE,"CV","q",585,"cv","D","8","c","c",TRUE,1
"458","CVOE updated",1,1,1,36,"P 56","","",FALSE,"CV","p",520,"cv","P","6","c","v",FALSE,0
"459","CVOE updated",1,1,1,37,"O 77","","",FALSE,"CV","p",1241,"cv","O","7","v","v",TRUE,1
"460","CVOE updated",1,1,1,38,"P 42","","",FALSE,"CV","q",601,"cv","P","2","c","c",TRUE,1
"461","CVOE updated",1,1,1,39,"H 22","","",FALSE,"CV","q",808,"cv","H","2","c","c",TRUE,1
"462","CVOE updated",1,1,1,40,"E 42","","",TRUE,"CV","p",579,"cv","E","2","v","v",TRUE,1
"463","CVOE updated",1,1,1,41,"J 28","","",FALSE,"CV","q",537,"cv","J","8","c","c",TRUE,1
"464","CVOE updated",1,1,1,42,"E 95","","",FALSE,"CV","p",698,"cv","E","5","v","v",TRUE,1
"465","CVOE updated",1,1,1,43,"S 63","","",TRUE,"CV","q",1279,"cv","S","3","c","c",TRUE,1
"466","CVOE updated",1,1,1,44,"H 50","","",FALSE,"CV","q",1077,"cv","H","0","c","c",TRUE,1
"467","CVOE updated",1,1,1,45,"S 33","","",TRUE,"CV","q",619,"cv","S","3","c","c",TRUE,1
"468","CVOE updated",1,1,1,46,"P 57","","",TRUE,"CV","q",705,"cv","P","7","c","c",TRUE,1
"469","CVOE updated",1,1,1,47,"E 23","","",FALSE,"CV","p",568,"cv","E","3","v","v",TRUE,1
"470","CVOE updated",1,1,1,48,"S 61","","",TRUE,"CV","q",465,"cv","S","1","c","c",TRUE,1
"471","CVOE updated",1,1,1,49,"U 67","","",FALSE,"CV","p",564,"cv","U","7","v","v",TRUE,1
"472","CVOE updated",1,1,1,50,"H 32","","",FALSE,"CV","q",507,"cv","H","2","c","c",TRUE,1
"473","CVOE updated",1,1,1,51,"U 50","","",TRUE,"CV","p",635,"cv","U","0","v","v",TRUE,1
"474","CVOE updated",1,1,1,52,"O 49","","",FALSE,"CV","p",2704,"cv","O","9","v","v",TRUE,1
"475","CVOE updated",1,1,1,53,"U 32","","",TRUE,"CV","p",865,"cv","U","2","v","v",TRUE,1
"476","CVOE updated",1,1,1,54,"J 78","","",FALSE,"CV","q",523,"cv","J","8","c","c",TRUE,1
"477","CVOE updated",1,1,1,55,"S 54","","",FALSE,"CV","q",577,"cv","S","4","c","c",TRUE,1
"478","CVOE updated",1,1,1,56,"J 27","","",TRUE,"CV","q",680,"cv","J","7","c","c",TRUE,1
"479","CVOE updated",1,1,1,57,"S 06","","",FALSE,"CV","q",387,"cv","S","6","c","c",TRUE,1
"480","CVOE updated",1,1,1,58,"D 67","","",TRUE,"CV","q",411,"cv","D","7","c","c",TRUE,1
"481","CVOE updated",1,1,1,59,"A 79","","",FALSE,"CV","p",500,"cv","A","9","v","v",TRUE,1
"482","CVOE updated",1,1,1,60,"S 52","","",FALSE,"CV","q",490,"cv","S","2","c","c",TRUE,1
"483","CVOE updated",1,1,1,61,"U 16","","",TRUE,"CV","p",1018,"cv","U","6","v","v",TRUE,1
"484","CVOE updated",1,1,1,62,"O 82","","",TRUE,"CV","p",609,"cv","O","2","v","v",TRUE,1
"485","CVOE updated",1,1,1,63,"H 87","","",TRUE,"CV","q",586,"cv","H","7","c","c",TRUE,1
"486","CVOE updated",1,1,1,64,"I 32","","",TRUE,"CV","p",397,"cv","I","2","v","v",TRUE,1
"487","CVOE updated",1,1,1,65,"U 37","","",FALSE,"CV","p",543,"cv","U","7","v","v",TRUE,1
"488","CVOE updated",1,1,1,66,"I 42","","",TRUE,"CV","p",455,"cv","I","2","v","v",TRUE,1
"489","CVOE updated",1,1,1,67,"D 65","","",TRUE,"CV","q",432,"cv","D","5","c","c",TRUE,1
"490","CVOE updated",1,1,1,68,"U 77","","",FALSE,"CV","p",619,"cv","U","7","v","v",TRUE,1
"491","CVOE updated",1,1,1,69,"E 12","","",TRUE,"CV","p",464,"cv","E","2","v","v",TRUE,1
"492","CVOE updated",1,1,1,70,"I 60","","",TRUE,"CV","p",490,"cv","I","0","v","v",TRUE,1
"493","CVOE updated",1,1,1,71,"J 36","","",FALSE,"CV","q",545,"cv","J","6","c","c",TRUE,1
"494","CVOE updated",1,1,1,72,"H 75","","",TRUE,"CV","q",2057,"cv","H","5","c","c",TRUE,1
"495","CVOE updated",1,1,1,73,"I 50","","",TRUE,"CV","p",504,"cv","I","0","v","v",TRUE,1
"496","CVOE updated",1,1,1,74,"E 99","","",FALSE,"CV","p",771,"cv","E","9","v","v",TRUE,1
"497","CVOE updated",1,1,1,75,"A 86","","",TRUE,"CV","p",596,"cv","A","6","v","v",TRUE,1
"498","CVOE updated",1,1,1,76,"U 48","","",TRUE,"CV","p",514,"cv","U","8","v","v",TRUE,1
"499","CVOE updated",1,1,1,77,"E 01","","",FALSE,"CV","p",468,"cv","E","1","v","v",TRUE,1
"500","CVOE updated",1,1,1,78,"A 78","","",TRUE,"CV","p",356,"cv","A","8","v","v",TRUE,1
"501","CVOE updated",1,1,1,79,"P 60","","",FALSE,"CV","q",500,"cv","P","0","c","c",TRUE,1
"502","CVOE updated",1,1,1,80,"E 43","","",FALSE,"CV","p",662,"cv","E","3","v","v",TRUE,1
"503","CVOE updated",1,1,1,81,"D 69","","",TRUE,"CV","q",627,"cv","D","9","c","c",TRUE,1
"504","CVOE updated",1,1,1,82,"H 11","","",TRUE,"CV","q",634,"cv","H","1","c","c",TRUE,1
"505","CVOE updated",1,1,1,83,"P 43","","",TRUE,"CV","q",568,"cv","P","3","c","c",TRUE,1
"506","CVOE updated",1,1,1,84,"O 67","","",FALSE,"CV","p",433,"cv","O","7","v","v",TRUE,1
"507","CVOE updated",1,1,1,85,"S 91","","",FALSE,"CV","q",533,"cv","S","1","c","c",TRUE,1
"508","CVOE updated",1,1,1,86,"J 68","","",TRUE,"CV","q",674,"cv","J","8","c","c",TRUE,1
"509","CVOE updated",1,1,1,87,"S 47","","",FALSE,"CV","q",443,"cv","S","7","c","c",TRUE,1
"510","CVOE updated",1,1,1,88,"I 81","","",TRUE,"CV","p",478,"cv","I","1","v","v",TRUE,1
"511","CVOE updated",1,1,1,89,"J 39","","",FALSE,"CV","q",483,"cv","J","9","c","c",TRUE,1
"512","CVOE updated",1,1,1,90,"A 11","","",TRUE,"CV","p",454,"cv","A","1","v","v",TRUE,1
"513","CVOE updated",1,1,1,91,"O 76","","",FALSE,"CV","p",726,"cv","O","6","v","v",TRUE,1
"514","CVOE updated",1,1,1,92,"A 62","","",FALSE,"CV","p",563,"cv","A","2","v","v",TRUE,1
"515","CVOE updated",1,1,1,93,"O 27","","",TRUE,"CV","p",554,"cv","O","7","v","v",TRUE,1
"516","CVOE updated",1,1,1,94,"E 66","","",FALSE,"CV","p",653,"cv","E","6","v","v",TRUE,1
"517","CVOE updated",1,1,1,95,"J 62","","",TRUE,"CV","q",924,"cv","J","2","c","c",TRUE,1
"518","CVOE updated",1,1,1,96,"H 72","","",TRUE,"CV","q",541,"cv","H","2","c","c",TRUE,1
"519","CVOE updated",1,1,1,97,"E 49","","",TRUE,"CV","p",575,"cv","E","9","v","v",TRUE,1
"520","CVOE updated",1,1,1,98,"D 52","","",TRUE,"CV","q",754,"cv","D","2","c","c",TRUE,1
"521","CVOE updated",1,1,1,99,"H 62","","",TRUE,"CV","q",633,"cv","H","2","c","c",TRUE,1
"522","CVOE updated",1,1,1,100,"I 11","","",TRUE,"CV","p",544,"cv","I","1","v","v",TRUE,1
"523","CVOE updated",1,1,1,101,"A 98","","",FALSE,"CV","p",588,"cv","A","8","v","v",TRUE,1
"524","CVOE updated",1,1,1,102,"H 29","","",FALSE,"CV","q",516,"cv","H","9","c","c",TRUE,1
"525","CVOE updated",1,1,1,103,"E 83","","",TRUE,"CV","p",544,"cv","E","3","v","v",TRUE,1
"526","CVOE updated",1,1,1,104,"D 43","","",FALSE,"CV","q",919,"cv","D","3","c","c",TRUE,1
"527","CVOE updated",1,1,1,105,"P 45","","",TRUE,"CV","q",658,"cv","P","5","c","c",TRUE,1
"528","CVOE updated",1,1,1,106,"J 17","","",TRUE,"CV","q",504,"cv","J","7","c","c",TRUE,1
"865","CVOE updated",9,1,1,11,"A 71","","",FALSE,"CV","p",1803,"cv","A","1","v","v",TRUE,1
"866","CVOE updated",9,1,1,12,"I 66","","",TRUE,"CV","p",612,"cv","I","6","v","v",TRUE,1
"867","CVOE updated",9,1,1,13,"S 30","","",FALSE,"CV","q",487,"cv","S","0","c","c",TRUE,1
"868","CVOE updated",9,1,1,14,"D 20","","",FALSE,"CV","q",571,"cv","D","0","c","c",TRUE,1
"869","CVOE updated",9,1,1,15,"I 31","","",FALSE,"CV","p",526,"cv","I","1","v","v",TRUE,1
"870","CVOE updated",9,1,1,16,"P 16","","",FALSE,"CV","q",590,"cv","P","6","c","c",TRUE,1
"871","CVOE updated",9,1,1,17,"A 49","","",FALSE,"CV","p",524,"cv","A","9","v","v",TRUE,1
"872","CVOE updated",9,1,1,18,"O 64","","",TRUE,"CV","p",612,"cv","O","4","v","v",TRUE,1
"873","CVOE updated",9,1,1,19,"D 02","","",FALSE,"CV","q",471,"cv","D","2","c","c",TRUE,1
"874","CVOE updated",9,1,1,20,"P 81","","",TRUE,"CV","q",765,"cv","P","1","c","c",TRUE,1
"875","CVOE updated",9,1,1,21,"J 58","","",FALSE,"CV","q",749,"cv","J","8","c","c",TRUE,1
"876","CVOE updated",9,1,1,22,"A 22","","",TRUE,"CV","p",475,"cv","A","2","v","v",TRUE,1
"877","CVOE updated",9,1,1,23,"J 72","","",FALSE,"CV","q",532,"cv","J","2","c","c",TRUE,1
"878","CVOE updated",9,1,1,24,"P 91","","",TRUE,"CV","q",535,"cv","P","1","c","c",TRUE,1
"879","CVOE updated",9,1,1,25,"E 19","","",FALSE,"CV","p",450,"cv","E","9","v","v",TRUE,1
"880","CVOE updated",9,1,1,26,"I 30","","",TRUE,"CV","p",453,"cv","I","0","v","v",TRUE,1
"881","CVOE updated",9,1,1,27,"D 91","","",TRUE,"CV","q",488,"cv","D","1","c","c",TRUE,1
"882","CVOE updated",9,1,1,28,"O 48","","",TRUE,"CV","p",531,"cv","O","8","v","v",TRUE,1
"883","CVOE updated",9,1,1,29,"A 89","","",FALSE,"CV","p",566,"cv","A","9","v","v",TRUE,1
"884","CVOE updated",9,1,1,30,"U 11","","",FALSE,"CV","p",542,"cv","U","1","v","v",TRUE,1
"885","CVOE updated",9,1,1,31,"I 76","","",TRUE,"CV","p",420,"cv","I","6","v","v",TRUE,1
"886","CVOE updated",9,1,1,32,"U 89","","",FALSE,"CV","p",450,"cv","U","9","v","v",TRUE,1
"887","CVOE updated",9,1,1,33,"D 63","","",TRUE,"CV","q",461,"cv","D","3","c","c",TRUE,1
"888","CVOE updated",9,1,1,34,"H 70","","",FALSE,"CV","q",475,"cv","H","0","c","c",TRUE,1
"889","CVOE updated",9,1,1,35,"D 48","","",FALSE,"CV","q",451,"cv","D","8","c","c",TRUE,1
"890","CVOE updated",9,1,1,36,"P 56","","",FALSE,"CV","q",502,"cv","P","6","c","c",TRUE,1
"891","CVOE updated",9,1,1,37,"O 77","","",FALSE,"CV","p",444,"cv","O","7","v","v",TRUE,1
"892","CVOE updated",9,1,1,38,"P 42","","",FALSE,"CV","q",756,"cv","P","2","c","c",TRUE,1
"893","CVOE updated",9,1,1,39,"H 22","","",FALSE,"CV","q",693,"cv","H","2","c","c",TRUE,1
"894","CVOE updated",9,1,1,40,"E 42","","",TRUE,"CV","p",344,"cv","E","2","v","v",TRUE,1
"895","CVOE updated",9,1,1,41,"J 28","","",FALSE,"CV","q",1029,"cv","J","8","c","c",TRUE,1
"896","CVOE updated",9,1,1,42,"E 95","","",FALSE,"CV","p",595,"cv","E","5","v","v",TRUE,1
"897","CVOE updated",9,1,1,43,"S 63","","",TRUE,"CV","q",508,"cv","S","3","c","c",TRUE,1
"898","CVOE updated",9,1,1,44,"H 50","","",FALSE,"CV","q",449,"cv","H","0","c","c",TRUE,1
"899","CVOE updated",9,1,1,45,"S 33","","",TRUE,"CV","q",476,"cv","S","3","c","c",TRUE,1
"900","CVOE updated",9,1,1,46,"P 57","","",TRUE,"CV","q",541,"cv","P","7","c","c",TRUE,1
"901","CVOE updated",9,1,1,47,"E 23","","",FALSE,"CV","p",459,"cv","E","3","v","v",TRUE,1
"902","CVOE updated",9,1,1,48,"S 61","","",TRUE,"CV","q",422,"cv","S","1","c","c",TRUE,1
"903","CVOE updated",9,1,1,49,"U 67","","",FALSE,"CV","p",515,"cv","U","7","v","v",TRUE,1
"904","CVOE updated",9,1,1,50,"H 32","","",FALSE,"CV","q",540,"cv","H","2","c","c",TRUE,1
"905","CVOE updated",9,1,1,51,"U 50","","",TRUE,"CV","p",575,"cv","U","0","v","v",TRUE,1
"906","CVOE updated",9,1,1,52,"O 49","","",FALSE,"CV","p",554,"cv","O","9","v","v",TRUE,1
"907","CVOE updated",9,1,1,53,"U 32","","",TRUE,"CV","p",530,"cv","U","2","v","v",TRUE,1
"908","CVOE updated",9,1,1,54,"J 78","","",FALSE,"CV","q",509,"cv","J","8","c","c",TRUE,1
"909","CVOE updated",9,1,1,55,"S 54","","",FALSE,"CV","q",571,"cv","S","4","c","c",TRUE,1
"910","CVOE updated",9,1,1,56,"J 27","","",TRUE,"CV","q",550,"cv","J","7","c","c",TRUE,1
"911","CVOE updated",9,1,1,57,"S 06","","",FALSE,"CV","q",612,"cv","S","6","c","c",TRUE,1
"912","CVOE updated",9,1,1,58,"D 67","","",TRUE,"CV","q",487,"cv","D","7","c","c",TRUE,1
"913","CVOE updated",9,1,1,59,"A 79","","",FALSE,"CV","p",482,"cv","A","9","v","v",TRUE,1
"914","CVOE updated",9,1,1,60,"S 52","","",FALSE,"CV","q",498,"cv","S","2","c","c",TRUE,1
"915","CVOE updated",9,1,1,61,"U 16","","",TRUE,"CV","p",526,"cv","U","6","v","v",TRUE,1
"916","CVOE updated",9,1,1,62,"O 82","","",TRUE,"CV","p",430,"cv","O","2","v","v",TRUE,1
"917","CVOE updated",9,1,1,63,"H 87","","",TRUE,"CV","q",516,"cv","H","7","c","c",TRUE,1
"918","CVOE updated",9,1,1,64,"I 32","","",TRUE,"CV","p",372,"cv","I","2","v","v",TRUE,1
"919","CVOE updated",9,1,1,65,"U 37","","",FALSE,"CV","p",455,"cv","U","7","v","v",TRUE,1
"920","CVOE updated",9,1,1,66,"I 42","","",TRUE,"CV","p",466,"cv","I","2","v","v",TRUE,1
"921","CVOE updated",9,1,1,67,"D 65","","",TRUE,"CV","q",400,"cv","D","5","c","c",TRUE,1
"922","CVOE updated",9,1,1,68,"U 77","","",FALSE,"CV","p",472,"cv","U","7","v","v",TRUE,1
"923","CVOE updated",9,1,1,69,"E 12","","",TRUE,"CV","p",462,"cv","E","2","v","v",TRUE,1
"924","CVOE updated",9,1,1,70,"I 60","","",TRUE,"CV","p",452,"cv","I","0","v","v",TRUE,1
"925","CVOE updated",9,1,1,71,"J 36","","",FALSE,"CV","q",423,"cv","J","6","c","c",TRUE,1
"926","CVOE updated",9,1,1,72,"H 75","","",TRUE,"CV","q",492,"cv","H","5","c","c",TRUE,1
"927","CVOE updated",9,1,1,73,"I 50","","",TRUE,"CV","p",535,"cv","I","0","v","v",TRUE,1
"928","CVOE updated",9,1,1,74,"E 99","","",FALSE,"CV","p",450,"cv","E","9","v","v",TRUE,1
"929","CVOE updated",9,1,1,75,"A 86","","",TRUE,"CV","p",437,"cv","A","6","v","v",TRUE,1
"930","CVOE updated",9,1,1,76,"U 48","","",TRUE,"CV","p",510,"cv","U","8","v","v",TRUE,1
"931","CVOE updated",9,1,1,77,"E 01","","",FALSE,"CV","p",484,"cv","E","1","v","v",TRUE,1
"932","CVOE updated",9,1,1,78,"A 78","","",TRUE,"CV","p",444,"cv","A","8","v","v",TRUE,1
"933","CVOE updated",9,1,1,79,"P 60","","",FALSE,"CV","q",468,"cv","P","0","c","c",TRUE,1
"934","CVOE updated",9,1,1,80,"E 43","","",FALSE,"CV","p",458,"cv","E","3","v","v",TRUE,1
"935","CVOE updated",9,1,1,81,"D 69","","",TRUE,"CV","q",413,"cv","D","9","c","c",TRUE,1
"936","CVOE updated",9,1,1,82,"H 11","","",TRUE,"CV","q",520,"cv","H","1","c","c",TRUE,1
"937","CVOE updated",9,1,1,83,"P 43","","",TRUE,"CV","q",1016,"cv","P","3","c","c",TRUE,1
"938","CVOE updated",9,1,1,84,"O 67","","",FALSE,"CV","p",484,"cv","O","7","v","v",TRUE,1
"939","CVOE updated",9,1,1,85,"S 91","","",FALSE,"CV","q",476,"cv","S","1","c","c",TRUE,1
"940","CVOE updated",9,1,1,86,"J 68","","",TRUE,"CV","q",444,"cv","J","8","c","c",TRUE,1
"941","CVOE updated",9,1,1,87,"S 47","","",FALSE,"CV","q",501,"cv","S","7","c","c",TRUE,1
"942","CVOE updated",9,1,1,88,"I 81","","",TRUE,"CV","p",499,"cv","I","1","v","v",TRUE,1
"943","CVOE updated",9,1,1,89,"J 39","","",FALSE,"CV","q",438,"cv","J","9","c","c",TRUE,1
"944","CVOE updated",9,1,1,90,"A 11","","",TRUE,"CV","p",526,"cv","A","1","v","v",TRUE,1
"945","CVOE updated",9,1,1,91,"O 76","","",FALSE,"CV","p",398,"cv","O","6","v","v",TRUE,1
"946","CVOE updated",9,1,1,92,"A 62","","",FALSE,"CV","p",415,"cv","A","2","v","v",TRUE,1
"947","CVOE updated",9,1,1,93,"O 27","","",TRUE,"CV","p",394,"cv","O","7","v","v",TRUE,1
"948","CVOE updated",9,1,1,94,"E 66","","",FALSE,"CV","p",466,"cv","E","6","v","v",TRUE,1
"949","CVOE updated",9,1,1,95,"J 62","","",TRUE,"CV","q",448,"cv","J","2","c","c",TRUE,1
"950","CVOE updated",9,1,1,96,"H 72","","",TRUE,"CV","q",507,"cv","H","2","c","c",TRUE,1
"951","CVOE updated",9,1,1,97,"E 49","","",TRUE,"CV","p",417,"cv","E","9","v","v",TRUE,1
"952","CVOE updated",9,1,1,98,"D 52","","",TRUE,"CV","q",460,"cv","D","2","c","c",TRUE,1
"953","CVOE updated",9,1,1,99,"H 62","","",TRUE,"CV","q",383,"cv","H","2","c","c",TRUE,1
"954","CVOE updated",9,1,1,100,"I 11","","",TRUE,"CV","p",372,"cv","I","1","v","v",TRUE,1
"955","CVOE updated",9,1,1,101,"A 98","","",FALSE,"CV","p",367,"cv","A","8","v","v",TRUE,1
"956","CVOE updated",9,1,1,102,"H 29","","",FALSE,"CV","q",426,"cv","H","9","c","c",TRUE,1
"957","CVOE updated",9,1,1,103,"E 83","","",TRUE,"CV","p",488,"cv","E","3","v","v",TRUE,1
"958","CVOE updated",9,1,1,104,"D 43","","",FALSE,"CV","q",459,"cv","D","3","c","c",TRUE,1
"959","CVOE updated",9,1,1,105,"P 45","","",TRUE,"CV","q",502,"cv","P","5","c","c",TRUE,1
"960","CVOE updated",9,1,1,106,"J 17","","",TRUE,"CV","q",420,"cv","J","7","c","c",TRUE,1
"1393","CVOE_B",2,1,2,11,"A 71","","",FALSE,"CV","p",1063,"cv","A","1","v","v",TRUE,1
"1394","CVOE_B",2,1,2,12,"I 66","","",TRUE,"CV","p",574,"cv","I","6","v","v",TRUE,1
"1395","CVOE_B",2,1,2,13,"S 30","","",FALSE,"CV","q",481,"cv","S","0","c","c",TRUE,1
"1396","CVOE_B",2,1,2,14,"D 20","","",FALSE,"CV","q",577,"cv","D","0","c","c",TRUE,1
"1397","CVOE_B",2,1,2,15,"I 31","","",FALSE,"CV","p",621,"cv","I","1","v","v",TRUE,1
"1398","CVOE_B",2,1,2,16,"P 16","","",FALSE,"CV","q",706,"cv","P","6","c","c",TRUE,1
"1399","CVOE_B",2,1,2,17,"A 49","","",FALSE,"CV","p",583,"cv","A","9","v","v",TRUE,1
"1400","CVOE_B",2,1,2,18,"O 64","","",TRUE,"CV","p",1661,"cv","O","4","v","v",TRUE,1
"1401","CVOE_B",2,1,2,19,"D 02","","",FALSE,"CV","q",580,"cv","D","2","c","c",TRUE,1
"1402","CVOE_B",2,1,2,20,"P 81","","",TRUE,"CV","q",1006,"cv","P","1","c","c",TRUE,1
"1403","CVOE_B",2,1,2,21,"J 58","","",FALSE,"CV","q",537,"cv","J","8","c","c",TRUE,1
"1404","CVOE_B",2,1,2,22,"A 22","","",TRUE,"CV","p",572,"cv","A","2","v","v",TRUE,1
"1405","CVOE_B",2,1,2,23,"J 72","","",FALSE,"CV","q",505,"cv","J","2","c","c",TRUE,1
"1406","CVOE_B",2,1,2,24,"P 91","","",TRUE,"CV","q",485,"cv","P","1","c","c",TRUE,1
"1407","CVOE_B",2,1,2,25,"E 19","","",FALSE,"CV","p",414,"cv","E","9","v","v",TRUE,1
"1408","CVOE_B",2,1,2,26,"I 30","","",TRUE,"CV","p",585,"cv","I","0","v","v",TRUE,1
"1409","CVOE_B",2,1,2,27,"D 91","","",TRUE,"CV","q",414,"cv","D","1","c","c",TRUE,1
"1410","CVOE_B",2,1,2,28,"O 48","","",TRUE,"CV","p",401,"cv","O","8","v","v",TRUE,1
"1411","CVOE_B",2,1,2,29,"A 89","","",FALSE,"CV","p",578,"cv","A","9","v","v",TRUE,1
"1412","CVOE_B",2,1,2,30,"U 11","","",FALSE,"CV","p",606,"cv","U","1","v","v",TRUE,1
"1413","CVOE_B",2,1,2,31,"I 76","","",TRUE,"CV","p",485,"cv","I","6","v","v",TRUE,1
"1414","CVOE_B",2,1,2,32,"U 89","","",FALSE,"CV","p",431,"cv","U","9","v","v",TRUE,1
"1415","CVOE_B",2,1,2,33,"D 63","","",TRUE,"CV","q",443,"cv","D","3","c","c",TRUE,1
"1416","CVOE_B",2,1,2,34,"H 70","","",FALSE,"CV","q",564,"cv","H","0","c","c",TRUE,1
"1417","CVOE_B",2,1,2,35,"D 48","","",FALSE,"CV","q",508,"cv","D","8","c","c",TRUE,1
"1418","CVOE_B",2,1,2,36,"P 56","","",FALSE,"CV","q",498,"cv","P","6","c","c",TRUE,1
"1419","CVOE_B",2,1,2,37,"O 77","","",FALSE,"CV","p",445,"cv","O","7","v","v",TRUE,1
"1420","CVOE_B",2,1,2,38,"P 42","","",FALSE,"CV","q",461,"cv","P","2","c","c",TRUE,1
"1421","CVOE_B",2,1,2,39,"H 22","","",FALSE,"CV","q",443,"cv","H","2","c","c",TRUE,1
"1422","CVOE_B",2,1,2,40,"E 42","","",TRUE,"CV","p",491,"cv","E","2","v","v",TRUE,1
"1423","CVOE_B",2,1,2,41,"J 28","","",FALSE,"CV","q",663,"cv","J","8","c","c",TRUE,1
"1424","CVOE_B",2,1,2,42,"E 95","","",FALSE,"CV","p",692,"cv","E","5","v","v",TRUE,1
"1425","CVOE_B",2,1,2,43,"S 63","","",TRUE,"CV","q",559,"cv","S","3","c","c",TRUE,1
"1426","CVOE_B",2,1,2,44,"H 50","","",FALSE,"CV","q",480,"cv","H","0","c","c",TRUE,1
"1427","CVOE_B",2,1,2,45,"S 33","","",TRUE,"CV","q",408,"cv","S","3","c","c",TRUE,1
"1428","CVOE_B",2,1,2,46,"P 57","","",TRUE,"CV","q",459,"cv","P","7","c","c",TRUE,1
"1429","CVOE_B",2,1,2,47,"E 23","","",FALSE,"CV","p",543,"cv","E","3","v","v",TRUE,1
"1430","CVOE_B",2,1,2,48,"S 61","","",TRUE,"CV","q",549,"cv","S","1","c","c",TRUE,1
"1431","CVOE_B",2,1,2,49,"U 67","","",FALSE,"CV","p",602,"cv","U","7","v","v",TRUE,1
"1432","CVOE_B",2,1,2,50,"H 32","","",FALSE,"CV","q",467,"cv","H","2","c","c",TRUE,1
"1433","CVOE_B",2,1,2,51,"U 50","","",TRUE,"CV","p",593,"cv","U","0","v","v",TRUE,1
"1434","CVOE_B",2,1,2,52,"O 49","","",FALSE,"CV","p",542,"cv","O","9","v","v",TRUE,1
"1435","CVOE_B",2,1,2,53,"U 32","","",TRUE,"CV","p",516,"cv","U","2","v","v",TRUE,1
"1436","CVOE_B",2,1,2,54,"J 78","","",FALSE,"CV","q",477,"cv","J","8","c","c",TRUE,1
"1437","CVOE_B",2,1,2,55,"S 54","","",FALSE,"CV","q",500,"cv","S","4","c","c",TRUE,1
"1438","CVOE_B",2,1,2,56,"J 27","","",TRUE,"CV","q",491,"cv","J","7","c","c",TRUE,1
"1439","CVOE_B",2,1,2,57,"S 06","","",FALSE,"CV","q",437,"cv","S","6","c","c",TRUE,1
"1440","CVOE_B",2,1,2,58,"D 67","","",TRUE,"CV","q",421,"cv","D","7","c","c",TRUE,1
"1441","CVOE_B",2,1,2,59,"A 79","","",FALSE,"CV","p",563,"cv","A","9","v","v",TRUE,1
"1442","CVOE_B",2,1,2,60,"S 52","","",FALSE,"CV","q",556,"cv","S","2","c","c",TRUE,1
"1443","CVOE_B",2,1,2,61,"U 16","","",TRUE,"CV","p",581,"cv","U","6","v","v",TRUE,1
"1444","CVOE_B",2,1,2,62,"O 82","","",TRUE,"CV","p",577,"cv","O","2","v","v",TRUE,1
"1445","CVOE_B",2,1,2,63,"H 87","","",TRUE,"CV","q",582,"cv","H","7","c","c",TRUE,1
"1446","CVOE_B",2,1,2,64,"I 32","","",TRUE,"CV","p",610,"cv","I","2","v","v",TRUE,1
"1447","CVOE_B",2,1,2,65,"U 37","","",FALSE,"CV","q",598,"cv","U","7","v","c",FALSE,0
"1448","CVOE_B",2,1,2,66,"I 42","","",TRUE,"CV","p",743,"cv","I","2","v","v",TRUE,1
"1449","CVOE_B",2,1,2,67,"D 65","","",TRUE,"CV","q",517,"cv","D","5","c","c",TRUE,1
"1450","CVOE_B",2,1,2,68,"U 77","","",FALSE,"CV","q",549,"cv","U","7","v","c",FALSE,0
"1451","CVOE_B",2,1,2,69,"E 12","","",TRUE,"CV","p",530,"cv","E","2","v","v",TRUE,1
"1452","CVOE_B",2,1,2,70,"I 60","","",TRUE,"CV","p",605,"cv","I","0","v","v",TRUE,1
"1453","CVOE_B",2,1,2,71,"J 36","","",FALSE,"CV","q",542,"cv","J","6","c","c",TRUE,1
"1454","CVOE_B",2,1,2,72,"H 75","","",TRUE,"CV","q",724,"cv","H","5","c","c",TRUE,1
"1455","CVOE_B",2,1,2,73,"I 50","","",TRUE,"CV","p",588,"cv","I","0","v","v",TRUE,1
"1456","CVOE_B",2,1,2,74,"E 99","","",FALSE,"CV","p",706,"cv","E","9","v","v",TRUE,1
"1457","CVOE_B",2,1,2,75,"A 86","","",TRUE,"CV","p",527,"cv","A","6","v","v",TRUE,1
"1458","CVOE_B",2,1,2,76,"U 48","","",TRUE,"CV","p",522,"cv","U","8","v","v",TRUE,1
"1459","CVOE_B",2,1,2,77,"E 01","","",FALSE,"CV","p",468,"cv","E","1","v","v",TRUE,1
"1460","CVOE_B",2,1,2,78,"A 78","","",TRUE,"CV","p",449,"cv","A","8","v","v",TRUE,1
"1461","CVOE_B",2,1,2,79,"P 60","","",FALSE,"CV","q",476,"cv","P","0","c","c",TRUE,1
"1462","CVOE_B",2,1,2,80,"E 43","","",FALSE,"CV","p",780,"cv","E","3","v","v",TRUE,1
"1463","CVOE_B",2,1,2,81,"D 69","","",TRUE,"CV","q",538,"cv","D","9","c","c",TRUE,1
"1464","CVOE_B",2,1,2,82,"H 11","","",TRUE,"CV","q",605,"cv","H","1","c","c",TRUE,1
"1465","CVOE_B",2,1,2,83,"P 43","","",TRUE,"CV","q",830,"cv","P","3","c","c",TRUE,1
"1466","CVOE_B",2,1,2,84,"O 67","","",FALSE,"CV","p",508,"cv","O","7","v","v",TRUE,1
"1467","CVOE_B",2,1,2,85,"S 91","","",FALSE,"CV","q",497,"cv","S","1","c","c",TRUE,1
"1468","CVOE_B",2,1,2,86,"J 68","","",TRUE,"CV","q",588,"cv","J","8","c","c",TRUE,1
"1469","CVOE_B",2,1,2,87,"S 47","","",FALSE,"CV","q",497,"cv","S","7","c","c",TRUE,1
"1470","CVOE_B",2,1,2,88,"I 81","","",TRUE,"CV","p",548,"cv","I","1","v","v",TRUE,1
"1471","CVOE_B",2,1,2,89,"J 39","","",FALSE,"CV","q",443,"cv","J","9","c","c",TRUE,1
"1472","CVOE_B",2,1,2,90,"A 11","","",TRUE,"CV","p",564,"cv","A","1","v","v",TRUE,1
"1473","CVOE_B",2,1,2,91,"O 76","","",FALSE,"CV","p",540,"cv","O","6","v","v",TRUE,1
"1474","CVOE_B",2,1,2,92,"A 62","","",FALSE,"CV","p",543,"cv","A","2","v","v",TRUE,1
"1475","CVOE_B",2,1,2,93,"O 27","","",TRUE,"CV","p",541,"cv","O","7","v","v",TRUE,1
"1476","CVOE_B",2,1,2,94,"E 66","","",FALSE,"CV","p",481,"cv","E","6","v","v",TRUE,1
"1477","CVOE_B",2,1,2,95,"J 62","","",TRUE,"CV","q",459,"cv","J","2","c","c",TRUE,1
"1478","CVOE_B",2,1,2,96,"H 72","","",TRUE,"CV","q",565,"cv","H","2","c","c",TRUE,1
"1479","CVOE_B",2,1,2,97,"E 49","","",TRUE,"CV","p",750,"cv","E","9","v","v",TRUE,1
"1480","CVOE_B",2,1,2,98,"D 52","","",TRUE,"CV","q",1780,"cv","D","2","c","c",TRUE,1
"1481","CVOE_B",2,1,2,99,"H 62","","",TRUE,"CV","q",482,"cv","H","2","c","c",TRUE,1
"1482","CVOE_B",2,1,2,100,"I 11","","",TRUE,"CV","p",507,"cv","I","1","v","v",TRUE,1
"1483","CVOE_B",2,1,2,101,"A 98","","",FALSE,"CV","p",472,"cv","A","8","v","v",TRUE,1
"1484","CVOE_B",2,1,2,102,"H 29","","",FALSE,"CV","q",557,"cv","H","9","c","c",TRUE,1
"1485","CVOE_B",2,1,2,103,"E 83","","",TRUE,"CV","p",502,"cv","E","3","v","v",TRUE,1
"1486","CVOE_B",2,1,2,104,"D 43","","",FALSE,"CV","q",548,"cv","D","3","c","c",TRUE,1
"1487","CVOE_B",2,1,2,105,"P 45","","",TRUE,"CV","q",634,"cv","P","5","c","c",TRUE,1
"1488","CVOE_B",2,1,2,106,"J 17","","",TRUE,"CV","q",481,"cv","J","7","c","c",TRUE,1
"1825","CVOE_B",10,1,2,11,"A 71","","",FALSE,"CV","p",1228,"cv","A","1","v","v",TRUE,1
"1826","CVOE_B",10,1,2,12,"I 66","","",TRUE,"CV","p",930,"cv","I","6","v","v",TRUE,1
"1827","CVOE_B",10,1,2,13,"S 30","","",FALSE,"CV","q",950,"cv","S","0","c","c",TRUE,1
"1828","CVOE_B",10,1,2,14,"D 20","","",FALSE,"CV","q",643,"cv","D","0","c","c",TRUE,1
"1829","CVOE_B",10,1,2,15,"I 31","","",FALSE,"CV","p",732,"cv","I","1","v","v",TRUE,1
"1830","CVOE_B",10,1,2,16,"P 16","","",FALSE,"CV","q",1455,"cv","P","6","c","c",TRUE,1
"1831","CVOE_B",10,1,2,17,"A 49","","",FALSE,"CV","p",658,"cv","A","9","v","v",TRUE,1
"1832","CVOE_B",10,1,2,18,"O 64","","",TRUE,"CV","p",758,"cv","O","4","v","v",TRUE,1
"1833","CVOE_B",10,1,2,19,"D 02","","",FALSE,"CV","q",694,"cv","D","2","c","c",TRUE,1
"1834","CVOE_B",10,1,2,20,"P 81","","",TRUE,"CV","p",577,"cv","P","1","c","v",FALSE,0
"1835","CVOE_B",10,1,2,21,"J 58","","",FALSE,"CV","q",1428,"cv","J","8","c","c",TRUE,1
"1836","CVOE_B",10,1,2,22,"A 22","","",TRUE,"CV","p",610,"cv","A","2","v","v",TRUE,1
"1837","CVOE_B",10,1,2,23,"J 72","","",FALSE,"CV","q",533,"cv","J","2","c","c",TRUE,1
"1838","CVOE_B",10,1,2,24,"P 91","","",TRUE,"CV","q",696,"cv","P","1","c","c",TRUE,1
"1839","CVOE_B",10,1,2,25,"E 19","","",FALSE,"CV","p",780,"cv","E","9","v","v",TRUE,1
"1840","CVOE_B",10,1,2,26,"I 30","","",TRUE,"CV","p",1223,"cv","I","0","v","v",TRUE,1
"1841","CVOE_B",10,1,2,27,"D 91","","",TRUE,"CV","q",557,"cv","D","1","c","c",TRUE,1
"1842","CVOE_B",10,1,2,28,"O 48","","",TRUE,"CV","p",1861,"cv","O","8","v","v",TRUE,1
"1843","CVOE_B",10,1,2,29,"A 89","","",FALSE,"CV","p",651,"cv","A","9","v","v",TRUE,1
"1844","CVOE_B",10,1,2,30,"U 11","","",FALSE,"CV","p",822,"cv","U","1","v","v",TRUE,1
"1845","CVOE_B",10,1,2,31,"I 76","","",TRUE,"CV","p",652,"cv","I","6","v","v",TRUE,1
"1846","CVOE_B",10,1,2,32,"U 89","","",FALSE,"CV","p",815,"cv","U","9","v","v",TRUE,1
"1847","CVOE_B",10,1,2,33,"D 63","","",TRUE,"CV","q",603,"cv","D","3","c","c",TRUE,1
"1848","CVOE_B",10,1,2,34,"H 70","","",FALSE,"CV","q",731,"cv","H","0","c","c",TRUE,1
"1849","CVOE_B",10,1,2,35,"D 48","","",FALSE,"CV","q",630,"cv","D","8","c","c",TRUE,1
"1850","CVOE_B",10,1,2,36,"P 56","","",FALSE,"CV","q",404,"cv","P","6","c","c",TRUE,1
"1851","CVOE_B",10,1,2,37,"O 77","","",FALSE,"CV","p",948,"cv","O","7","v","v",TRUE,1
"1852","CVOE_B",10,1,2,38,"P 42","","",FALSE,"CV","q",674,"cv","P","2","c","c",TRUE,1
"1853","CVOE_B",10,1,2,39,"H 22","","",FALSE,"CV","q",1475,"cv","H","2","c","c",TRUE,1
"1854","CVOE_B",10,1,2,40,"E 42","","",TRUE,"CV","p",555,"cv","E","2","v","v",TRUE,1
"1855","CVOE_B",10,1,2,41,"J 28","","",FALSE,"CV","q",460,"cv","J","8","c","c",TRUE,1
"1856","CVOE_B",10,1,2,42,"E 95","","",FALSE,"CV","p",679,"cv","E","5","v","v",TRUE,1
"1857","CVOE_B",10,1,2,43,"S 63","","",TRUE,"CV","q",335,"cv","S","3","c","c",TRUE,1
"1858","CVOE_B",10,1,2,44,"H 50","","",FALSE,"CV","q",554,"cv","H","0","c","c",TRUE,1
"1859","CVOE_B",10,1,2,45,"S 33","","",TRUE,"CV","q",579,"cv","S","3","c","c",TRUE,1
"1860","CVOE_B",10,1,2,46,"P 57","","",TRUE,"CV","q",574,"cv","P","7","c","c",TRUE,1
"1861","CVOE_B",10,1,2,47,"E 23","","",FALSE,"CV","p",601,"cv","E","3","v","v",TRUE,1
"1862","CVOE_B",10,1,2,48,"S 61","","",TRUE,"CV","q",697,"cv","S","1","c","c",TRUE,1
"1863","CVOE_B",10,1,2,49,"U 67","","",FALSE,"CV","p",700,"cv","U","7","v","v",TRUE,1
"1864","CVOE_B",10,1,2,50,"H 32","","",FALSE,"CV","q",600,"cv","H","2","c","c",TRUE,1
"1865","CVOE_B",10,1,2,51,"U 50","","",TRUE,"CV","p",336,"cv","U","0","v","v",TRUE,1
"1866","CVOE_B",10,1,2,52,"O 49","","",FALSE,"CV","p",1555,"cv","O","9","v","v",TRUE,1
"1867","CVOE_B",10,1,2,53,"U 32","","",TRUE,"CV","p",580,"cv","U","2","v","v",TRUE,1
"1868","CVOE_B",10,1,2,54,"J 78","","",FALSE,"CV","q",623,"cv","J","8","c","c",TRUE,1
"1869","CVOE_B",10,1,2,55,"S 54","","",FALSE,"CV","q",613,"cv","S","4","c","c",TRUE,1
"1870","CVOE_B",10,1,2,56,"J 27","","",TRUE,"CV","q",608,"cv","J","7","c","c",TRUE,1
"1871","CVOE_B",10,1,2,57,"S 06","","",FALSE,"CV","q",1251,"cv","S","6","c","c",TRUE,1
"1872","CVOE_B",10,1,2,58,"D 67","","",TRUE,"CV","q",1094,"cv","D","7","c","c",TRUE,1
"1873","CVOE_B",10,1,2,59,"A 79","","",FALSE,"CV","p",513,"cv","A","9","v","v",TRUE,1
"1874","CVOE_B",10,1,2,60,"S 52","","",FALSE,"CV","q",535,"cv","S","2","c","c",TRUE,1
"1875","CVOE_B",10,1,2,61,"U 16","","",TRUE,"CV","p",1610,"cv","U","6","v","v",TRUE,1
"1876","CVOE_B",10,1,2,62,"O 82","","",TRUE,"CV","p",1174,"cv","O","2","v","v",TRUE,1
"1877","CVOE_B",10,1,2,63,"H 87","","",TRUE,"CV","q",801,"cv","H","7","c","c",TRUE,1
"1878","CVOE_B",10,1,2,64,"I 32","","",TRUE,"CV","p",489,"cv","I","2","v","v",TRUE,1
"1879","CVOE_B",10,1,2,65,"U 37","","",FALSE,"CV","p",541,"cv","U","7","v","v",TRUE,1
"1880","CVOE_B",10,1,2,66,"I 42","","",TRUE,"CV","p",522,"cv","I","2","v","v",TRUE,1
"1881","CVOE_B",10,1,2,67,"D 65","","",TRUE,"CV","q",939,"cv","D","5","c","c",TRUE,1
"1882","CVOE_B",10,1,2,68,"U 77","","",FALSE,"CV","p",2078,"cv","U","7","v","v",TRUE,1
"1883","CVOE_B",10,1,2,69,"E 12","","",TRUE,"CV","p",439,"cv","E","2","v","v",TRUE,1
"1884","CVOE_B",10,1,2,70,"I 60","","",TRUE,"CV","p",375,"cv","I","0","v","v",TRUE,1
"1885","CVOE_B",10,1,2,71,"J 36","","",FALSE,"CV","q",586,"cv","J","6","c","c",TRUE,1
"1886","CVOE_B",10,1,2,72,"H 75","","",TRUE,"CV","q",640,"cv","H","5","c","c",TRUE,1
"1887","CVOE_B",10,1,2,73,"I 50","","",TRUE,"CV","p",664,"cv","I","0","v","v",TRUE,1
"1888","CVOE_B",10,1,2,74,"E 99","","",FALSE,"CV","p",2926,"cv","E","9","v","v",TRUE,1
"1889","CVOE_B",10,1,2,75,"A 86","","",TRUE,"CV","p",720,"cv","A","6","v","v",TRUE,1
"1890","CVOE_B",10,1,2,76,"U 48","","",TRUE,"CV","p",752,"cv","U","8","v","v",TRUE,1
"1891","CVOE_B",10,1,2,77,"E 01","","",FALSE,"CV","p",574,"cv","E","1","v","v",TRUE,1
"1892","CVOE_B",10,1,2,78,"A 78","","",TRUE,"CV","p",409,"cv","A","8","v","v",TRUE,1
"1893","CVOE_B",10,1,2,79,"P 60","","",FALSE,"CV","q",588,"cv","P","0","c","c",TRUE,1
"1894","CVOE_B",10,1,2,80,"E 43","","",FALSE,"CV","p",538,"cv","E","3","v","v",TRUE,1
"1895","CVOE_B",10,1,2,81,"D 69","","",TRUE,"CV","q",1317,"cv","D","9","c","c",TRUE,1
"1896","CVOE_B",10,1,2,82,"H 11","","",TRUE,"CV","q",637,"cv","H","1","c","c",TRUE,1
"1897","CVOE_B",10,1,2,83,"P 43","","",TRUE,"CV","q",534,"cv","P","3","c","c",TRUE,1
"1898","CVOE_B",10,1,2,84,"O 67","","",FALSE,"CV","p",433,"cv","O","7","v","v",TRUE,1
"1899","CVOE_B",10,1,2,85,"S 91","","",FALSE,"CV","q",599,"cv","S","1","c","c",TRUE,1
"1900","CVOE_B",10,1,2,86,"J 68","","",TRUE,"CV","q",647,"cv","J","8","c","c",TRUE,1
"1901","CVOE_B",10,1,2,87,"S 47","","",FALSE,"CV","q",903,"cv","S","7","c","c",TRUE,1
"1902","CVOE_B",10,1,2,88,"I 81","","",TRUE,"CV","p",629,"cv","I","1","v","v",TRUE,1
"1903","CVOE_B",10,1,2,89,"J 39","","",FALSE,"CV","q",2691,"cv","J","9","c","c",TRUE,1
"1904","CVOE_B",10,1,2,90,"A 11","","",TRUE,"CV","p",359,"cv","A","1","v","v",TRUE,1
"1905","CVOE_B",10,1,2,91,"O 76","","",FALSE,"CV","p",343,"cv","O","6","v","v",TRUE,1
"1906","CVOE_B",10,1,2,92,"A 62","","",FALSE,"CV","p",629,"cv","A","2","v","v",TRUE,1
"1907","CVOE_B",10,1,2,93,"O 27","","",TRUE,"CV","p",1347,"cv","O","7","v","v",TRUE,1
"1908","CVOE_B",10,1,2,94,"E 66","","",FALSE,"CV","p",1249,"cv","E","6","v","v",TRUE,1
"1909","CVOE_B",10,1,2,95,"J 62","","",TRUE,"CV","q",476,"cv","J","2","c","c",TRUE,1
"1910","CVOE_B",10,1,2,96,"H 72","","",TRUE,"CV","q",549,"cv","H","2","c","c",TRUE,1
"1911","CVOE_B",10,1,2,97,"E 49","","",TRUE,"CV","p",762,"cv","E","9","v","v",TRUE,1
"1912","CVOE_B",10,1,2,98,"D 52","","",TRUE,"CV","q",747,"cv","D","2","c","c",TRUE,1
"1913","CVOE_B",10,1,2,99,"H 62","","",TRUE,"CV","q",673,"cv","H","2","c","c",TRUE,1
"1914","CVOE_B",10,1,2,100,"I 11","","",TRUE,"CV","p",1182,"cv","I","1","v","v",TRUE,1
"1915","CVOE_B",10,1,2,101,"A 98","","",FALSE,"CV","p",580,"cv","A","8","v","v",TRUE,1
"1916","CVOE_B",10,1,2,102,"H 29","","",FALSE,"CV","q",631,"cv","H","9","c","c",TRUE,1
"1917","CVOE_B",10,1,2,103,"E 83","","",TRUE,"CV","p",437,"cv","E","3","v","v",TRUE,1
"1918","CVOE_B",10,1,2,104,"D 43","","",FALSE,"CV","q",694,"cv","D","3","c","c",TRUE,1
"1919","CVOE_B",10,1,2,105,"P 45","","",TRUE,"CV","q",2057,"cv","P","5","c","c",TRUE,1
"1920","CVOE_B",10,1,2,106,"J 17","","",TRUE,"CV","q",524,"cv","J","7","c","c",TRUE,1
"2257","CVOE_B",6,1,2,11,"A 71","","",FALSE,"CV","p",5563,"cv","A","1","v","v",TRUE,1
"2258","CVOE_B",6,1,2,12,"I 66","","",TRUE,"CV","p",1477,"cv","I","6","v","v",TRUE,1
"2259","CVOE_B",6,1,2,13,"S 30","","",FALSE,"CV","q",894,"cv","S","0","c","c",TRUE,1
"2260","CVOE_B",6,1,2,14,"D 20","","",FALSE,"CV","q",1961,"cv","D","0","c","c",TRUE,1
"2261","CVOE_B",6,1,2,15,"I 31","","",FALSE,"CV","p",978,"cv","I","1","v","v",TRUE,1
"2262","CVOE_B",6,1,2,16,"P 16","","",FALSE,"CV","q",885,"cv","P","6","c","c",TRUE,1
"2263","CVOE_B",6,1,2,17,"A 49","","",FALSE,"CV","p",934,"cv","A","9","v","v",TRUE,1
"2264","CVOE_B",6,1,2,18,"O 64","","",TRUE,"CV","p",721,"cv","O","4","v","v",TRUE,1
"2265","CVOE_B",6,1,2,19,"D 02","","",FALSE,"CV","q",770,"cv","D","2","c","c",TRUE,1
"2266","CVOE_B",6,1,2,20,"P 81","","",TRUE,"CV","q",805,"cv","P","1","c","c",TRUE,1
"2267","CVOE_B",6,1,2,21,"J 58","","",FALSE,"CV","q",749,"cv","J","8","c","c",TRUE,1
"2268","CVOE_B",6,1,2,22,"A 22","","",TRUE,"CV","p",763,"cv","A","2","v","v",TRUE,1
"2269","CVOE_B",6,1,2,23,"J 72","","",FALSE,"CV","q",972,"cv","J","2","c","c",TRUE,1
"2270","CVOE_B",6,1,2,24,"P 91","","",TRUE,"CV","q",1671,"cv","P","1","c","c",TRUE,1
"2271","CVOE_B",6,1,2,25,"E 19","","",FALSE,"CV","p",773,"cv","E","9","v","v",TRUE,1
"2272","CVOE_B",6,1,2,26,"I 30","","",TRUE,"CV","p",936,"cv","I","0","v","v",TRUE,1
"2273","CVOE_B",6,1,2,27,"D 91","","",TRUE,"CV","q",675,"cv","D","1","c","c",TRUE,1
"2274","CVOE_B",6,1,2,28,"O 48","","",TRUE,"CV","p",892,"cv","O","8","v","v",TRUE,1
"2275","CVOE_B",6,1,2,29,"A 89","","",FALSE,"CV","p",807,"cv","A","9","v","v",TRUE,1
"2276","CVOE_B",6,1,2,30,"U 11","","",FALSE,"CV","p",882,"cv","U","1","v","v",TRUE,1
"2277","CVOE_B",6,1,2,31,"I 76","","",TRUE,"CV","p",715,"cv","I","6","v","v",TRUE,1
"2278","CVOE_B",6,1,2,32,"U 89","","",FALSE,"CV","p",859,"cv","U","9","v","v",TRUE,1
"2279","CVOE_B",6,1,2,33,"D 63","","",TRUE,"CV","q",654,"cv","D","3","c","c",TRUE,1
"2280","CVOE_B",6,1,2,34,"H 70","","",FALSE,"CV","q",1257,"cv","H","0","c","c",TRUE,1
"2281","CVOE_B",6,1,2,35,"D 48","","",FALSE,"CV","q",1205,"cv","D","8","c","c",TRUE,1
"2282","CVOE_B",6,1,2,36,"P 56","","",FALSE,"CV","q",1117,"cv","P","6","c","c",TRUE,1
"2283","CVOE_B",6,1,2,37,"O 77","","",FALSE,"CV","p",606,"cv","O","7","v","v",TRUE,1
"2284","CVOE_B",6,1,2,38,"P 42","","",FALSE,"CV","q",1230,"cv","P","2","c","c",TRUE,1
"2285","CVOE_B",6,1,2,39,"H 22","","",FALSE,"CV","q",2244,"cv","H","2","c","c",TRUE,1
"2286","CVOE_B",6,1,2,40,"E 42","","",TRUE,"CV","p",654,"cv","E","2","v","v",TRUE,1
"2287","CVOE_B",6,1,2,41,"J 28","","",FALSE,"CV","q",657,"cv","J","8","c","c",TRUE,1
"2288","CVOE_B",6,1,2,42,"E 95","","",FALSE,"CV","p",604,"cv","E","5","v","v",TRUE,1
"2289","CVOE_B",6,1,2,43,"S 63","","",TRUE,"CV","q",668,"cv","S","3","c","c",TRUE,1
"2290","CVOE_B",6,1,2,44,"H 50","","",FALSE,"CV","q",746,"cv","H","0","c","c",TRUE,1
"2291","CVOE_B",6,1,2,45,"S 33","","",TRUE,"CV","p",696,"cv","S","3","c","v",FALSE,0
"2292","CVOE_B",6,1,2,46,"P 57","","",TRUE,"CV","q",3707,"cv","P","7","c","c",TRUE,1
"2293","CVOE_B",6,1,2,47,"E 23","","",FALSE,"CV","p",850,"cv","E","3","v","v",TRUE,1
"2294","CVOE_B",6,1,2,48,"S 61","","",TRUE,"CV","q",2413,"cv","S","1","c","c",TRUE,1
"2295","CVOE_B",6,1,2,49,"U 67","","",FALSE,"CV","p",761,"cv","U","7","v","v",TRUE,1
"2296","CVOE_B",6,1,2,50,"H 32","","",FALSE,"CV","q",913,"cv","H","2","c","c",TRUE,1
"2297","CVOE_B",6,1,2,51,"U 50","","",TRUE,"CV","p",679,"cv","U","0","v","v",TRUE,1
"2298","CVOE_B",6,1,2,52,"O 49","","",FALSE,"CV","p",920,"cv","O","9","v","v",TRUE,1
"2299","CVOE_B",6,1,2,53,"U 32","","",TRUE,"CV","p",688,"cv","U","2","v","v",TRUE,1
"2300","CVOE_B",6,1,2,54,"J 78","","",FALSE,"CV","q",747,"cv","J","8","c","c",TRUE,1
"2301","CVOE_B",6,1,2,55,"S 54","","",FALSE,"CV","q",881,"cv","S","4","c","c",TRUE,1
"2302","CVOE_B",6,1,2,56,"J 27","","",TRUE,"CV","q",762,"cv","J","7","c","c",TRUE,1
"2303","CVOE_B",6,1,2,57,"S 06","","",FALSE,"CV","q",906,"cv","S","6","c","c",TRUE,1
"2304","CVOE_B",6,1,2,58,"D 67","","",TRUE,"CV","q",744,"cv","D","7","c","c",TRUE,1
"2305","CVOE_B",6,1,2,59,"A 79","","",FALSE,"CV","p",766,"cv","A","9","v","v",TRUE,1
"2306","CVOE_B",6,1,2,60,"S 52","","",FALSE,"CV","q",894,"cv","S","2","c","c",TRUE,1
"2307","CVOE_B",6,1,2,61,"U 16","","",TRUE,"CV","p",874,"cv","U","6","v","v",TRUE,1
"2308","CVOE_B",6,1,2,62,"O 82","","",TRUE,"CV","p",1402,"cv","O","2","v","v",TRUE,1
"2309","CVOE_B",6,1,2,63,"H 87","","",TRUE,"CV","q",779,"cv","H","7","c","c",TRUE,1
"2310","CVOE_B",6,1,2,64,"I 32","","",TRUE,"CV","p",894,"cv","I","2","v","v",TRUE,1
"2311","CVOE_B",6,1,2,65,"U 37","","",FALSE,"CV","p",752,"cv","U","7","v","v",TRUE,1
"2312","CVOE_B",6,1,2,66,"I 42","","",TRUE,"CV","p",2095,"cv","I","2","v","v",TRUE,1
"2313","CVOE_B",6,1,2,67,"D 65","","",TRUE,"CV","q",875,"cv","D","5","c","c",TRUE,1
"2314","CVOE_B",6,1,2,68,"U 77","","",FALSE,"CV","p",691,"cv","U","7","v","v",TRUE,1
"2315","CVOE_B",6,1,2,69,"E 12","","",TRUE,"CV","p",758,"cv","E","2","v","v",TRUE,1
"2316","CVOE_B",6,1,2,70,"I 60","","",TRUE,"CV","p",783,"cv","I","0","v","v",TRUE,1
"2317","CVOE_B",6,1,2,71,"J 36","","",FALSE,"CV","q",741,"cv","J","6","c","c",TRUE,1
"2318","CVOE_B",6,1,2,72,"H 75","","",TRUE,"CV","q",802,"cv","H","5","c","c",TRUE,1
"2319","CVOE_B",6,1,2,73,"I 50","","",TRUE,"CV","p",675,"cv","I","0","v","v",TRUE,1
"2320","CVOE_B",6,1,2,74,"E 99","","",FALSE,"CV","p",907,"cv","E","9","v","v",TRUE,1
"2321","CVOE_B",6,1,2,75,"A 86","","",TRUE,"CV","p",873,"cv","A","6","v","v",TRUE,1
"2322","CVOE_B",6,1,2,76,"U 48","","",TRUE,"CV","p",791,"cv","U","8","v","v",TRUE,1
"2323","CVOE_B",6,1,2,77,"E 01","","",FALSE,"CV","p",693,"cv","E","1","v","v",TRUE,1
"2324","CVOE_B",6,1,2,78,"A 78","","",TRUE,"CV","p",752,"cv","A","8","v","v",TRUE,1
"2325","CVOE_B",6,1,2,79,"P 60","","",FALSE,"CV","q",814,"cv","P","0","c","c",TRUE,1
"2326","CVOE_B",6,1,2,80,"E 43","","",FALSE,"CV","p",673,"cv","E","3","v","v",TRUE,1
"2327","CVOE_B",6,1,2,81,"D 69","","",TRUE,"CV","q",1798,"cv","D","9","c","c",TRUE,1
"2328","CVOE_B",6,1,2,82,"H 11","","",TRUE,"CV","q",935,"cv","H","1","c","c",TRUE,1
"2329","CVOE_B",6,1,2,83,"P 43","","",TRUE,"CV","q",955,"cv","P","3","c","c",TRUE,1
"2330","CVOE_B",6,1,2,84,"O 67","","",FALSE,"CV","p",660,"cv","O","7","v","v",TRUE,1
"2331","CVOE_B",6,1,2,85,"S 91","","",FALSE,"CV","q",678,"cv","S","1","c","c",TRUE,1
"2332","CVOE_B",6,1,2,86,"J 68","","",TRUE,"CV","q",1574,"cv","J","8","c","c",TRUE,1
"2333","CVOE_B",6,1,2,87,"S 47","","",FALSE,"CV","q",499,"cv","S","7","c","c",TRUE,1
"2334","CVOE_B",6,1,2,88,"I 81","","",TRUE,"CV","p",678,"cv","I","1","v","v",TRUE,1
"2335","CVOE_B",6,1,2,89,"J 39","","",FALSE,"CV","q",806,"cv","J","9","c","c",TRUE,1
"2336","CVOE_B",6,1,2,90,"A 11","","",TRUE,"CV","p",663,"cv","A","1","v","v",TRUE,1
"2337","CVOE_B",6,1,2,91,"O 76","","",FALSE,"CV","p",1491,"cv","O","6","v","v",TRUE,1
"2338","CVOE_B",6,1,2,92,"A 62","","",FALSE,"CV","p",720,"cv","A","2","v","v",TRUE,1
"2339","CVOE_B",6,1,2,93,"O 27","","",TRUE,"CV","p",920,"cv","O","7","v","v",TRUE,1
"2340","CVOE_B",6,1,2,94,"E 66","","",FALSE,"CV","p",641,"cv","E","6","v","v",TRUE,1
"2341","CVOE_B",6,1,2,95,"J 62","","",TRUE,"CV","q",769,"cv","J","2","c","c",TRUE,1
"2342","CVOE_B",6,1,2,96,"H 72","","",TRUE,"CV","q",620,"cv","H","2","c","c",TRUE,1
"2343","CVOE_B",6,1,2,97,"E 49","","",TRUE,"CV","p",530,"cv","E","9","v","v",TRUE,1
"2344","CVOE_B",6,1,2,98,"D 52","","",TRUE,"CV","q",653,"cv","D","2","c","c",TRUE,1
"2345","CVOE_B",6,1,2,99,"H 62","","",TRUE,"CV","q",568,"cv","H","2","c","c",TRUE,1
"2346","CVOE_B",6,1,2,100,"I 11","","",TRUE,"CV","p",660,"cv","I","1","v","v",TRUE,1
"2347","CVOE_B",6,1,2,101,"A 98","","",FALSE,"CV","p",1054,"cv","A","8","v","v",TRUE,1
"2348","CVOE_B",6,1,2,102,"H 29","","",FALSE,"CV","q",890,"cv","H","9","c","c",TRUE,1
"2349","CVOE_B",6,1,2,103,"E 83","","",TRUE,"CV","p",789,"cv","E","3","v","v",TRUE,1
"2350","CVOE_B",6,1,2,104,"D 43","","",FALSE,"CV","q",1587,"cv","D","3","c","c",TRUE,1
"2351","CVOE_B",6,1,2,105,"P 45","","",TRUE,"CV","q",681,"cv","P","5","c","c",TRUE,1
"2352","CVOE_B",6,1,2,106,"J 17","","",TRUE,"CV","q",546,"cv","J","7","c","c",TRUE,1
"2689","CVOE_C",3,1,2,11,"A 71","","",FALSE,"CV","p",5876,"cv","A","1","v","v",TRUE,1
"2690","CVOE_C",3,1,2,12,"I 66","","",TRUE,"CV","p",678,"cv","I","6","v","v",TRUE,1
"2691","CVOE_C",3,1,2,13,"S 30","","",FALSE,"CV","q",743,"cv","S","0","c","c",TRUE,1
"2692","CVOE_C",3,1,2,14,"D 20","","",FALSE,"CV","q",765,"cv","D","0","c","c",TRUE,1
"2693","CVOE_C",3,1,2,15,"I 31","","",FALSE,"CV","p",533,"cv","I","1","v","v",TRUE,1
"2694","CVOE_C",3,1,2,16,"P 16","","",FALSE,"CV","q",568,"cv","P","6","c","c",TRUE,1
"2695","CVOE_C",3,1,2,17,"A 49","","",FALSE,"CV","p",643,"cv","A","9","v","v",TRUE,1
"2696","CVOE_C",3,1,2,18,"O 64","","",TRUE,"CV","p",524,"cv","O","4","v","v",TRUE,1
"2697","CVOE_C",3,1,2,19,"D 02","","",FALSE,"CV","q",532,"cv","D","2","c","c",TRUE,1
"2698","CVOE_C",3,1,2,20,"P 81","","",TRUE,"CV","q",871,"cv","P","1","c","c",TRUE,1
"2699","CVOE_C",3,1,2,21,"J 58","","",FALSE,"CV","q",797,"cv","J","8","c","c",TRUE,1
"2700","CVOE_C",3,1,2,22,"A 22","","",TRUE,"CV","p",557,"cv","A","2","v","v",TRUE,1
"2701","CVOE_C",3,1,2,23,"J 72","","",FALSE,"CV","q",678,"cv","J","2","c","c",TRUE,1
"2702","CVOE_C",3,1,2,24,"P 91","","",TRUE,"CV","q",454,"cv","P","1","c","c",TRUE,1
"2703","CVOE_C",3,1,2,25,"E 19","","",FALSE,"CV","p",513,"cv","E","9","v","v",TRUE,1
"2704","CVOE_C",3,1,2,26,"I 30","","",TRUE,"CV","p",482,"cv","I","0","v","v",TRUE,1
"2705","CVOE_C",3,1,2,27,"D 91","","",TRUE,"CV","q",378,"cv","D","1","c","c",TRUE,1
"2706","CVOE_C",3,1,2,28,"O 48","","",TRUE,"CV","p",589,"cv","O","8","v","v",TRUE,1
"2707","CVOE_C",3,1,2,29,"A 89","","",FALSE,"CV","p",531,"cv","A","9","v","v",TRUE,1
"2708","CVOE_C",3,1,2,30,"U 11","","",FALSE,"CV","q",382,"cv","U","1","v","c",FALSE,0
"2709","CVOE_C",3,1,2,31,"I 76","","",TRUE,"CV","p",684,"cv","I","6","v","v",TRUE,1
"2710","CVOE_C",3,1,2,32,"U 89","","",FALSE,"CV","p",380,"cv","U","9","v","v",TRUE,1
"2711","CVOE_C",3,1,2,33,"D 63","","",TRUE,"CV","q",562,"cv","D","3","c","c",TRUE,1
"2712","CVOE_C",3,1,2,34,"H 70","","",FALSE,"CV","q",874,"cv","H","0","c","c",TRUE,1
"2713","CVOE_C",3,1,2,35,"D 48","","",FALSE,"CV","q",475,"cv","D","8","c","c",TRUE,1
"2714","CVOE_C",3,1,2,36,"P 56","","",FALSE,"CV","q",475,"cv","P","6","c","c",TRUE,1
"2715","CVOE_C",3,1,2,37,"O 77","","",FALSE,"CV","p",643,"cv","O","7","v","v",TRUE,1
"2716","CVOE_C",3,1,2,38,"P 42","","",FALSE,"CV","q",804,"cv","P","2","c","c",TRUE,1
"2717","CVOE_C",3,1,2,39,"H 22","","",FALSE,"CV","q",484,"cv","H","2","c","c",TRUE,1
"2718","CVOE_C",3,1,2,40,"E 42","","",TRUE,"CV","p",485,"cv","E","2","v","v",TRUE,1
"2719","CVOE_C",3,1,2,41,"J 28","","",FALSE,"CV","q",389,"cv","J","8","c","c",TRUE,1
"2720","CVOE_C",3,1,2,42,"E 95","","",FALSE,"CV","q",491,"cv","E","5","v","c",FALSE,0
"2721","CVOE_C",3,1,2,43,"S 63","","",TRUE,"CV","q",814,"cv","S","3","c","c",TRUE,1
"2722","CVOE_C",3,1,2,44,"H 50","","",FALSE,"CV","q",521,"cv","H","0","c","c",TRUE,1
"2723","CVOE_C",3,1,2,45,"S 33","","",TRUE,"CV","q",985,"cv","S","3","c","c",TRUE,1
"2724","CVOE_C",3,1,2,46,"P 57","","",TRUE,"CV","q",543,"cv","P","7","c","c",TRUE,1
"2725","CVOE_C",3,1,2,47,"E 23","","",FALSE,"CV","p",901,"cv","E","3","v","v",TRUE,1
"2726","CVOE_C",3,1,2,48,"S 61","","",TRUE,"CV","q",763,"cv","S","1","c","c",TRUE,1
"2727","CVOE_C",3,1,2,49,"U 67","","",FALSE,"CV","p",771,"cv","U","7","v","v",TRUE,1
"2728","CVOE_C",3,1,2,50,"H 32","","",FALSE,"CV","q",607,"cv","H","2","c","c",TRUE,1
"2729","CVOE_C",3,1,2,51,"U 50","","",TRUE,"CV","p",498,"cv","U","0","v","v",TRUE,1
"2730","CVOE_C",3,1,2,52,"O 49","","",FALSE,"CV","p",469,"cv","O","9","v","v",TRUE,1
"2731","CVOE_C",3,1,2,53,"U 32","","",TRUE,"CV","p",434,"cv","U","2","v","v",TRUE,1
"2732","CVOE_C",3,1,2,54,"J 78","","",FALSE,"CV","q",667,"cv","J","8","c","c",TRUE,1
"2733","CVOE_C",3,1,2,55,"S 54","","",FALSE,"CV","q",849,"cv","S","4","c","c",TRUE,1
"2734","CVOE_C",3,1,2,56,"J 27","","",TRUE,"CV","q",612,"cv","J","7","c","c",TRUE,1
"2735","CVOE_C",3,1,2,57,"S 06","","",FALSE,"CV","q",759,"cv","S","6","c","c",TRUE,1
"2736","CVOE_C",3,1,2,58,"D 67","","",TRUE,"CV","q",1023,"cv","D","7","c","c",TRUE,1
"2737","CVOE_C",3,1,2,59,"A 79","","",FALSE,"CV","p",701,"cv","A","9","v","v",TRUE,1
"2738","CVOE_C",3,1,2,60,"S 52","","",FALSE,"CV","q",1147,"cv","S","2","c","c",TRUE,1
"2739","CVOE_C",3,1,2,61,"U 16","","",TRUE,"CV","p",593,"cv","U","6","v","v",TRUE,1
"2740","CVOE_C",3,1,2,62,"O 82","","",TRUE,"CV","p",434,"cv","O","2","v","v",TRUE,1
"2741","CVOE_C",3,1,2,63,"H 87","","",TRUE,"CV","q",474,"cv","H","7","c","c",TRUE,1
"2742","CVOE_C",3,1,2,64,"I 32","","",TRUE,"CV","p",586,"cv","I","2","v","v",TRUE,1
"2743","CVOE_C",3,1,2,65,"U 37","","",FALSE,"CV","p",496,"cv","U","7","v","v",TRUE,1
"2744","CVOE_C",3,1,2,66,"I 42","","",TRUE,"CV","p",483,"cv","I","2","v","v",TRUE,1
"2745","CVOE_C",3,1,2,67,"D 65","","",TRUE,"CV","q",603,"cv","D","5","c","c",TRUE,1
"2746","CVOE_C",3,1,2,68,"U 77","","",FALSE,"CV","p",604,"cv","U","7","v","v",TRUE,1
"2747","CVOE_C",3,1,2,69,"E 12","","",TRUE,"CV","p",492,"cv","E","2","v","v",TRUE,1
"2748","CVOE_C",3,1,2,70,"I 60","","",TRUE,"CV","p",383,"cv","I","0","v","v",TRUE,1
"2749","CVOE_C",3,1,2,71,"J 36","","",FALSE,"CV","q",541,"cv","J","6","c","c",TRUE,1
"2750","CVOE_C",3,1,2,72,"H 75","","",TRUE,"CV","q",555,"cv","H","5","c","c",TRUE,1
"2751","CVOE_C",3,1,2,73,"I 50","","",TRUE,"CV","p",459,"cv","I","0","v","v",TRUE,1
"2752","CVOE_C",3,1,2,74,"E 99","","",FALSE,"CV","q",446,"cv","E","9","v","c",FALSE,0
"2753","CVOE_C",3,1,2,75,"A 86","","",TRUE,"CV","p",519,"cv","A","6","v","v",TRUE,1
"2754","CVOE_C",3,1,2,76,"U 48","","",TRUE,"CV","p",367,"cv","U","8","v","v",TRUE,1
"2755","CVOE_C",3,1,2,77,"E 01","","",FALSE,"CV","p",370,"cv","E","1","v","v",TRUE,1
"2756","CVOE_C",3,1,2,78,"A 78","","",TRUE,"CV","p",1013,"cv","A","8","v","v",TRUE,1
"2757","CVOE_C",3,1,2,79,"P 60","","",FALSE,"CV","q",728,"cv","P","0","c","c",TRUE,1
"2758","CVOE_C",3,1,2,80,"E 43","","",FALSE,"CV","p",619,"cv","E","3","v","v",TRUE,1
"2759","CVOE_C",3,1,2,81,"D 69","","",TRUE,"CV","q",646,"cv","D","9","c","c",TRUE,1
"2760","CVOE_C",3,1,2,82,"H 11","","",TRUE,"CV","q",634,"cv","H","1","c","c",TRUE,1
"2761","CVOE_C",3,1,2,83,"P 43","","",TRUE,"CV","q",586,"cv","P","3","c","c",TRUE,1
"2762","CVOE_C",3,1,2,84,"O 67","","",FALSE,"CV","p",536,"cv","O","7","v","v",TRUE,1
"2763","CVOE_C",3,1,2,85,"S 91","","",FALSE,"CV","q",467,"cv","S","1","c","c",TRUE,1
"2764","CVOE_C",3,1,2,86,"J 68","","",TRUE,"CV","q",441,"cv","J","8","c","c",TRUE,1
"2765","CVOE_C",3,1,2,87,"S 47","","",FALSE,"CV","q",353,"cv","S","7","c","c",TRUE,1
"2766","CVOE_C",3,1,2,88,"I 81","","",TRUE,"CV","p",511,"cv","I","1","v","v",TRUE,1
"2767","CVOE_C",3,1,2,89,"J 39","","",FALSE,"CV","q",484,"cv","J","9","c","c",TRUE,1
"2768","CVOE_C",3,1,2,90,"A 11","","",TRUE,"CV","p",509,"cv","A","1","v","v",TRUE,1
"2769","CVOE_C",3,1,2,91,"O 76","","",FALSE,"CV","p",490,"cv","O","6","v","v",TRUE,1
"2770","CVOE_C",3,1,2,92,"A 62","","",FALSE,"CV","p",406,"cv","A","2","v","v",TRUE,1
"2771","CVOE_C",3,1,2,93,"O 27","","",TRUE,"CV","p",342,"cv","O","7","v","v",TRUE,1
"2772","CVOE_C",3,1,2,94,"E 66","","",FALSE,"CV","p",420,"cv","E","6","v","v",TRUE,1
"2773","CVOE_C",3,1,2,95,"J 62","","",TRUE,"CV","q",647,"cv","J","2","c","c",TRUE,1
"2774","CVOE_C",3,1,2,96,"H 72","","",TRUE,"CV","p",530,"cv","H","2","c","v",FALSE,0
"2775","CVOE_C",3,1,2,97,"E 49","","",TRUE,"CV","p",973,"cv","E","9","v","v",TRUE,1
"2776","CVOE_C",3,1,2,98,"D 52","","",TRUE,"CV","q",648,"cv","D","2","c","c",TRUE,1
"2777","CVOE_C",3,1,2,99,"H 62","","",TRUE,"CV","q",451,"cv","H","2","c","c",TRUE,1
"2778","CVOE_C",3,1,2,100,"I 11","","",TRUE,"CV","p",694,"cv","I","1","v","v",TRUE,1
"2779","CVOE_C",3,1,2,101,"A 98","","",FALSE,"CV","p",425,"cv","A","8","v","v",TRUE,1
"2780","CVOE_C",3,1,2,102,"H 29","","",FALSE,"CV","q",559,"cv","H","9","c","c",TRUE,1
"2781","CVOE_C",3,1,2,103,"E 83","","",TRUE,"CV","q",479,"cv","E","3","v","c",FALSE,0
"2782","CVOE_C",3,1,2,104,"D 43","","",FALSE,"CV","q",1089,"cv","D","3","c","c",TRUE,1
"2783","CVOE_C",3,1,2,105,"P 45","","",TRUE,"CV","q",555,"cv","P","5","c","c",TRUE,1
"2784","CVOE_C",3,1,2,106,"J 17","","",TRUE,"CV","q",459,"cv","J","7","c","c",TRUE,1
"3121","CVOE_C",11,1,2,11,"A 71","","",FALSE,"CV","p",2185,"cv","A","1","v","v",TRUE,1
"3122","CVOE_C",11,1,2,12,"I 66","","",TRUE,"CV","p",727,"cv","I","6","v","v",TRUE,1
"3123","CVOE_C",11,1,2,13,"S 30","","",FALSE,"CV","q",575,"cv","S","0","c","c",TRUE,1
"3124","CVOE_C",11,1,2,14,"D 20","","",FALSE,"CV","q",1930,"cv","D","0","c","c",TRUE,1
"3125","CVOE_C",11,1,2,15,"I 31","","",FALSE,"CV","p",574,"cv","I","1","v","v",TRUE,1
"3126","CVOE_C",11,1,2,16,"P 16","","",FALSE,"CV","q",705,"cv","P","6","c","c",TRUE,1
"3127","CVOE_C",11,1,2,17,"A 49","","",FALSE,"CV","p",775,"cv","A","9","v","v",TRUE,1
"3128","CVOE_C",11,1,2,18,"O 64","","",TRUE,"CV","p",466,"cv","O","4","v","v",TRUE,1
"3129","CVOE_C",11,1,2,19,"D 02","","",FALSE,"CV","q",544,"cv","D","2","c","c",TRUE,1
"3130","CVOE_C",11,1,2,20,"P 81","","",TRUE,"CV","q",870,"cv","P","1","c","c",TRUE,1
"3131","CVOE_C",11,1,2,21,"J 58","","",FALSE,"CV","q",499,"cv","J","8","c","c",TRUE,1
"3132","CVOE_C",11,1,2,22,"A 22","","",TRUE,"CV","p",598,"cv","A","2","v","v",TRUE,1
"3133","CVOE_C",11,1,2,23,"J 72","","",FALSE,"CV","q",559,"cv","J","2","c","c",TRUE,1
"3134","CVOE_C",11,1,2,24,"P 91","","",TRUE,"CV","q",903,"cv","P","1","c","c",TRUE,1
"3135","CVOE_C",11,1,2,25,"E 19","","",FALSE,"CV","p",765,"cv","E","9","v","v",TRUE,1
"3136","CVOE_C",11,1,2,26,"I 30","","",TRUE,"CV","p",398,"cv","I","0","v","v",TRUE,1
"3137","CVOE_C",11,1,2,27,"D 91","","",TRUE,"CV","q",486,"cv","D","1","c","c",TRUE,1
"3138","CVOE_C",11,1,2,28,"O 48","","",TRUE,"CV","p",550,"cv","O","8","v","v",TRUE,1
"3139","CVOE_C",11,1,2,29,"A 89","","",FALSE,"CV","q",556,"cv","A","9","v","c",FALSE,0
"3140","CVOE_C",11,1,2,30,"U 11","","",FALSE,"CV","p",1045,"cv","U","1","v","v",TRUE,1
"3141","CVOE_C",11,1,2,31,"I 76","","",TRUE,"CV","p",1189,"cv","I","6","v","v",TRUE,1
"3142","CVOE_C",11,1,2,32,"U 89","","",FALSE,"CV","p",483,"cv","U","9","v","v",TRUE,1
"3143","CVOE_C",11,1,2,33,"D 63","","",TRUE,"CV","q",892,"cv","D","3","c","c",TRUE,1
"3144","CVOE_C",11,1,2,34,"H 70","","",FALSE,"CV","q",495,"cv","H","0","c","c",TRUE,1
"3145","CVOE_C",11,1,2,35,"D 48","","",FALSE,"CV","q",858,"cv","D","8","c","c",TRUE,1
"3146","CVOE_C",11,1,2,36,"P 56","","",FALSE,"CV","q",429,"cv","P","6","c","c",TRUE,1
"3147","CVOE_C",11,1,2,37,"O 77","","",FALSE,"CV","p",859,"cv","O","7","v","v",TRUE,1
"3148","CVOE_C",11,1,2,38,"P 42","","",FALSE,"CV","q",654,"cv","P","2","c","c",TRUE,1
"3149","CVOE_C",11,1,2,39,"H 22","","",FALSE,"CV","q",897,"cv","H","2","c","c",TRUE,1
"3150","CVOE_C",11,1,2,40,"E 42","","",TRUE,"CV","p",564,"cv","E","2","v","v",TRUE,1
"3151","CVOE_C",11,1,2,41,"J 28","","",FALSE,"CV","q",485,"cv","J","8","c","c",TRUE,1
"3152","CVOE_C",11,1,2,42,"E 95","","",FALSE,"CV","p",509,"cv","E","5","v","v",TRUE,1
"3153","CVOE_C",11,1,2,43,"S 63","","",TRUE,"CV","q",387,"cv","S","3","c","c",TRUE,1
"3154","CVOE_C",11,1,2,44,"H 50","","",FALSE,"CV","q",496,"cv","H","0","c","c",TRUE,1
"3155","CVOE_C",11,1,2,45,"S 33","","",TRUE,"CV","q",595,"cv","S","3","c","c",TRUE,1
"3156","CVOE_C",11,1,2,46,"P 57","","",TRUE,"CV","q",460,"cv","P","7","c","c",TRUE,1
"3157","CVOE_C",11,1,2,47,"E 23","","",FALSE,"CV","p",567,"cv","E","3","v","v",TRUE,1
"3158","CVOE_C",11,1,2,48,"S 61","","",TRUE,"CV","q",695,"cv","S","1","c","c",TRUE,1
"3159","CVOE_C",11,1,2,49,"U 67","","",FALSE,"CV","p",490,"cv","U","7","v","v",TRUE,1
"3160","CVOE_C",11,1,2,50,"H 32","","",FALSE,"CV","q",397,"cv","H","2","c","c",TRUE,1
"3161","CVOE_C",11,1,2,51,"U 50","","",TRUE,"CV","p",502,"cv","U","0","v","v",TRUE,1
"3162","CVOE_C",11,1,2,52,"O 49","","",FALSE,"CV","p",619,"cv","O","9","v","v",TRUE,1
"3163","CVOE_C",11,1,2,53,"U 32","","",TRUE,"CV","p",799,"cv","U","2","v","v",TRUE,1
"3164","CVOE_C",11,1,2,54,"J 78","","",FALSE,"CV","q",527,"cv","J","8","c","c",TRUE,1
"3165","CVOE_C",11,1,2,55,"S 54","","",FALSE,"CV","q",831,"cv","S","4","c","c",TRUE,1
"3166","CVOE_C",11,1,2,56,"J 27","","",TRUE,"CV","q",421,"cv","J","7","c","c",TRUE,1
"3167","CVOE_C",11,1,2,57,"S 06","","",FALSE,"CV","q",491,"cv","S","6","c","c",TRUE,1
"3168","CVOE_C",11,1,2,58,"D 67","","",TRUE,"CV","q",446,"cv","D","7","c","c",TRUE,1
"3169","CVOE_C",11,1,2,59,"A 79","","",FALSE,"CV","p",398,"cv","A","9","v","v",TRUE,1
"3170","CVOE_C",11,1,2,60,"S 52","","",FALSE,"CV","q",479,"cv","S","2","c","c",TRUE,1
"3171","CVOE_C",11,1,2,61,"U 16","","",TRUE,"CV","p",503,"cv","U","6","v","v",TRUE,1
"3172","CVOE_C",11,1,2,62,"O 82","","",TRUE,"CV","p",837,"cv","O","2","v","v",TRUE,1
"3173","CVOE_C",11,1,2,63,"H 87","","",TRUE,"CV","q",509,"cv","H","7","c","c",TRUE,1
"3174","CVOE_C",11,1,2,64,"I 32","","",TRUE,"CV","p",451,"cv","I","2","v","v",TRUE,1
"3175","CVOE_C",11,1,2,65,"U 37","","",FALSE,"CV","p",574,"cv","U","7","v","v",TRUE,1
"3176","CVOE_C",11,1,2,66,"I 42","","",TRUE,"CV","p",409,"cv","I","2","v","v",TRUE,1
"3177","CVOE_C",11,1,2,67,"D 65","","",TRUE,"CV","q",420,"cv","D","5","c","c",TRUE,1
"3178","CVOE_C",11,1,2,68,"U 77","","",FALSE,"CV","p",447,"cv","U","7","v","v",TRUE,1
"3179","CVOE_C",11,1,2,69,"E 12","","",TRUE,"CV","q",368,"cv","E","2","v","c",FALSE,0
"3180","CVOE_C",11,1,2,70,"I 60","","",TRUE,"CV","p",544,"cv","I","0","v","v",TRUE,1
"3181","CVOE_C",11,1,2,71,"J 36","","",FALSE,"CV","q",646,"cv","J","6","c","c",TRUE,1
"3182","CVOE_C",11,1,2,72,"H 75","","",TRUE,"CV","q",646,"cv","H","5","c","c",TRUE,1
"3183","CVOE_C",11,1,2,73,"I 50","","",TRUE,"CV","p",1543,"cv","I","0","v","v",TRUE,1
"3184","CVOE_C",11,1,2,74,"E 99","","",FALSE,"CV","p",381,"cv","E","9","v","v",TRUE,1
"3185","CVOE_C",11,1,2,75,"A 86","","",TRUE,"CV","p",520,"cv","A","6","v","v",TRUE,1
"3186","CVOE_C",11,1,2,76,"U 48","","",TRUE,"CV","p",408,"cv","U","8","v","v",TRUE,1
"3187","CVOE_C",11,1,2,77,"E 01","","",FALSE,"CV","p",763,"cv","E","1","v","v",TRUE,1
"3188","CVOE_C",11,1,2,78,"A 78","","",TRUE,"CV","p",460,"cv","A","8","v","v",TRUE,1
"3189","CVOE_C",11,1,2,79,"P 60","","",FALSE,"CV","q",471,"cv","P","0","c","c",TRUE,1
"3190","CVOE_C",11,1,2,80,"E 43","","",FALSE,"CV","p",428,"cv","E","3","v","v",TRUE,1
"3191","CVOE_C",11,1,2,81,"D 69","","",TRUE,"CV","q",578,"cv","D","9","c","c",TRUE,1
"3192","CVOE_C",11,1,2,82,"H 11","","",TRUE,"CV","q",1333,"cv","H","1","c","c",TRUE,1
"3193","CVOE_C",11,1,2,83,"P 43","","",TRUE,"CV","q",696,"cv","P","3","c","c",TRUE,1
"3194","CVOE_C",11,1,2,84,"O 67","","",FALSE,"CV","p",460,"cv","O","7","v","v",TRUE,1
"3195","CVOE_C",11,1,2,85,"S 91","","",FALSE,"CV","q",559,"cv","S","1","c","c",TRUE,1
"3196","CVOE_C",11,1,2,86,"J 68","","",TRUE,"CV","q",407,"cv","J","8","c","c",TRUE,1
"3197","CVOE_C",11,1,2,87,"S 47","","",FALSE,"CV","q",367,"cv","S","7","c","c",TRUE,1
"3198","CVOE_C",11,1,2,88,"I 81","","",TRUE,"CV","p",568,"cv","I","1","v","v",TRUE,1
"3199","CVOE_C",11,1,2,89,"J 39","","",FALSE,"CV","q",459,"cv","J","9","c","c",TRUE,1
"3200","CVOE_C",11,1,2,90,"A 11","","",TRUE,"CV","p",502,"cv","A","1","v","v",TRUE,1
"3201","CVOE_C",11,1,2,91,"O 76","","",FALSE,"CV","p",436,"cv","O","6","v","v",TRUE,1
"3202","CVOE_C",11,1,2,92,"A 62","","",FALSE,"CV","p",372,"cv","A","2","v","v",TRUE,1
"3203","CVOE_C",11,1,2,93,"O 27","","",TRUE,"CV","p",407,"cv","O","7","v","v",TRUE,1
"3204","CVOE_C",11,1,2,94,"E 66","","",FALSE,"CV","p",439,"cv","E","6","v","v",TRUE,1
"3205","CVOE_C",11,1,2,95,"J 62","","",TRUE,"CV","q",536,"cv","J","2","c","c",TRUE,1
"3206","CVOE_C",11,1,2,96,"H 72","","",TRUE,"CV","q",483,"cv","H","2","c","c",TRUE,1
"3207","CVOE_C",11,1,2,97,"E 49","","",TRUE,"CV","p",403,"cv","E","9","v","v",TRUE,1
"3208","CVOE_C",11,1,2,98,"D 52","","",TRUE,"CV","q",467,"cv","D","2","c","c",TRUE,1
"3209","CVOE_C",11,1,2,99,"H 62","","",TRUE,"CV","q",809,"cv","H","2","c","c",TRUE,1
"3210","CVOE_C",11,1,2,100,"I 11","","",TRUE,"CV","p",516,"cv","I","1","v","v",TRUE,1
"3211","CVOE_C",11,1,2,101,"A 98","","",FALSE,"CV","p",789,"cv","A","8","v","v",TRUE,1
"3212","CVOE_C",11,1,2,102,"H 29","","",FALSE,"CV","q",507,"cv","H","9","c","c",TRUE,1
"3213","CVOE_C",11,1,2,103,"E 83","","",TRUE,"CV","p",400,"cv","E","3","v","v",TRUE,1
"3214","CVOE_C",11,1,2,104,"D 43","","",FALSE,"CV","q",537,"cv","D","3","c","c",TRUE,1
"3215","CVOE_C",11,1,2,105,"P 45","","",TRUE,"CV","q",572,"cv","P","5","c","c",TRUE,1
"3216","CVOE_C",11,1,2,106,"J 17","","",TRUE,"CV","q",375,"cv","J","7","c","c",TRUE,1
"3553","CVOE_C",15,1,2,11,"A 71","","",FALSE,"CV","p",1555,"cv","A","1","v","v",TRUE,1
"3554","CVOE_C",15,1,2,12,"I 66","","",TRUE,"CV","p",1180,"cv","I","6","v","v",TRUE,1
"3555","CVOE_C",15,1,2,13,"S 30","","",FALSE,"CV","q",442,"cv","S","0","c","c",TRUE,1
"3556","CVOE_C",15,1,2,14,"D 20","","",FALSE,"CV","q",450,"cv","D","0","c","c",TRUE,1
"3557","CVOE_C",15,1,2,15,"I 31","","",FALSE,"CV","p",430,"cv","I","1","v","v",TRUE,1
"3558","CVOE_C",15,1,2,16,"P 16","","",FALSE,"CV","q",603,"cv","P","6","c","c",TRUE,1
"3559","CVOE_C",15,1,2,17,"A 49","","",FALSE,"CV","p",500,"cv","A","9","v","v",TRUE,1
"3560","CVOE_C",15,1,2,18,"O 64","","",TRUE,"CV","p",415,"cv","O","4","v","v",TRUE,1
"3561","CVOE_C",15,1,2,19,"D 02","","",FALSE,"CV","q",1338,"cv","D","2","c","c",TRUE,1
"3562","CVOE_C",15,1,2,20,"P 81","","",TRUE,"CV","q",437,"cv","P","1","c","c",TRUE,1
"3563","CVOE_C",15,1,2,21,"J 58","","",FALSE,"CV","q",429,"cv","J","8","c","c",TRUE,1
"3564","CVOE_C",15,1,2,22,"A 22","","",TRUE,"CV","p",419,"cv","A","2","v","v",TRUE,1
"3565","CVOE_C",15,1,2,23,"J 72","","",FALSE,"CV","q",414,"cv","J","2","c","c",TRUE,1
"3566","CVOE_C",15,1,2,24,"P 91","","",TRUE,"CV","q",377,"cv","P","1","c","c",TRUE,1
"3567","CVOE_C",15,1,2,25,"E 19","","",FALSE,"CV","p",404,"cv","E","9","v","v",TRUE,1
"3568","CVOE_C",15,1,2,26,"I 30","","",TRUE,"CV","p",413,"cv","I","0","v","v",TRUE,1
"3569","CVOE_C",15,1,2,27,"D 91","","",TRUE,"CV","q",512,"cv","D","1","c","c",TRUE,1
"3570","CVOE_C",15,1,2,28,"O 48","","",TRUE,"CV","p",381,"cv","O","8","v","v",TRUE,1
"3571","CVOE_C",15,1,2,29,"A 89","","",FALSE,"CV","q",339,"cv","A","9","v","c",FALSE,0
"3572","CVOE_C",15,1,2,30,"U 11","","",FALSE,"CV","q",614,"cv","U","1","v","c",FALSE,0
"3573","CVOE_C",15,1,2,31,"I 76","","",TRUE,"CV","p",481,"cv","I","6","v","v",TRUE,1
"3574","CVOE_C",15,1,2,32,"U 89","","",FALSE,"CV","p",497,"cv","U","9","v","v",TRUE,1
"3575","CVOE_C",15,1,2,33,"D 63","","",TRUE,"CV","q",628,"cv","D","3","c","c",TRUE,1
"3576","CVOE_C",15,1,2,34,"H 70","","",FALSE,"CV","q",674,"cv","H","0","c","c",TRUE,1
"3577","CVOE_C",15,1,2,35,"D 48","","",FALSE,"CV","q",467,"cv","D","8","c","c",TRUE,1
"3578","CVOE_C",15,1,2,36,"P 56","","",FALSE,"CV","q",368,"cv","P","6","c","c",TRUE,1
"3579","CVOE_C",15,1,2,37,"O 77","","",FALSE,"CV","p",379,"cv","O","7","v","v",TRUE,1
"3580","CVOE_C",15,1,2,38,"P 42","","",FALSE,"CV","q",350,"cv","P","2","c","c",TRUE,1
"3581","CVOE_C",15,1,2,39,"H 22","","",FALSE,"CV","q",404,"cv","H","2","c","c",TRUE,1
"3582","CVOE_C",15,1,2,40,"E 42","","",TRUE,"CV","p",436,"cv","E","2","v","v",TRUE,1
"3583","CVOE_C",15,1,2,41,"J 28","","",FALSE,"CV","q",405,"cv","J","8","c","c",TRUE,1
"3584","CVOE_C",15,1,2,42,"E 95","","",FALSE,"CV","q",301,"cv","E","5","v","c",FALSE,0
"3585","CVOE_C",15,1,2,43,"S 63","","",TRUE,"CV","q",523,"cv","S","3","c","c",TRUE,1
"3586","CVOE_C",15,1,2,44,"H 50","","",FALSE,"CV","q",363,"cv","H","0","c","c",TRUE,1
"3587","CVOE_C",15,1,2,45,"S 33","","",TRUE,"CV","q",467,"cv","S","3","c","c",TRUE,1
"3588","CVOE_C",15,1,2,46,"P 57","","",TRUE,"CV","q",329,"cv","P","7","c","c",TRUE,1
"3589","CVOE_C",15,1,2,47,"E 23","","",FALSE,"CV","p",348,"cv","E","3","v","v",TRUE,1
"3590","CVOE_C",15,1,2,48,"S 61","","",TRUE,"CV","q",578,"cv","S","1","c","c",TRUE,1
"3591","CVOE_C",15,1,2,49,"U 67","","",FALSE,"CV","p",669,"cv","U","7","v","v",TRUE,1
"3592","CVOE_C",15,1,2,50,"H 32","","",FALSE,"CV","q",547,"cv","H","2","c","c",TRUE,1
"3593","CVOE_C",15,1,2,51,"U 50","","",TRUE,"CV","p",312,"cv","U","0","v","v",TRUE,1
"3594","CVOE_C",15,1,2,52,"O 49","","",FALSE,"CV","p",462,"cv","O","9","v","v",TRUE,1
"3595","CVOE_C",15,1,2,53,"U 32","","",TRUE,"CV","p",388,"cv","U","2","v","v",TRUE,1
"3596","CVOE_C",15,1,2,54,"J 78","","",FALSE,"CV","q",345,"cv","J","8","c","c",TRUE,1
"3597","CVOE_C",15,1,2,55,"S 54","","",FALSE,"CV","q",367,"cv","S","4","c","c",TRUE,1
"3598","CVOE_C",15,1,2,56,"J 27","","",TRUE,"CV","q",354,"cv","J","7","c","c",TRUE,1
"3599","CVOE_C",15,1,2,57,"S 06","","",FALSE,"CV","q",1354,"cv","S","6","c","c",TRUE,1
"3600","CVOE_C",15,1,2,58,"D 67","","",TRUE,"CV","q",379,"cv","D","7","c","c",TRUE,1
"3601","CVOE_C",15,1,2,59,"A 79","","",FALSE,"CV","p",462,"cv","A","9","v","v",TRUE,1
"3602","CVOE_C",15,1,2,60,"S 52","","",FALSE,"CV","q",460,"cv","S","2","c","c",TRUE,1
"3603","CVOE_C",15,1,2,61,"U 16","","",TRUE,"CV","p",431,"cv","U","6","v","v",TRUE,1
"3604","CVOE_C",15,1,2,62,"O 82","","",TRUE,"CV","p",357,"cv","O","2","v","v",TRUE,1
"3605","CVOE_C",15,1,2,63,"H 87","","",TRUE,"CV","q",349,"cv","H","7","c","c",TRUE,1
"3606","CVOE_C",15,1,2,64,"I 32","","",TRUE,"CV","p",403,"cv","I","2","v","v",TRUE,1
"3607","CVOE_C",15,1,2,65,"U 37","","",FALSE,"CV","p",803,"cv","U","7","v","v",TRUE,1
"3608","CVOE_C",15,1,2,66,"I 42","","",TRUE,"CV","p",355,"cv","I","2","v","v",TRUE,1
"3609","CVOE_C",15,1,2,67,"D 65","","",TRUE,"CV","q",300,"cv","D","5","c","c",TRUE,1
"3610","CVOE_C",15,1,2,68,"U 77","","",FALSE,"CV","p",343,"cv","U","7","v","v",TRUE,1
"3611","CVOE_C",15,1,2,69,"E 12","","",TRUE,"CV","p",396,"cv","E","2","v","v",TRUE,1
"3612","CVOE_C",15,1,2,70,"I 60","","",TRUE,"CV","p",365,"cv","I","0","v","v",TRUE,1
"3613","CVOE_C",15,1,2,71,"J 36","","",FALSE,"CV","p",333,"cv","J","6","c","v",FALSE,0
"3614","CVOE_C",15,1,2,72,"H 75","","",TRUE,"CV","q",392,"cv","H","5","c","c",TRUE,1
"3615","CVOE_C",15,1,2,73,"I 50","","",TRUE,"CV","p",366,"cv","I","0","v","v",TRUE,1
"3616","CVOE_C",15,1,2,74,"E 99","","",FALSE,"CV","q",350,"cv","E","9","v","c",FALSE,0
"3617","CVOE_C",15,1,2,75,"A 86","","",TRUE,"CV","q",340,"cv","A","6","v","c",FALSE,0
"3618","CVOE_C",15,1,2,76,"U 48","","",TRUE,"CV","p",591,"cv","U","8","v","v",TRUE,1
"3619","CVOE_C",15,1,2,77,"E 01","","",FALSE,"CV","p",405,"cv","E","1","v","v",TRUE,1
"3620","CVOE_C",15,1,2,78,"A 78","","",TRUE,"CV","p",429,"cv","A","8","v","v",TRUE,1
"3621","CVOE_C",15,1,2,79,"P 60","","",FALSE,"CV","q",307,"cv","P","0","c","c",TRUE,1
"3622","CVOE_C",15,1,2,80,"E 43","","",FALSE,"CV","p",344,"cv","E","3","v","v",TRUE,1
"3623","CVOE_C",15,1,2,81,"D 69","","",TRUE,"CV","q",278,"cv","D","9","c","c",TRUE,1
"3624","CVOE_C",15,1,2,82,"H 11","","",TRUE,"CV","q",382,"cv","H","1","c","c",TRUE,1
"3625","CVOE_C",15,1,2,83,"P 43","","",TRUE,"CV","q",380,"cv","P","3","c","c",TRUE,1
"3626","CVOE_C",15,1,2,84,"O 67","","",FALSE,"CV","p",431,"cv","O","7","v","v",TRUE,1
"3627","CVOE_C",15,1,2,85,"S 91","","",FALSE,"CV","p",357,"cv","S","1","c","v",FALSE,0
"3628","CVOE_C",15,1,2,86,"J 68","","",TRUE,"CV","q",469,"cv","J","8","c","c",TRUE,1
"3629","CVOE_C",15,1,2,87,"S 47","","",FALSE,"CV","q",371,"cv","S","7","c","c",TRUE,1
"3630","CVOE_C",15,1,2,88,"I 81","","",TRUE,"CV","p",478,"cv","I","1","v","v",TRUE,1
"3631","CVOE_C",15,1,2,89,"J 39","","",FALSE,"CV","q",462,"cv","J","9","c","c",TRUE,1
"3632","CVOE_C",15,1,2,90,"A 11","","",TRUE,"CV","q",380,"cv","A","1","v","c",FALSE,0
"3633","CVOE_C",15,1,2,91,"O 76","","",FALSE,"CV","p",457,"cv","O","6","v","v",TRUE,1
"3634","CVOE_C",15,1,2,92,"A 62","","",FALSE,"CV","p",620,"cv","A","2","v","v",TRUE,1
"3635","CVOE_C",15,1,2,93,"O 27","","",TRUE,"CV","p",354,"cv","O","7","v","v",TRUE,1
"3636","CVOE_C",15,1,2,94,"E 66","","",FALSE,"CV","p",411,"cv","E","6","v","v",TRUE,1
"3637","CVOE_C",15,1,2,95,"J 62","","",TRUE,"CV","q",494,"cv","J","2","c","c",TRUE,1
"3638","CVOE_C",15,1,2,96,"H 72","","",TRUE,"CV","q",521,"cv","H","2","c","c",TRUE,1
"3639","CVOE_C",15,1,2,97,"E 49","","",TRUE,"CV","p",361,"cv","E","9","v","v",TRUE,1
"3640","CVOE_C",15,1,2,98,"D 52","","",TRUE,"CV","q",329,"cv","D","2","c","c",TRUE,1
"3641","CVOE_C",15,1,2,99,"H 62","","",TRUE,"CV","q",396,"cv","H","2","c","c",TRUE,1
"3642","CVOE_C",15,1,2,100,"I 11","","",TRUE,"CV","p",397,"cv","I","1","v","v",TRUE,1
"3643","CVOE_C",15,1,2,101,"A 98","","",FALSE,"CV","p",501,"cv","A","8","v","v",TRUE,1
"3644","CVOE_C",15,1,2,102,"H 29","","",FALSE,"CV","p",363,"cv","H","9","c","v",FALSE,0
"3645","CVOE_C",15,1,2,103,"E 83","","",TRUE,"CV","q",299,"cv","E","3","v","c",FALSE,0
"3646","CVOE_C",15,1,2,104,"D 43","","",FALSE,"CV","q",518,"cv","D","3","c","c",TRUE,1
"3647","CVOE_C",15,1,2,105,"P 45","","",TRUE,"CV","q",430,"cv","P","5","c","c",TRUE,1
"3648","CVOE_C",15,1,2,106,"J 17","","",TRUE,"CV","q",316,"cv","J","7","c","c",TRUE,1
"3985","CVOE_C",7,1,2,11,"A 71","","",FALSE,"CV","p",3005,"cv","A","1","v","v",TRUE,1
"3986","CVOE_C",7,1,2,12,"I 66","","",TRUE,"CV","p",830,"cv","I","6","v","v",TRUE,1
"3987","CVOE_C",7,1,2,13,"S 30","","",FALSE,"CV","q",668,"cv","S","0","c","c",TRUE,1
"3988","CVOE_C",7,1,2,14,"D 20","","",FALSE,"CV","q",754,"cv","D","0","c","c",TRUE,1
"3989","CVOE_C",7,1,2,15,"I 31","","",FALSE,"CV","p",874,"cv","I","1","v","v",TRUE,1
"3990","CVOE_C",7,1,2,16,"P 16","","",FALSE,"CV","q",859,"cv","P","6","c","c",TRUE,1
"3991","CVOE_C",7,1,2,17,"A 49","","",FALSE,"CV","p",902,"cv","A","9","v","v",TRUE,1
"3992","CVOE_C",7,1,2,18,"O 64","","",TRUE,"CV","p",1076,"cv","O","4","v","v",TRUE,1
"3993","CVOE_C",7,1,2,19,"D 02","","",FALSE,"CV","q",581,"cv","D","2","c","c",TRUE,1
"3994","CVOE_C",7,1,2,20,"P 81","","",TRUE,"CV","q",1338,"cv","P","1","c","c",TRUE,1
"3995","CVOE_C",7,1,2,21,"J 58","","",FALSE,"CV","q",646,"cv","J","8","c","c",TRUE,1
"3996","CVOE_C",7,1,2,22,"A 22","","",TRUE,"CV","p",606,"cv","A","2","v","v",TRUE,1
"3997","CVOE_C",7,1,2,23,"J 72","","",FALSE,"CV","q",601,"cv","J","2","c","c",TRUE,1
"3998","CVOE_C",7,1,2,24,"P 91","","",TRUE,"CV","q",986,"cv","P","1","c","c",TRUE,1
"3999","CVOE_C",7,1,2,25,"E 19","","",FALSE,"CV","p",1024,"cv","E","9","v","v",TRUE,1
"4000","CVOE_C",7,1,2,26,"I 30","","",TRUE,"CV","p",694,"cv","I","0","v","v",TRUE,1
"4001","CVOE_C",7,1,2,27,"D 91","","",TRUE,"CV","q",697,"cv","D","1","c","c",TRUE,1
"4002","CVOE_C",7,1,2,28,"O 48","","",TRUE,"CV","p",636,"cv","O","8","v","v",TRUE,1
"4003","CVOE_C",7,1,2,29,"A 89","","",FALSE,"CV","p",764,"cv","A","9","v","v",TRUE,1
"4004","CVOE_C",7,1,2,30,"U 11","","",FALSE,"CV","p",789,"cv","U","1","v","v",TRUE,1
"4005","CVOE_C",7,1,2,31,"I 76","","",TRUE,"CV","p",787,"cv","I","6","v","v",TRUE,1
"4006","CVOE_C",7,1,2,32,"U 89","","",FALSE,"CV","p",672,"cv","U","9","v","v",TRUE,1
"4007","CVOE_C",7,1,2,33,"D 63","","",TRUE,"CV","q",614,"cv","D","3","c","c",TRUE,1
"4008","CVOE_C",7,1,2,34,"H 70","","",FALSE,"CV","q",857,"cv","H","0","c","c",TRUE,1
"4009","CVOE_C",7,1,2,35,"D 48","","",FALSE,"CV","q",597,"cv","D","8","c","c",TRUE,1
"4010","CVOE_C",7,1,2,36,"P 56","","",FALSE,"CV","q",861,"cv","P","6","c","c",TRUE,1
"4011","CVOE_C",7,1,2,37,"O 77","","",FALSE,"CV","p",699,"cv","O","7","v","v",TRUE,1
"4012","CVOE_C",7,1,2,38,"P 42","","",FALSE,"CV","q",598,"cv","P","2","c","c",TRUE,1
"4013","CVOE_C",7,1,2,39,"H 22","","",FALSE,"CV","q",1014,"cv","H","2","c","c",TRUE,1
"4014","CVOE_C",7,1,2,40,"E 42","","",TRUE,"CV","p",954,"cv","E","2","v","v",TRUE,1
"4015","CVOE_C",7,1,2,41,"J 28","","",FALSE,"CV","q",1394,"cv","J","8","c","c",TRUE,1
"4016","CVOE_C",7,1,2,42,"E 95","","",FALSE,"CV","p",595,"cv","E","5","v","v",TRUE,1
"4017","CVOE_C",7,1,2,43,"S 63","","",TRUE,"CV","q",587,"cv","S","3","c","c",TRUE,1
"4018","CVOE_C",7,1,2,44,"H 50","","",FALSE,"CV","q",1201,"cv","H","0","c","c",TRUE,1
"4019","CVOE_C",7,1,2,45,"S 33","","",TRUE,"CV","q",642,"cv","S","3","c","c",TRUE,1
"4020","CVOE_C",7,1,2,46,"P 57","","",TRUE,"CV","q",1034,"cv","P","7","c","c",TRUE,1
"4021","CVOE_C",7,1,2,47,"E 23","","",FALSE,"CV","p",923,"cv","E","3","v","v",TRUE,1
"4022","CVOE_C",7,1,2,48,"S 61","","",TRUE,"CV","q",587,"cv","S","1","c","c",TRUE,1
"4023","CVOE_C",7,1,2,49,"U 67","","",FALSE,"CV","p",697,"cv","U","7","v","v",TRUE,1
"4024","CVOE_C",7,1,2,50,"H 32","","",FALSE,"CV","q",516,"cv","H","2","c","c",TRUE,1
"4025","CVOE_C",7,1,2,51,"U 50","","",TRUE,"CV","p",653,"cv","U","0","v","v",TRUE,1
"4026","CVOE_C",7,1,2,52,"O 49","","",FALSE,"CV","p",776,"cv","O","9","v","v",TRUE,1
"4027","CVOE_C",7,1,2,53,"U 32","","",TRUE,"CV","p",675,"cv","U","2","v","v",TRUE,1
"4028","CVOE_C",7,1,2,54,"J 78","","",FALSE,"CV","q",539,"cv","J","8","c","c",TRUE,1
"4029","CVOE_C",7,1,2,55,"S 54","","",FALSE,"CV","q",942,"cv","S","4","c","c",TRUE,1
"4030","CVOE_C",7,1,2,56,"J 27","","",TRUE,"CV","q",572,"cv","J","7","c","c",TRUE,1
"4031","CVOE_C",7,1,2,57,"S 06","","",FALSE,"CV","q",647,"cv","S","6","c","c",TRUE,1
"4032","CVOE_C",7,1,2,58,"D 67","","",TRUE,"CV","q",691,"cv","D","7","c","c",TRUE,1
"4033","CVOE_C",7,1,2,59,"A 79","","",FALSE,"CV","p",598,"cv","A","9","v","v",TRUE,1
"4034","CVOE_C",7,1,2,60,"S 52","","",FALSE,"CV","q",494,"cv","S","2","c","c",TRUE,1
"4035","CVOE_C",7,1,2,61,"U 16","","",TRUE,"CV","p",465,"cv","U","6","v","v",TRUE,1
"4036","CVOE_C",7,1,2,62,"O 82","","",TRUE,"CV","p",511,"cv","O","2","v","v",TRUE,1
"4037","CVOE_C",7,1,2,63,"H 87","","",TRUE,"CV","q",573,"cv","H","7","c","c",TRUE,1
"4038","CVOE_C",7,1,2,64,"I 32","","",TRUE,"CV","p",592,"cv","I","2","v","v",TRUE,1
"4039","CVOE_C",7,1,2,65,"U 37","","",FALSE,"CV","p",549,"cv","U","7","v","v",TRUE,1
"4040","CVOE_C",7,1,2,66,"I 42","","",TRUE,"CV","p",515,"cv","I","2","v","v",TRUE,1
"4041","CVOE_C",7,1,2,67,"D 65","","",TRUE,"CV","q",652,"cv","D","5","c","c",TRUE,1
"4042","CVOE_C",7,1,2,68,"U 77","","",FALSE,"CV","p",599,"cv","U","7","v","v",TRUE,1
"4043","CVOE_C",7,1,2,69,"E 12","","",TRUE,"CV","p",999,"cv","E","2","v","v",TRUE,1
"4044","CVOE_C",7,1,2,70,"I 60","","",TRUE,"CV","p",784,"cv","I","0","v","v",TRUE,1
"4045","CVOE_C",7,1,2,71,"J 36","","",FALSE,"CV","q",582,"cv","J","6","c","c",TRUE,1
"4046","CVOE_C",7,1,2,72,"H 75","","",TRUE,"CV","q",579,"cv","H","5","c","c",TRUE,1
"4047","CVOE_C",7,1,2,73,"I 50","","",TRUE,"CV","p",1022,"cv","I","0","v","v",TRUE,1
"4048","CVOE_C",7,1,2,74,"E 99","","",FALSE,"CV","p",956,"cv","E","9","v","v",TRUE,1
"4049","CVOE_C",7,1,2,75,"A 86","","",TRUE,"CV","p",805,"cv","A","6","v","v",TRUE,1
"4050","CVOE_C",7,1,2,76,"U 48","","",TRUE,"CV","p",1085,"cv","U","8","v","v",TRUE,1
"4051","CVOE_C",7,1,2,77,"E 01","","",FALSE,"CV","p",574,"cv","E","1","v","v",TRUE,1
"4052","CVOE_C",7,1,2,78,"A 78","","",TRUE,"CV","p",497,"cv","A","8","v","v",TRUE,1
"4053","CVOE_C",7,1,2,79,"P 60","","",FALSE,"CV","q",548,"cv","P","0","c","c",TRUE,1
"4054","CVOE_C",7,1,2,80,"E 43","","",FALSE,"CV","p",562,"cv","E","3","v","v",TRUE,1
"4055","CVOE_C",7,1,2,81,"D 69","","",TRUE,"CV","q",570,"cv","D","9","c","c",TRUE,1
"4056","CVOE_C",7,1,2,82,"H 11","","",TRUE,"CV","q",981,"cv","H","1","c","c",TRUE,1
"4057","CVOE_C",7,1,2,83,"P 43","","",TRUE,"CV","q",1235,"cv","P","3","c","c",TRUE,1
"4058","CVOE_C",7,1,2,84,"O 67","","",FALSE,"CV","p",628,"cv","O","7","v","v",TRUE,1
"4059","CVOE_C",7,1,2,85,"S 91","","",FALSE,"CV","q",922,"cv","S","1","c","c",TRUE,1
"4060","CVOE_C",7,1,2,86,"J 68","","",TRUE,"CV","q",1162,"cv","J","8","c","c",TRUE,1
"4061","CVOE_C",7,1,2,87,"S 47","","",FALSE,"CV","q",467,"cv","S","7","c","c",TRUE,1
"4062","CVOE_C",7,1,2,88,"I 81","","",TRUE,"CV","p",721,"cv","I","1","v","v",TRUE,1
"4063","CVOE_C",7,1,2,89,"J 39","","",FALSE,"CV","q",537,"cv","J","9","c","c",TRUE,1
"4064","CVOE_C",7,1,2,90,"A 11","","",TRUE,"CV","p",556,"cv","A","1","v","v",TRUE,1
"4065","CVOE_C",7,1,2,91,"O 76","","",FALSE,"CV","p",445,"cv","O","6","v","v",TRUE,1
"4066","CVOE_C",7,1,2,92,"A 62","","",FALSE,"CV","p",573,"cv","A","2","v","v",TRUE,1
"4067","CVOE_C",7,1,2,93,"O 27","","",TRUE,"CV","p",800,"cv","O","7","v","v",TRUE,1
"4068","CVOE_C",7,1,2,94,"E 66","","",FALSE,"CV","p",832,"cv","E","6","v","v",TRUE,1
"4069","CVOE_C",7,1,2,95,"J 62","","",TRUE,"CV","q",494,"cv","J","2","c","c",TRUE,1
"4070","CVOE_C",7,1,2,96,"H 72","","",TRUE,"CV","q",441,"cv","H","2","c","c",TRUE,1
"4071","CVOE_C",7,1,2,97,"E 49","","",TRUE,"CV","p",602,"cv","E","9","v","v",TRUE,1
"4072","CVOE_C",7,1,2,98,"D 52","","",TRUE,"CV","q",682,"cv","D","2","c","c",TRUE,1
"4073","CVOE_C",7,1,2,99,"H 62","","",TRUE,"CV","q",579,"cv","H","2","c","c",TRUE,1
"4074","CVOE_C",7,1,2,100,"I 11","","",TRUE,"CV","p",494,"cv","I","1","v","v",TRUE,1
"4075","CVOE_C",7,1,2,101,"A 98","","",FALSE,"CV","p",825,"cv","A","8","v","v",TRUE,1
"4076","CVOE_C",7,1,2,102,"H 29","","",FALSE,"CV","q",687,"cv","H","9","c","c",TRUE,1
"4077","CVOE_C",7,1,2,103,"E 83","","",TRUE,"CV","p",554,"cv","E","3","v","v",TRUE,1
"4078","CVOE_C",7,1,2,104,"D 43","","",FALSE,"CV","q",562,"cv","D","3","c","c",TRUE,1
"4079","CVOE_C",7,1,2,105,"P 45","","",TRUE,"CV","q",491,"cv","P","5","c","c",TRUE,1
"4080","CVOE_C",7,1,2,106,"J 17","","",TRUE,"CV","q",518,"cv","J","7","c","c",TRUE,1
"4321","CVOE_D",4,1,1,11,"A 71","","",FALSE,"CV","p",1212,"cv","A","1","v","v",TRUE,1
"4322","CVOE_D",4,1,1,12,"I 66","","",TRUE,"CV","p",840,"cv","I","6","v","v",TRUE,1
"4323","CVOE_D",4,1,1,13,"S 30","","",FALSE,"CV","q",728,"cv","S","0","c","c",TRUE,1
"4324","CVOE_D",4,1,1,14,"D 20","","",FALSE,"CV","q",1075,"cv","D","0","c","c",TRUE,1
"4325","CVOE_D",4,1,1,15,"I 31","","",FALSE,"CV","p",708,"cv","I","1","v","v",TRUE,1
"4326","CVOE_D",4,1,1,16,"P 16","","",FALSE,"CV","q",802,"cv","P","6","c","c",TRUE,1
"4327","CVOE_D",4,1,1,17,"A 49","","",FALSE,"CV","p",706,"cv","A","9","v","v",TRUE,1
"4328","CVOE_D",4,1,1,18,"O 64","","",TRUE,"CV","p",776,"cv","O","4","v","v",TRUE,1
"4329","CVOE_D",4,1,1,19,"D 02","","",FALSE,"CV","q",851,"cv","D","2","c","c",TRUE,1
"4330","CVOE_D",4,1,1,20,"P 81","","",TRUE,"CV","q",1006,"cv","P","1","c","c",TRUE,1
"4331","CVOE_D",4,1,1,21,"J 58","","",FALSE,"CV","q",687,"cv","J","8","c","c",TRUE,1
"4332","CVOE_D",4,1,1,22,"A 22","","",TRUE,"CV","p",959,"cv","A","2","v","v",TRUE,1
"4333","CVOE_D",4,1,1,23,"J 72","","",FALSE,"CV","q",1439,"cv","J","2","c","c",TRUE,1
"4334","CVOE_D",4,1,1,24,"P 91","","",TRUE,"CV","q",889,"cv","P","1","c","c",TRUE,1
"4335","CVOE_D",4,1,1,25,"E 19","","",FALSE,"CV","p",860,"cv","E","9","v","v",TRUE,1
"4336","CVOE_D",4,1,1,26,"I 30","","",TRUE,"CV","p",743,"cv","I","0","v","v",TRUE,1
"4337","CVOE_D",4,1,1,27,"D 91","","",TRUE,"CV","q",1597,"cv","D","1","c","c",TRUE,1
"4338","CVOE_D",4,1,1,28,"O 48","","",TRUE,"CV","p",3798,"cv","O","8","v","v",TRUE,1
"4339","CVOE_D",4,1,1,29,"A 89","","",FALSE,"CV","p",663,"cv","A","9","v","v",TRUE,1
"4340","CVOE_D",4,1,1,30,"U 11","","",FALSE,"CV","p",1909,"cv","U","1","v","v",TRUE,1
"4341","CVOE_D",4,1,1,31,"I 76","","",TRUE,"CV","p",651,"cv","I","6","v","v",TRUE,1
"4342","CVOE_D",4,1,1,32,"U 89","","",FALSE,"CV","p",950,"cv","U","9","v","v",TRUE,1
"4343","CVOE_D",4,1,1,33,"D 63","","",TRUE,"CV","q",1036,"cv","D","3","c","c",TRUE,1
"4344","CVOE_D",4,1,1,34,"H 70","","",FALSE,"CV","q",1157,"cv","H","0","c","c",TRUE,1
"4345","CVOE_D",4,1,1,35,"D 48","","",FALSE,"CV","q",734,"cv","D","8","c","c",TRUE,1
"4346","CVOE_D",4,1,1,36,"P 56","","",FALSE,"CV","q",689,"cv","P","6","c","c",TRUE,1
"4347","CVOE_D",4,1,1,37,"O 77","","",FALSE,"CV","p",924,"cv","O","7","v","v",TRUE,1
"4348","CVOE_D",4,1,1,38,"P 42","","",FALSE,"CV","q",756,"cv","P","2","c","c",TRUE,1
"4349","CVOE_D",4,1,1,39,"H 22","","",FALSE,"CV","q",1901,"cv","H","2","c","c",TRUE,1
"4350","CVOE_D",4,1,1,40,"E 42","","",TRUE,"CV","p",667,"cv","E","2","v","v",TRUE,1
"4351","CVOE_D",4,1,1,41,"J 28","","",FALSE,"CV","q",897,"cv","J","8","c","c",TRUE,1
"4352","CVOE_D",4,1,1,42,"E 95","","",FALSE,"CV","p",908,"cv","E","5","v","v",TRUE,1
"4353","CVOE_D",4,1,1,43,"S 63","","",TRUE,"CV","q",738,"cv","S","3","c","c",TRUE,1
"4354","CVOE_D",4,1,1,44,"H 50","","",FALSE,"CV","q",1133,"cv","H","0","c","c",TRUE,1
"4355","CVOE_D",4,1,1,45,"S 33","","",TRUE,"CV","q",712,"cv","S","3","c","c",TRUE,1
"4356","CVOE_D",4,1,1,46,"P 57","","",TRUE,"CV","q",926,"cv","P","7","c","c",TRUE,1
"4357","CVOE_D",4,1,1,47,"E 23","","",FALSE,"CV","p",1031,"cv","E","3","v","v",TRUE,1
"4358","CVOE_D",4,1,1,48,"S 61","","",TRUE,"CV","q",677,"cv","S","1","c","c",TRUE,1
"4359","CVOE_D",4,1,1,49,"U 67","","",FALSE,"CV","p",805,"cv","U","7","v","v",TRUE,1
"4360","CVOE_D",4,1,1,50,"H 32","","",FALSE,"CV","q",1102,"cv","H","2","c","c",TRUE,1
"4361","CVOE_D",4,1,1,51,"U 50","","",TRUE,"CV","p",836,"cv","U","0","v","v",TRUE,1
"4362","CVOE_D",4,1,1,52,"O 49","","",FALSE,"CV","p",820,"cv","O","9","v","v",TRUE,1
"4363","CVOE_D",4,1,1,53,"U 32","","",TRUE,"CV","p",711,"cv","U","2","v","v",TRUE,1
"4364","CVOE_D",4,1,1,54,"J 78","","",FALSE,"CV","q",749,"cv","J","8","c","c",TRUE,1
"4365","CVOE_D",4,1,1,55,"S 54","","",FALSE,"CV","q",723,"cv","S","4","c","c",TRUE,1
"4366","CVOE_D",4,1,1,56,"J 27","","",TRUE,"CV","q",707,"cv","J","7","c","c",TRUE,1
"4367","CVOE_D",4,1,1,57,"S 06","","",FALSE,"CV","q",569,"cv","S","6","c","c",TRUE,1
"4368","CVOE_D",4,1,1,58,"D 67","","",TRUE,"CV","q",1188,"cv","D","7","c","c",TRUE,1
"4369","CVOE_D",4,1,1,59,"A 79","","",FALSE,"CV","p",642,"cv","A","9","v","v",TRUE,1
"4370","CVOE_D",4,1,1,60,"S 52","","",FALSE,"CV","q",819,"cv","S","2","c","c",TRUE,1
"4371","CVOE_D",4,1,1,61,"U 16","","",TRUE,"CV","p",709,"cv","U","6","v","v",TRUE,1
"4372","CVOE_D",4,1,1,62,"O 82","","",TRUE,"CV","p",756,"cv","O","2","v","v",TRUE,1
"4373","CVOE_D",4,1,1,63,"H 87","","",TRUE,"CV","q",788,"cv","H","7","c","c",TRUE,1
"4374","CVOE_D",4,1,1,64,"I 32","","",TRUE,"CV","p",778,"cv","I","2","v","v",TRUE,1
"4375","CVOE_D",4,1,1,65,"U 37","","",FALSE,"CV","p",1237,"cv","U","7","v","v",TRUE,1
"4376","CVOE_D",4,1,1,66,"I 42","","",TRUE,"CV","p",750,"cv","I","2","v","v",TRUE,1
"4377","CVOE_D",4,1,1,67,"D 65","","",TRUE,"CV","q",628,"cv","D","5","c","c",TRUE,1
"4378","CVOE_D",4,1,1,68,"U 77","","",FALSE,"CV","p",785,"cv","U","7","v","v",TRUE,1
"4379","CVOE_D",4,1,1,69,"E 12","","",TRUE,"CV","p",1191,"cv","E","2","v","v",TRUE,1
"4380","CVOE_D",4,1,1,70,"I 60","","",TRUE,"CV","p",781,"cv","I","0","v","v",TRUE,1
"4381","CVOE_D",4,1,1,71,"J 36","","",FALSE,"CV","q",699,"cv","J","6","c","c",TRUE,1
"4382","CVOE_D",4,1,1,72,"H 75","","",TRUE,"CV","q",598,"cv","H","5","c","c",TRUE,1
"4383","CVOE_D",4,1,1,73,"I 50","","",TRUE,"CV","p",759,"cv","I","0","v","v",TRUE,1
"4384","CVOE_D",4,1,1,74,"E 99","","",FALSE,"CV","p",1423,"cv","E","9","v","v",TRUE,1
"4385","CVOE_D",4,1,1,75,"A 86","","",TRUE,"CV","p",669,"cv","A","6","v","v",TRUE,1
"4386","CVOE_D",4,1,1,76,"U 48","","",TRUE,"CV","p",771,"cv","U","8","v","v",TRUE,1
"4387","CVOE_D",4,1,1,77,"E 01","","",FALSE,"CV","p",694,"cv","E","1","v","v",TRUE,1
"4388","CVOE_D",4,1,1,78,"A 78","","",TRUE,"CV","p",721,"cv","A","8","v","v",TRUE,1
"4389","CVOE_D",4,1,1,79,"P 60","","",FALSE,"CV","q",698,"cv","P","0","c","c",TRUE,1
"4390","CVOE_D",4,1,1,80,"E 43","","",FALSE,"CV","p",693,"cv","E","3","v","v",TRUE,1
"4391","CVOE_D",4,1,1,81,"D 69","","",TRUE,"CV","q",768,"cv","D","9","c","c",TRUE,1
"4392","CVOE_D",4,1,1,82,"H 11","","",TRUE,"CV","q",603,"cv","H","1","c","c",TRUE,1
"4393","CVOE_D",4,1,1,83,"P 43","","",TRUE,"CV","q",820,"cv","P","3","c","c",TRUE,1
"4394","CVOE_D",4,1,1,84,"O 67","","",FALSE,"CV","p",719,"cv","O","7","v","v",TRUE,1
"4395","CVOE_D",4,1,1,85,"S 91","","",FALSE,"CV","q",743,"cv","S","1","c","c",TRUE,1
"4396","CVOE_D",4,1,1,86,"J 68","","",TRUE,"CV","q",693,"cv","J","8","c","c",TRUE,1
"4397","CVOE_D",4,1,1,87,"S 47","","",FALSE,"CV","q",568,"cv","S","7","c","c",TRUE,1
"4398","CVOE_D",4,1,1,88,"I 81","","",TRUE,"CV","p",675,"cv","I","1","v","v",TRUE,1
"4399","CVOE_D",4,1,1,89,"J 39","","",FALSE,"CV","q",580,"cv","J","9","c","c",TRUE,1
"4400","CVOE_D",4,1,1,90,"A 11","","",TRUE,"CV","p",671,"cv","A","1","v","v",TRUE,1
"4401","CVOE_D",4,1,1,91,"O 76","","",FALSE,"CV","p",669,"cv","O","6","v","v",TRUE,1
"4402","CVOE_D",4,1,1,92,"A 62","","",FALSE,"CV","p",618,"cv","A","2","v","v",TRUE,1
"4403","CVOE_D",4,1,1,93,"O 27","","",TRUE,"CV","p",582,"cv","O","7","v","v",TRUE,1
"4404","CVOE_D",4,1,1,94,"E 66","","",FALSE,"CV","p",643,"cv","E","6","v","v",TRUE,1
"4405","CVOE_D",4,1,1,95,"J 62","","",TRUE,"CV","q",652,"cv","J","2","c","c",TRUE,1
"4406","CVOE_D",4,1,1,96,"H 72","","",TRUE,"CV","q",655,"cv","H","2","c","c",TRUE,1
"4407","CVOE_D",4,1,1,97,"E 49","","",TRUE,"CV","p",818,"cv","E","9","v","v",TRUE,1
"4408","CVOE_D",4,1,1,98,"D 52","","",TRUE,"CV","q",533,"cv","D","2","c","c",TRUE,1
"4409","CVOE_D",4,1,1,99,"H 62","","",TRUE,"CV","q",624,"cv","H","2","c","c",TRUE,1
"4410","CVOE_D",4,1,1,100,"I 11","","",TRUE,"CV","p",974,"cv","I","1","v","v",TRUE,1
"4411","CVOE_D",4,1,1,101,"A 98","","",FALSE,"CV","p",657,"cv","A","8","v","v",TRUE,1
"4412","CVOE_D",4,1,1,102,"H 29","","",FALSE,"CV","q",604,"cv","H","9","c","c",TRUE,1
"4413","CVOE_D",4,1,1,103,"E 83","","",TRUE,"CV","p",645,"cv","E","3","v","v",TRUE,1
"4414","CVOE_D",4,1,1,104,"D 43","","",FALSE,"CV","q",613,"cv","D","3","c","c",TRUE,1
"4415","CVOE_D",4,1,1,105,"P 45","","",TRUE,"CV","q",528,"cv","P","5","c","c",TRUE,1
"4416","CVOE_D",4,1,1,106,"J 17","","",TRUE,"CV","q",675,"cv","J","7","c","c",TRUE,1
"4753","CVOE_D",12,1,1,11,"A 71","","",FALSE,"CV","p",2677,"cv","A","1","v","v",TRUE,1
"4754","CVOE_D",12,1,1,12,"I 66","","",TRUE,"CV","p",926,"cv","I","6","v","v",TRUE,1
"4755","CVOE_D",12,1,1,13,"S 30","","",FALSE,"CV","q",823,"cv","S","0","c","c",TRUE,1
"4756","CVOE_D",12,1,1,14,"D 20","","",FALSE,"CV","q",589,"cv","D","0","c","c",TRUE,1
"4757","CVOE_D",12,1,1,15,"I 31","","",FALSE,"CV","p",738,"cv","I","1","v","v",TRUE,1
"4758","CVOE_D",12,1,1,16,"P 16","","",FALSE,"CV","q",750,"cv","P","6","c","c",TRUE,1
"4759","CVOE_D",12,1,1,17,"A 49","","",FALSE,"CV","p",635,"cv","A","9","v","v",TRUE,1
"4760","CVOE_D",12,1,1,18,"O 64","","",TRUE,"CV","p",828,"cv","O","4","v","v",TRUE,1
"4761","CVOE_D",12,1,1,19,"D 02","","",FALSE,"CV","q",506,"cv","D","2","c","c",TRUE,1
"4762","CVOE_D",12,1,1,20,"P 81","","",TRUE,"CV","q",775,"cv","P","1","c","c",TRUE,1
"4763","CVOE_D",12,1,1,21,"J 58","","",FALSE,"CV","q",499,"cv","J","8","c","c",TRUE,1
"4764","CVOE_D",12,1,1,22,"A 22","","",TRUE,"CV","p",646,"cv","A","2","v","v",TRUE,1
"4765","CVOE_D",12,1,1,23,"J 72","","",FALSE,"CV","q",534,"cv","J","2","c","c",TRUE,1
"4766","CVOE_D",12,1,1,24,"P 91","","",TRUE,"CV","q",737,"cv","P","1","c","c",TRUE,1
"4767","CVOE_D",12,1,1,25,"E 19","","",FALSE,"CV","p",948,"cv","E","9","v","v",TRUE,1
"4768","CVOE_D",12,1,1,26,"I 30","","",TRUE,"CV","p",658,"cv","I","0","v","v",TRUE,1
"4769","CVOE_D",12,1,1,27,"D 91","","",TRUE,"CV","q",589,"cv","D","1","c","c",TRUE,1
"4770","CVOE_D",12,1,1,28,"O 48","","",TRUE,"CV","p",627,"cv","O","8","v","v",TRUE,1
"4771","CVOE_D",12,1,1,29,"A 89","","",FALSE,"CV","p",697,"cv","A","9","v","v",TRUE,1
"4772","CVOE_D",12,1,1,30,"U 11","","",FALSE,"CV","p",692,"cv","U","1","v","v",TRUE,1
"4773","CVOE_D",12,1,1,31,"I 76","","",TRUE,"CV","p",471,"cv","I","6","v","v",TRUE,1
"4774","CVOE_D",12,1,1,32,"U 89","","",FALSE,"CV","p",501,"cv","U","9","v","v",TRUE,1
"4775","CVOE_D",12,1,1,33,"D 63","","",TRUE,"CV","q",640,"cv","D","3","c","c",TRUE,1
"4776","CVOE_D",12,1,1,34,"H 70","","",FALSE,"CV","q",800,"cv","H","0","c","c",TRUE,1
"4777","CVOE_D",12,1,1,35,"D 48","","",FALSE,"CV","q",729,"cv","D","8","c","c",TRUE,1
"4778","CVOE_D",12,1,1,36,"P 56","","",FALSE,"CV","q",788,"cv","P","6","c","c",TRUE,1
"4779","CVOE_D",12,1,1,37,"O 77","","",FALSE,"CV","p",586,"cv","O","7","v","v",TRUE,1
"4780","CVOE_D",12,1,1,38,"P 42","","",FALSE,"CV","q",519,"cv","P","2","c","c",TRUE,1
"4781","CVOE_D",12,1,1,39,"H 22","","",FALSE,"CV","q",904,"cv","H","2","c","c",TRUE,1
"4782","CVOE_D",12,1,1,40,"E 42","","",TRUE,"CV","p",662,"cv","E","2","v","v",TRUE,1
"4783","CVOE_D",12,1,1,41,"J 28","","",FALSE,"CV","q",468,"cv","J","8","c","c",TRUE,1
"4784","CVOE_D",12,1,1,42,"E 95","","",FALSE,"CV","p",577,"cv","E","5","v","v",TRUE,1
"4785","CVOE_D",12,1,1,43,"S 63","","",TRUE,"CV","q",484,"cv","S","3","c","c",TRUE,1
"4786","CVOE_D",12,1,1,44,"H 50","","",FALSE,"CV","q",565,"cv","H","0","c","c",TRUE,1
"4787","CVOE_D",12,1,1,45,"S 33","","",TRUE,"CV","q",1117,"cv","S","3","c","c",TRUE,1
"4788","CVOE_D",12,1,1,46,"P 57","","",TRUE,"CV","q",502,"cv","P","7","c","c",TRUE,1
"4789","CVOE_D",12,1,1,47,"E 23","","",FALSE,"CV","p",467,"cv","E","3","v","v",TRUE,1
"4790","CVOE_D",12,1,1,48,"S 61","","",TRUE,"CV","q",529,"cv","S","1","c","c",TRUE,1
"4791","CVOE_D",12,1,1,49,"U 67","","",FALSE,"CV","p",636,"cv","U","7","v","v",TRUE,1
"4792","CVOE_D",12,1,1,50,"H 32","","",FALSE,"CV","q",477,"cv","H","2","c","c",TRUE,1
"4793","CVOE_D",12,1,1,51,"U 50","","",TRUE,"CV","p",693,"cv","U","0","v","v",TRUE,1
"4794","CVOE_D",12,1,1,52,"O 49","","",FALSE,"CV","p",528,"cv","O","9","v","v",TRUE,1
"4795","CVOE_D",12,1,1,53,"U 32","","",TRUE,"CV","p",595,"cv","U","2","v","v",TRUE,1
"4796","CVOE_D",12,1,1,54,"J 78","","",FALSE,"CV","q",516,"cv","J","8","c","c",TRUE,1
"4797","CVOE_D",12,1,1,55,"S 54","","",FALSE,"CV","q",724,"cv","S","4","c","c",TRUE,1
"4798","CVOE_D",12,1,1,56,"J 27","","",TRUE,"CV","q",573,"cv","J","7","c","c",TRUE,1
"4799","CVOE_D",12,1,1,57,"S 06","","",FALSE,"CV","q",504,"cv","S","6","c","c",TRUE,1
"4800","CVOE_D",12,1,1,58,"D 67","","",TRUE,"CV","q",517,"cv","D","7","c","c",TRUE,1
"4801","CVOE_D",12,1,1,59,"A 79","","",FALSE,"CV","p",718,"cv","A","9","v","v",TRUE,1
"4802","CVOE_D",12,1,1,60,"S 52","","",FALSE,"CV","q",470,"cv","S","2","c","c",TRUE,1
"4803","CVOE_D",12,1,1,61,"U 16","","",TRUE,"CV","p",604,"cv","U","6","v","v",TRUE,1
"4804","CVOE_D",12,1,1,62,"O 82","","",TRUE,"CV","p",484,"cv","O","2","v","v",TRUE,1
"4805","CVOE_D",12,1,1,63,"H 87","","",TRUE,"CV","q",565,"cv","H","7","c","c",TRUE,1
"4806","CVOE_D",12,1,1,64,"I 32","","",TRUE,"CV","p",533,"cv","I","2","v","v",TRUE,1
"4807","CVOE_D",12,1,1,65,"U 37","","",FALSE,"CV","p",512,"cv","U","7","v","v",TRUE,1
"4808","CVOE_D",12,1,1,66,"I 42","","",TRUE,"CV","p",510,"cv","I","2","v","v",TRUE,1
"4809","CVOE_D",12,1,1,67,"D 65","","",TRUE,"CV","q",492,"cv","D","5","c","c",TRUE,1
"4810","CVOE_D",12,1,1,68,"U 77","","",FALSE,"CV","q",543,"cv","U","7","v","c",FALSE,0
"4811","CVOE_D",12,1,1,69,"E 12","","",TRUE,"CV","p",964,"cv","E","2","v","v",TRUE,1
"4812","CVOE_D",12,1,1,70,"I 60","","",TRUE,"CV","p",541,"cv","I","0","v","v",TRUE,1
"4813","CVOE_D",12,1,1,71,"J 36","","",FALSE,"CV","q",536,"cv","J","6","c","c",TRUE,1
"4814","CVOE_D",12,1,1,72,"H 75","","",TRUE,"CV","q",603,"cv","H","5","c","c",TRUE,1
"4815","CVOE_D",12,1,1,73,"I 50","","",TRUE,"CV","p",516,"cv","I","0","v","v",TRUE,1
"4816","CVOE_D",12,1,1,74,"E 99","","",FALSE,"CV","p",492,"cv","E","9","v","v",TRUE,1
"4817","CVOE_D",12,1,1,75,"A 86","","",TRUE,"CV","p",487,"cv","A","6","v","v",TRUE,1
"4818","CVOE_D",12,1,1,76,"U 48","","",TRUE,"CV","p",455,"cv","U","8","v","v",TRUE,1
"4819","CVOE_D",12,1,1,77,"E 01","","",FALSE,"CV","p",394,"cv","E","1","v","v",TRUE,1
"4820","CVOE_D",12,1,1,78,"A 78","","",TRUE,"CV","p",427,"cv","A","8","v","v",TRUE,1
"4821","CVOE_D",12,1,1,79,"P 60","","",FALSE,"CV","q",440,"cv","P","0","c","c",TRUE,1
"4822","CVOE_D",12,1,1,80,"E 43","","",FALSE,"CV","p",505,"cv","E","3","v","v",TRUE,1
"4823","CVOE_D",12,1,1,81,"D 69","","",TRUE,"CV","q",478,"cv","D","9","c","c",TRUE,1
"4824","CVOE_D",12,1,1,82,"H 11","","",TRUE,"CV","q",535,"cv","H","1","c","c",TRUE,1
"4825","CVOE_D",12,1,1,83,"P 43","","",TRUE,"CV","q",474,"cv","P","3","c","c",TRUE,1
"4826","CVOE_D",12,1,1,84,"O 67","","",FALSE,"CV","p",456,"cv","O","7","v","v",TRUE,1
"4827","CVOE_D",12,1,1,85,"S 91","","",FALSE,"CV","q",539,"cv","S","1","c","c",TRUE,1
"4828","CVOE_D",12,1,1,86,"J 68","","",TRUE,"CV","q",494,"cv","J","8","c","c",TRUE,1
"4829","CVOE_D",12,1,1,87,"S 47","","",FALSE,"CV","q",505,"cv","S","7","c","c",TRUE,1
"4830","CVOE_D",12,1,1,88,"I 81","","",TRUE,"CV","p",479,"cv","I","1","v","v",TRUE,1
"4831","CVOE_D",12,1,1,89,"J 39","","",FALSE,"CV","q",463,"cv","J","9","c","c",TRUE,1
"4832","CVOE_D",12,1,1,90,"A 11","","",TRUE,"CV","p",517,"cv","A","1","v","v",TRUE,1
"4833","CVOE_D",12,1,1,91,"O 76","","",FALSE,"CV","p",525,"cv","O","6","v","v",TRUE,1
"4834","CVOE_D",12,1,1,92,"A 62","","",FALSE,"CV","p",485,"cv","A","2","v","v",TRUE,1
"4835","CVOE_D",12,1,1,93,"O 27","","",TRUE,"CV","p",406,"cv","O","7","v","v",TRUE,1
"4836","CVOE_D",12,1,1,94,"E 66","","",FALSE,"CV","p",438,"cv","E","6","v","v",TRUE,1
"4837","CVOE_D",12,1,1,95,"J 62","","",TRUE,"CV","q",575,"cv","J","2","c","c",TRUE,1
"4838","CVOE_D",12,1,1,96,"H 72","","",TRUE,"CV","q",498,"cv","H","2","c","c",TRUE,1
"4839","CVOE_D",12,1,1,97,"E 49","","",TRUE,"CV","p",477,"cv","E","9","v","v",TRUE,1
"4840","CVOE_D",12,1,1,98,"D 52","","",TRUE,"CV","q",493,"cv","D","2","c","c",TRUE,1
"4841","CVOE_D",12,1,1,99,"H 62","","",TRUE,"CV","p",752,"cv","H","2","c","v",FALSE,0
"4842","CVOE_D",12,1,1,100,"I 11","","",TRUE,"CV","p",702,"cv","I","1","v","v",TRUE,1
"4843","CVOE_D",12,1,1,101,"A 98","","",FALSE,"CV","p",524,"cv","A","8","v","v",TRUE,1
"4844","CVOE_D",12,1,1,102,"H 29","","",FALSE,"CV","q",820,"cv","H","9","c","c",TRUE,1
"4845","CVOE_D",12,1,1,103,"E 83","","",TRUE,"CV","p",463,"cv","E","3","v","v",TRUE,1
"4846","CVOE_D",12,1,1,104,"D 43","","",FALSE,"CV","q",485,"cv","D","3","c","c",TRUE,1
"4847","CVOE_D",12,1,1,105,"P 45","","",TRUE,"CV","q",525,"cv","P","5","c","c",TRUE,1
"4848","CVOE_D",12,1,1,106,"J 17","","",TRUE,"CV","q",470,"cv","J","7","c","c",TRUE,1
"5185","CVOE_D",16,1,1,11,"A 71","","",FALSE,"CV","p",3638,"cv","A","1","v","v",TRUE,1
"5186","CVOE_D",16,1,1,12,"I 66","","",TRUE,"CV","p",1496,"cv","I","6","v","v",TRUE,1
"5187","CVOE_D",16,1,1,13,"S 30","","",FALSE,"CV","q",2051,"cv","S","0","c","c",TRUE,1
"5188","CVOE_D",16,1,1,14,"D 20","","",FALSE,"CV","q",687,"cv","D","0","c","c",TRUE,1
"5189","CVOE_D",16,1,1,15,"I 31","","",FALSE,"CV","p",695,"cv","I","1","v","v",TRUE,1
"5190","CVOE_D",16,1,1,16,"P 16","","",FALSE,"CV","q",618,"cv","P","6","c","c",TRUE,1
