,ExperimentName,Subject,Group,Block,Trial,STIM,letter,End Number,TASK,Switch,Congruent,CVOE,Response,KEY,Response_Coded,Key_Coded,Match,score2,RT,Match,block_type
1,CVOE updated,5,1,1,11,A 71,A,1,,,FALSE,CV,p,p,v,v,TRUE,1,2144,TRUE,cv
2,CVOE updated,5,1,1,12,I 66,I,6,,,TRUE,CV,q,p,c,v,FALSE,0,783,FALSE,cv
3,CVOE updated,5,1,1,13,S 30,S,0,,,FALSE,CV,q,q,c,c,TRUE,1,636,TRUE,cv
4,CVOE updated,5,1,1,14,D 20,D,0,,,FALSE,CV,q,q,c,c,TRUE,1,1261,TRUE,cv
5,CVOE updated,5,1,1,15,I 31,I,1,,,FALSE,CV,p,p,v,v,TRUE,1,611,TRUE,cv
6,CVOE updated,5,1,1,16,P 16,P,6,,,FALSE,CV,q,q,c,c,TRUE,1,574,TRUE,cv
7,CVOE updated,5,1,1,17,A 49,A,9,,,FALSE,CV,p,p,v,v,TRUE,1,777,TRUE,cv
8,CVOE updated,5,1,1,18,O 64,O,4,,,TRUE,CV,p,p,v,v,TRUE,1,420,TRUE,cv
9,CVOE updated,5,1,1,19,D 02,D,2,,,FALSE,CV,q,q,c,c,TRUE,1,466,TRUE,cv
10,CVOE updated,5,1,1,20,P 81,P,1,,,TRUE,CV,q,q,c,c,TRUE,1,904,TRUE,cv
11,CVOE updated,5,1,1,21,J 58,J,8,,,FALSE,CV,q,q,c,c,TRUE,1,693,TRUE,cv
12,CVOE updated,5,1,1,22,A 22,A,2,,,TRUE,CV,p,p,v,v,TRUE,1,633,TRUE,cv
13,CVOE updated,5,1,1,23,J 72,J,2,,,FALSE,CV,q,q,c,c,TRUE,1,582,TRUE,cv
14,CVOE updated,5,1,1,24,P 91,P,1,,,TRUE,CV,q,q,c,c,TRUE,1,868,TRUE,cv
15,CVOE updated,5,1,1,25,E 19,E,9,,,FALSE,CV,p,p,v,v,TRUE,1,642,TRUE,cv
16,CVOE updated,5,1,1,26,I 30,I,0,,,TRUE,CV,q,p,c,v,FALSE,0,602,FALSE,cv
17,CVOE updated,5,1,1,27,D 91,D,1,,,TRUE,CV,q,q,c,c,TRUE,1,587,TRUE,cv
18,CVOE updated,5,1,1,28,O 48,O,8,,,TRUE,CV,p,p,v,v,TRUE,1,441,TRUE,cv
19,CVOE updated,5,1,1,29,A 89,A,9,,,FALSE,CV,p,p,v,v,TRUE,1,921,TRUE,cv
20,CVOE updated,5,1,1,30,U 11,U,1,,,FALSE,CV,p,p,v,v,TRUE,1,826,TRUE,cv
21,CVOE updated,5,1,1,31,I 76,I,6,,,TRUE,CV,q,p,c,v,FALSE,0,1015,FALSE,cv
22,CVOE updated,5,1,1,32,U 89,U,9,,,FALSE,CV,p,p,v,v,TRUE,1,827,TRUE,cv
23,CVOE updated,5,1,1,33,D 63,D,3,,,TRUE,CV,q,q,c,c,TRUE,1,960,TRUE,cv
24,CVOE updated,5,1,1,34,H 70,H,0,,,FALSE,CV,q,q,c,c,TRUE,1,689,TRUE,cv
25,CVOE updated,5,1,1,35,D 48,D,8,,,FALSE,CV,q,q,c,c,TRUE,1,732,TRUE,cv
26,CVOE updated,5,1,1,36,P 56,P,6,,,FALSE,CV,q,q,c,c,TRUE,1,895,TRUE,cv
27,CVOE updated,5,1,1,37,O 77,O,7,,,FALSE,CV,p,p,v,v,TRUE,1,658,TRUE,cv
28,CVOE updated,5,1,1,38,P 42,P,2,,,FALSE,CV,q,q,c,c,TRUE,1,766,TRUE,cv
29,CVOE updated,5,1,1,39,H 22,H,2,,,FALSE,CV,q,q,c,c,TRUE,1,870,TRUE,cv
30,CVOE updated,5,1,1,40,E 42,E,2,,,TRUE,CV,p,p,v,v,TRUE,1,716,TRUE,cv
31,CVOE updated,5,1,1,41,J 28,J,8,,,FALSE,CV,q,q,c,c,TRUE,1,588,TRUE,cv
32,CVOE updated,5,1,1,42,E 95,E,5,,,FALSE,CV,p,p,v,v,TRUE,1,506,TRUE,cv
33,CVOE updated,5,1,1,43,S 63,S,3,,,TRUE,CV,q,q,c,c,TRUE,1,640,TRUE,cv
34,CVOE updated,5,1,1,44,H 50,H,0,,,FALSE,CV,q,q,c,c,TRUE,1,1032,TRUE,cv
35,CVOE updated,5,1,1,45,S 33,S,3,,,TRUE,CV,q,q,c,c,TRUE,1,470,TRUE,cv
36,CVOE updated,5,1,1,46,P 57,P,7,,,TRUE,CV,q,q,c,c,TRUE,1,836,TRUE,cv
37,CVOE updated,5,1,1,47,E 23,E,3,,,FALSE,CV,p,p,v,v,TRUE,1,828,TRUE,cv
38,CVOE updated,5,1,1,48,S 61,S,1,,,TRUE,CV,q,q,c,c,TRUE,1,1066,TRUE,cv
39,CVOE updated,5,1,1,49,U 67,U,7,,,FALSE,CV,p,p,v,v,TRUE,1,528,TRUE,cv
40,CVOE updated,5,1,1,50,H 32,H,2,,,FALSE,CV,q,q,c,c,TRUE,1,547,TRUE,cv
41,CVOE updated,5,1,1,51,U 50,U,0,,,TRUE,CV,p,p,v,v,TRUE,1,609,TRUE,cv
42,CVOE updated,5,1,1,52,O 49,O,9,,,FALSE,CV,p,p,v,v,TRUE,1,452,TRUE,cv
43,CVOE updated,5,1,1,53,U 32,U,2,,,TRUE,CV,p,p,v,v,TRUE,1,479,TRUE,cv
44,CVOE updated,5,1,1,54,J 78,J,8,,,FALSE,CV,q,q,c,c,TRUE,1,560,TRUE,cv
45,CVOE updated,5,1,1,55,S 54,S,4,,,FALSE,CV,q,q,c,c,TRUE,1,504,TRUE,cv
46,CVOE updated,5,1,1,56,J 27,J,7,,,TRUE,CV,q,q,c,c,TRUE,1,638,TRUE,cv
47,CVOE updated,5,1,1,57,S 06,S,6,,,FALSE,CV,q,q,c,c,TRUE,1,470,TRUE,cv
48,CVOE updated,5,1,1,58,D 67,D,7,,,TRUE,CV,q,q,c,c,TRUE,1,644,TRUE,cv
49,CVOE updated,5,1,1,59,A 79,A,9,,,FALSE,CV,p,p,v,v,TRUE,1,580,TRUE,cv
50,CVOE updated,5,1,1,60,S 52,S,2,,,FALSE,CV,q,q,c,c,TRUE,1,466,TRUE,cv
51,CVOE updated,5,1,1,61,U 16,U,6,,,TRUE,CV,p,p,v,v,TRUE,1,912,TRUE,cv
52,CVOE updated,5,1,1,62,O 82,O,2,,,TRUE,CV,p,p,v,v,TRUE,1,670,TRUE,cv
53,CVOE updated,5,1,1,63,H 87,H,7,,,TRUE,CV,q,q,c,c,TRUE,1,547,TRUE,cv
54,CVOE updated,5,1,1,64,I 32,I,2,,,TRUE,CV,p,p,v,v,TRUE,1,881,TRUE,cv
55,CVOE updated,5,1,1,65,U 37,U,7,,,FALSE,CV,p,p,v,v,TRUE,1,562,TRUE,cv
56,CVOE updated,5,1,1,66,I 42,I,2,,,TRUE,CV,p,p,v,v,TRUE,1,946,TRUE,cv
57,CVOE updated,5,1,1,67,D 65,D,5,,,TRUE,CV,q,q,c,c,TRUE,1,416,TRUE,cv
58,CVOE updated,5,1,1,68,U 77,U,7,,,FALSE,CV,p,p,v,v,TRUE,1,491,TRUE,cv
59,CVOE updated,5,1,1,69,E 12,E,2,,,TRUE,CV,q,p,c,v,FALSE,0,590,FALSE,cv
60,CVOE updated,5,1,1,70,I 60,I,0,,,TRUE,CV,p,p,v,v,TRUE,1,964,TRUE,cv
61,CVOE updated,5,1,1,71,J 36,J,6,,,FALSE,CV,q,q,c,c,TRUE,1,1332,TRUE,cv
62,CVOE updated,5,1,1,72,H 75,H,5,,,TRUE,CV,q,q,c,c,TRUE,1,1288,TRUE,cv
63,CVOE updated,5,1,1,73,I 50,I,0,,,TRUE,CV,q,p,c,v,FALSE,0,555,FALSE,cv
64,CVOE updated,5,1,1,74,E 99,E,9,,,FALSE,CV,p,p,v,v,TRUE,1,956,TRUE,cv
65,CVOE updated,5,1,1,75,A 86,A,6,,,TRUE,CV,q,p,c,v,FALSE,0,716,FALSE,cv
66,CVOE updated,5,1,1,76,U 48,U,8,,,TRUE,CV,p,p,v,v,TRUE,1,533,TRUE,cv
67,CVOE updated,5,1,1,77,E 01,E,1,,,FALSE,CV,p,p,v,v,TRUE,1,656,TRUE,cv
68,CVOE updated,5,1,1,78,A 78,A,8,,,TRUE,CV,q,p,c,v,FALSE,0,731,FALSE,cv
69,CVOE updated,5,1,1,79,P 60,P,0,,,FALSE,CV,q,q,c,c,TRUE,1,598,TRUE,cv
70,CVOE updated,5,1,1,80,E 43,E,3,,,FALSE,CV,p,p,v,v,TRUE,1,958,TRUE,cv
71,CVOE updated,5,1,1,81,D 69,D,9,,,TRUE,CV,q,q,c,c,TRUE,1,559,TRUE,cv
72,CVOE updated,5,1,1,82,H 11,H,1,,,TRUE,CV,q,q,c,c,TRUE,1,895,TRUE,cv
73,CVOE updated,5,1,1,83,P 43,P,3,,,TRUE,CV,q,q,c,c,TRUE,1,619,TRUE,cv
74,CVOE updated,5,1,1,84,O 67,O,7,,,FALSE,CV,p,p,v,v,TRUE,1,1134,TRUE,cv
75,CVOE updated,5,1,1,85,S 91,S,1,,,FALSE,CV,q,q,c,c,TRUE,1,505,TRUE,cv
76,CVOE updated,5,1,1,86,J 68,J,8,,,TRUE,CV,q,q,c,c,TRUE,1,647,TRUE,cv
77,CVOE updated,5,1,1,87,S 47,S,7,,,FALSE,CV,q,q,c,c,TRUE,1,762,TRUE,cv
78,CVOE updated,5,1,1,88,I 81,I,1,,,TRUE,CV,p,p,v,v,TRUE,1,690,TRUE,cv
79,CVOE updated,5,1,1,89,J 39,J,9,,,FALSE,CV,q,q,c,c,TRUE,1,621,TRUE,cv
80,CVOE updated,5,1,1,90,A 11,A,1,,,TRUE,CV,p,p,v,v,TRUE,1,811,TRUE,cv
81,CVOE updated,5,1,1,91,O 76,O,6,,,FALSE,CV,p,p,v,v,TRUE,1,510,TRUE,cv
82,CVOE updated,5,1,1,92,A 62,A,2,,,FALSE,CV,p,p,v,v,TRUE,1,1260,TRUE,cv
83,CVOE updated,5,1,1,93,O 27,O,7,,,TRUE,CV,p,p,v,v,TRUE,1,466,TRUE,cv
84,CVOE updated,5,1,1,94,E 66,E,6,,,FALSE,CV,q,p,c,v,FALSE,0,552,FALSE,cv
85,CVOE updated,5,1,1,95,J 62,J,2,,,TRUE,CV,q,q,c,c,TRUE,1,774,TRUE,cv
86,CVOE updated,5,1,1,96,H 72,H,2,,,TRUE,CV,q,q,c,c,TRUE,1,609,TRUE,cv
87,CVOE updated,5,1,1,97,E 49,E,9,,,TRUE,CV,p,p,v,v,TRUE,1,948,TRUE,cv
88,CVOE updated,5,1,1,98,D 52,D,2,,,TRUE,CV,q,q,c,c,TRUE,1,466,TRUE,cv
89,CVOE updated,5,1,1,99,H 62,H,2,,,TRUE,CV,q,q,c,c,TRUE,1,551,TRUE,cv
90,CVOE updated,5,1,1,100,I 11,I,1,,,TRUE,CV,p,p,v,v,TRUE,1,637,TRUE,cv
91,CVOE updated,5,1,1,101,A 98,A,8,,,FALSE,CV,p,p,v,v,TRUE,1,1494,TRUE,cv
92,CVOE updated,5,1,1,102,H 29,H,9,,,FALSE,CV,q,q,c,c,TRUE,1,1457,TRUE,cv
93,CVOE updated,5,1,1,103,E 83,E,3,,,TRUE,CV,p,p,v,v,TRUE,1,596,TRUE,cv
94,CVOE updated,5,1,1,104,D 43,D,3,,,FALSE,CV,q,q,c,c,TRUE,1,501,TRUE,cv
95,CVOE updated,5,1,1,105,P 45,P,5,,,TRUE,CV,q,q,c,c,TRUE,1,491,TRUE,cv
96,CVOE updated,5,1,1,106,J 17,J,7,,,TRUE,CV,q,q,c,c,TRUE,1,462,TRUE,cv
433,CVOE updated,1,1,1,11,A 71,A,1,,,FALSE,CV,p,p,v,v,TRUE,1,2421,TRUE,cv
434,CVOE updated,1,1,1,12,I 66,I,6,,,TRUE,CV,p,p,v,v,TRUE,1,717,TRUE,cv
435,CVOE updated,1,1,1,13,S 30,S,0,,,FALSE,CV,q,q,c,c,TRUE,1,566,TRUE,cv
436,CVOE updated,1,1,1,14,D 20,D,0,,,FALSE,CV,q,q,c,c,TRUE,1,868,TRUE,cv
437,CVOE updated,1,1,1,15,I 31,I,1,,,FALSE,CV,p,p,v,v,TRUE,1,550,TRUE,cv
438,CVOE updated,1,1,1,16,P 16,P,6,,,FALSE,CV,q,q,c,c,TRUE,1,731,TRUE,cv
439,CVOE updated,1,1,1,17,A 49,A,9,,,FALSE,CV,p,p,v,v,TRUE,1,784,TRUE,cv
440,CVOE updated,1,1,1,18,O 64,O,4,,,TRUE,CV,p,p,v,v,TRUE,1,1165,TRUE,cv
441,CVOE updated,1,1,1,19,D 02,D,2,,,FALSE,CV,q,q,c,c,TRUE,1,1267,TRUE,cv
442,CVOE updated,1,1,1,20,P 81,P,1,,,TRUE,CV,q,q,c,c,TRUE,1,1141,TRUE,cv
443,CVOE updated,1,1,1,21,J 58,J,8,,,FALSE,CV,q,q,c,c,TRUE,1,3512,TRUE,cv
444,CVOE updated,1,1,1,22,A 22,A,2,,,TRUE,CV,p,p,v,v,TRUE,1,492,TRUE,cv
445,CVOE updated,1,1,1,23,J 72,J,2,,,FALSE,CV,q,q,c,c,TRUE,1,599,TRUE,cv
446,CVOE updated,1,1,1,24,P 91,P,1,,,TRUE,CV,q,q,c,c,TRUE,1,590,TRUE,cv
447,CVOE updated,1,1,1,25,E 19,E,9,,,FALSE,CV,p,p,v,v,TRUE,1,666,TRUE,cv
448,CVOE updated,1,1,1,26,I 30,I,0,,,TRUE,CV,p,p,v,v,TRUE,1,710,TRUE,cv
449,CVOE updated,1,1,1,27,D 91,D,1,,,TRUE,CV,q,q,c,c,TRUE,1,515,TRUE,cv
450,CVOE updated,1,1,1,28,O 48,O,8,,,TRUE,CV,p,p,v,v,TRUE,1,823,TRUE,cv
451,CVOE updated,1,1,1,29,A 89,A,9,,,FALSE,CV,p,p,v,v,TRUE,1,545,TRUE,cv
452,CVOE updated,1,1,1,30,U 11,U,1,,,FALSE,CV,p,p,v,v,TRUE,1,736,TRUE,cv
453,CVOE updated,1,1,1,31,I 76,I,6,,,TRUE,CV,p,p,v,v,TRUE,1,608,TRUE,cv
454,CVOE updated,1,1,1,32,U 89,U,9,,,FALSE,CV,p,p,v,v,TRUE,1,978,TRUE,cv
455,CVOE updated,1,1,1,33,D 63,D,3,,,TRUE,CV,q,q,c,c,TRUE,1,482,TRUE,cv
456,CVOE updated,1,1,1,34,H 70,H,0,,,FALSE,CV,q,q,c,c,TRUE,1,795,TRUE,cv
457,CVOE updated,1,1,1,35,D 48,D,8,,,FALSE,CV,q,q,c,c,TRUE,1,585,TRUE,cv
458,CVOE updated,1,1,1,36,P 56,P,6,,,FALSE,CV,p,q,v,c,FALSE,0,520,FALSE,cv
459,CVOE updated,1,1,1,37,O 77,O,7,,,FALSE,CV,p,p,v,v,TRUE,1,1241,TRUE,cv
460,CVOE updated,1,1,1,38,P 42,P,2,,,FALSE,CV,q,q,c,c,TRUE,1,601,TRUE,cv
461,CVOE updated,1,1,1,39,H 22,H,2,,,FALSE,CV,q,q,c,c,TRUE,1,808,TRUE,cv
462,CVOE updated,1,1,1,40,E 42,E,2,,,TRUE,CV,p,p,v,v,TRUE,1,579,TRUE,cv
463,CVOE updated,1,1,1,41,J 28,J,8,,,FALSE,CV,q,q,c,c,TRUE,1,537,TRUE,cv
464,CVOE updated,1,1,1,42,E 95,E,5,,,FALSE,CV,p,p,v,v,TRUE,1,698,TRUE,cv
465,CVOE updated,1,1,1,43,S 63,S,3,,,TRUE,CV,q,q,c,c,TRUE,1,1279,TRUE,cv
466,CVOE updated,1,1,1,44,H 50,H,0,,,FALSE,CV,q,q,c,c,TRUE,1,1077,TRUE,cv
467,CVOE updated,1,1,1,45,S 33,S,3,,,TRUE,CV,q,q,c,c,TRUE,1,619,TRUE,cv
468,CVOE updated,1,1,1,46,P 57,P,7,,,TRUE,CV,q,q,c,c,TRUE,1,705,TRUE,cv
469,CVOE updated,1,1,1,47,E 23,E,3,,,FALSE,CV,p,p,v,v,TRUE,1,568,TRUE,cv
470,CVOE updated,1,1,1,48,S 61,S,1,,,TRUE,CV,q,q,c,c,TRUE,1,465,TRUE,cv
471,CVOE updated,1,1,1,49,U 67,U,7,,,FALSE,CV,p,p,v,v,TRUE,1,564,TRUE,cv
472,CVOE updated,1,1,1,50,H 32,H,2,,,FALSE,CV,q,q,c,c,TRUE,1,507,TRUE,cv
473,CVOE updated,1,1,1,51,U 50,U,0,,,TRUE,CV,p,p,v,v,TRUE,1,635,TRUE,cv
474,CVOE updated,1,1,1,52,O 49,O,9,,,FALSE,CV,p,p,v,v,TRUE,1,2704,TRUE,cv
475,CVOE updated,1,1,1,53,U 32,U,2,,,TRUE,CV,p,p,v,v,TRUE,1,865,TRUE,cv
476,CVOE updated,1,1,1,54,J 78,J,8,,,FALSE,CV,q,q,c,c,TRUE,1,523,TRUE,cv
477,CVOE updated,1,1,1,55,S 54,S,4,,,FALSE,CV,q,q,c,c,TRUE,1,577,TRUE,cv
478,CVOE updated,1,1,1,56,J 27,J,7,,,TRUE,CV,q,q,c,c,TRUE,1,680,TRUE,cv
479,CVOE updated,1,1,1,57,S 06,S,6,,,FALSE,CV,q,q,c,c,TRUE,1,387,TRUE,cv
480,CVOE updated,1,1,1,58,D 67,D,7,,,TRUE,CV,q,q,c,c,TRUE,1,411,TRUE,cv
481,CVOE updated,1,1,1,59,A 79,A,9,,,FALSE,CV,p,p,v,v,TRUE,1,500,TRUE,cv
482,CVOE updated,1,1,1,60,S 52,S,2,,,FALSE,CV,q,q,c,c,TRUE,1,490,TRUE,cv
483,CVOE updated,1,1,1,61,U 16,U,6,,,TRUE,CV,p,p,v,v,TRUE,1,1018,TRUE,cv
484,CVOE updated,1,1,1,62,O 82,O,2,,,TRUE,CV,p,p,v,v,TRUE,1,609,TRUE,cv
485,CVOE updated,1,1,1,63,H 87,H,7,,,TRUE,CV,q,q,c,c,TRUE,1,586,TRUE,cv
486,CVOE updated,1,1,1,64,I 32,I,2,,,TRUE,CV,p,p,v,v,TRUE,1,397,TRUE,cv
487,CVOE updated,1,1,1,65,U 37,U,7,,,FALSE,CV,p,p,v,v,TRUE,1,543,TRUE,cv
488,CVOE updated,1,1,1,66,I 42,I,2,,,TRUE,CV,p,p,v,v,TRUE,1,455,TRUE,cv
489,CVOE updated,1,1,1,67,D 65,D,5,,,TRUE,CV,q,q,c,c,TRUE,1,432,TRUE,cv
490,CVOE updated,1,1,1,68,U 77,U,7,,,FALSE,CV,p,p,v,v,TRUE,1,619,TRUE,cv
491,CVOE updated,1,1,1,69,E 12,E,2,,,TRUE,CV,p,p,v,v,TRUE,1,464,TRUE,cv
492,CVOE updated,1,1,1,70,I 60,I,0,,,TRUE,CV,p,p,v,v,TRUE,1,490,TRUE,cv
493,CVOE updated,1,1,1,71,J 36,J,6,,,FALSE,CV,q,q,c,c,TRUE,1,545,TRUE,cv
494,CVOE updated,1,1,1,72,H 75,H,5,,,TRUE,CV,q,q,c,c,TRUE,1,2057,TRUE,cv
495,CVOE updated,1,1,1,73,I 50,I,0,,,TRUE,CV,p,p,v,v,TRUE,1,504,TRUE,cv
496,CVOE updated,1,1,1,74,E 99,E,9,,,FALSE,CV,p,p,v,v,TRUE,1,771,TRUE,cv
497,CVOE updated,1,1,1,75,A 86,A,6,,,TRUE,CV,p,p,v,v,TRUE,1,596,TRUE,cv
498,CVOE updated,1,1,1,76,U 48,U,8,,,TRUE,CV,p,p,v,v,TRUE,1,514,TRUE,cv
499,CVOE updated,1,1,1,77,E 01,E,1,,,FALSE,CV,p,p,v,v,TRUE,1,468,TRUE,cv
500,CVOE updated,1,1,1,78,A 78,A,8,,,TRUE,CV,p,p,v,v,TRUE,1,356,TRUE,cv
501,CVOE updated,1,1,1,79,P 60,P,0,,,FALSE,CV,q,q,c,c,TRUE,1,500,TRUE,cv
502,CVOE updated,1,1,1,80,E 43,E,3,,,FALSE,CV,p,p,v,v,TRUE,1,662,TRUE,cv
503,CVOE updated,1,1,1,81,D 69,D,9,,,TRUE,CV,q,q,c,c,TRUE,1,627,TRUE,cv
504,CVOE updated,1,1,1,82,H 11,H,1,,,TRUE,CV,q,q,c,c,TRUE,1,634,TRUE,cv
505,CVOE updated,1,1,1,83,P 43,P,3,,,TRUE,CV,q,q,c,c,TRUE,1,568,TRUE,cv
506,CVOE updated,1,1,1,84,O 67,O,7,,,FALSE,CV,p,p,v,v,TRUE,1,433,TRUE,cv
507,CVOE updated,1,1,1,85,S 91,S,1,,,FALSE,CV,q,q,c,c,TRUE,1,533,TRUE,cv
508,CVOE updated,1,1,1,86,J 68,J,8,,,TRUE,CV,q,q,c,c,TRUE,1,674,TRUE,cv
509,CVOE updated,1,1,1,87,S 47,S,7,,,FALSE,CV,q,q,c,c,TRUE,1,443,TRUE,cv
510,CVOE updated,1,1,1,88,I 81,I,1,,,TRUE,CV,p,p,v,v,TRUE,1,478,TRUE,cv
511,CVOE updated,1,1,1,89,J 39,J,9,,,FALSE,CV,q,q,c,c,TRUE,1,483,TRUE,cv
512,CVOE updated,1,1,1,90,A 11,A,1,,,TRUE,CV,p,p,v,v,TRUE,1,454,TRUE,cv
513,CVOE updated,1,1,1,91,O 76,O,6,,,FALSE,CV,p,p,v,v,TRUE,1,726,TRUE,cv
514,CVOE updated,1,1,1,92,A 62,A,2,,,FALSE,CV,p,p,v,v,TRUE,1,563,TRUE,cv
515,CVOE updated,1,1,1,93,O 27,O,7,,,TRUE,CV,p,p,v,v,TRUE,1,554,TRUE,cv
516,CVOE updated,1,1,1,94,E 66,E,6,,,FALSE,CV,p,p,v,v,TRUE,1,653,TRUE,cv
517,CVOE updated,1,1,1,95,J 62,J,2,,,TRUE,CV,q,q,c,c,TRUE,1,924,TRUE,cv
518,CVOE updated,1,1,1,96,H 72,H,2,,,TRUE,CV,q,q,c,c,TRUE,1,541,TRUE,cv
519,CVOE updated,1,1,1,97,E 49,E,9,,,TRUE,CV,p,p,v,v,TRUE,1,575,TRUE,cv
520,CVOE updated,1,1,1,98,D 52,D,2,,,TRUE,CV,q,q,c,c,TRUE,1,754,TRUE,cv
521,CVOE updated,1,1,1,99,H 62,H,2,,,TRUE,CV,q,q,c,c,TRUE,1,633,TRUE,cv
522,CVOE updated,1,1,1,100,I 11,I,1,,,TRUE,CV,p,p,v,v,TRUE,1,544,TRUE,cv
523,CVOE updated,1,1,1,101,A 98,A,8,,,FALSE,CV,p,p,v,v,TRUE,1,588,TRUE,cv
524,CVOE updated,1,1,1,102,H 29,H,9,,,FALSE,CV,q,q,c,c,TRUE,1,516,TRUE,cv
525,CVOE updated,1,1,1,103,E 83,E,3,,,TRUE,CV,p,p,v,v,TRUE,1,544,TRUE,cv
526,CVOE updated,1,1,1,104,D 43,D,3,,,FALSE,CV,q,q,c,c,TRUE,1,919,TRUE,cv
527,CVOE updated,1,1,1,105,P 45,P,5,,,TRUE,CV,q,q,c,c,TRUE,1,658,TRUE,cv
528,CVOE updated,1,1,1,106,J 17,J,7,,,TRUE,CV,q,q,c,c,TRUE,1,504,TRUE,cv
865,CVOE updated,9,1,1,11,A 71,A,1,,,FALSE,CV,p,p,v,v,TRUE,1,1803,TRUE,cv
866,CVOE updated,9,1,1,12,I 66,I,6,,,TRUE,CV,p,p,v,v,TRUE,1,612,TRUE,cv
867,CVOE updated,9,1,1,13,S 30,S,0,,,FALSE,CV,q,q,c,c,TRUE,1,487,TRUE,cv
868,CVOE updated,9,1,1,14,D 20,D,0,,,FALSE,CV,q,q,c,c,TRUE,1,571,TRUE,cv
869,CVOE updated,9,1,1,15,I 31,I,1,,,FALSE,CV,p,p,v,v,TRUE,1,526,TRUE,cv
870,CVOE updated,9,1,1,16,P 16,P,6,,,FALSE,CV,q,q,c,c,TRUE,1,590,TRUE,cv
871,CVOE updated,9,1,1,17,A 49,A,9,,,FALSE,CV,p,p,v,v,TRUE,1,524,TRUE,cv
872,CVOE updated,9,1,1,18,O 64,O,4,,,TRUE,CV,p,p,v,v,TRUE,1,612,TRUE,cv
873,CVOE updated,9,1,1,19,D 02,D,2,,,FALSE,CV,q,q,c,c,TRUE,1,471,TRUE,cv
874,CVOE updated,9,1,1,20,P 81,P,1,,,TRUE,CV,q,q,c,c,TRUE,1,765,TRUE,cv
875,CVOE updated,9,1,1,21,J 58,J,8,,,FALSE,CV,q,q,c,c,TRUE,1,749,TRUE,cv
876,CVOE updated,9,1,1,22,A 22,A,2,,,TRUE,CV,p,p,v,v,TRUE,1,475,TRUE,cv
877,CVOE updated,9,1,1,23,J 72,J,2,,,FALSE,CV,q,q,c,c,TRUE,1,532,TRUE,cv
878,CVOE updated,9,1,1,24,P 91,P,1,,,TRUE,CV,q,q,c,c,TRUE,1,535,TRUE,cv
879,CVOE updated,9,1,1,25,E 19,E,9,,,FALSE,CV,p,p,v,v,TRUE,1,450,TRUE,cv
880,CVOE updated,9,1,1,26,I 30,I,0,,,TRUE,CV,p,p,v,v,TRUE,1,453,TRUE,cv
881,CVOE updated,9,1,1,27,D 91,D,1,,,TRUE,CV,q,q,c,c,TRUE,1,488,TRUE,cv
882,CVOE updated,9,1,1,28,O 48,O,8,,,TRUE,CV,p,p,v,v,TRUE,1,531,TRUE,cv
883,CVOE updated,9,1,1,29,A 89,A,9,,,FALSE,CV,p,p,v,v,TRUE,1,566,TRUE,cv
884,CVOE updated,9,1,1,30,U 11,U,1,,,FALSE,CV,p,p,v,v,TRUE,1,542,TRUE,cv
885,CVOE updated,9,1,1,31,I 76,I,6,,,TRUE,CV,p,p,v,v,TRUE,1,420,TRUE,cv
886,CVOE updated,9,1,1,32,U 89,U,9,,,FALSE,CV,p,p,v,v,TRUE,1,450,TRUE,cv
887,CVOE updated,9,1,1,33,D 63,D,3,,,TRUE,CV,q,q,c,c,TRUE,1,461,TRUE,cv
888,CVOE updated,9,1,1,34,H 70,H,0,,,FALSE,CV,q,q,c,c,TRUE,1,475,TRUE,cv
889,CVOE updated,9,1,1,35,D 48,D,8,,,FALSE,CV,q,q,c,c,TRUE,1,451,TRUE,cv
890,CVOE updated,9,1,1,36,P 56,P,6,,,FALSE,CV,q,q,c,c,TRUE,1,502,TRUE,cv
891,CVOE updated,9,1,1,37,O 77,O,7,,,FALSE,CV,p,p,v,v,TRUE,1,444,TRUE,cv
892,CVOE updated,9,1,1,38,P 42,P,2,,,FALSE,CV,q,q,c,c,TRUE,1,756,TRUE,cv
893,CVOE updated,9,1,1,39,H 22,H,2,,,FALSE,CV,q,q,c,c,TRUE,1,693,TRUE,cv
894,CVOE updated,9,1,1,40,E 42,E,2,,,TRUE,CV,p,p,v,v,TRUE,1,344,TRUE,cv
895,CVOE updated,9,1,1,41,J 28,J,8,,,FALSE,CV,q,q,c,c,TRUE,1,1029,TRUE,cv
896,CVOE updated,9,1,1,42,E 95,E,5,,,FALSE,CV,p,p,v,v,TRUE,1,595,TRUE,cv
897,CVOE updated,9,1,1,43,S 63,S,3,,,TRUE,CV,q,q,c,c,TRUE,1,508,TRUE,cv
898,CVOE updated,9,1,1,44,H 50,H,0,,,FALSE,CV,q,q,c,c,TRUE,1,449,TRUE,cv
899,CVOE updated,9,1,1,45,S 33,S,3,,,TRUE,CV,q,q,c,c,TRUE,1,476,TRUE,cv
900,CVOE updated,9,1,1,46,P 57,P,7,,,TRUE,CV,q,q,c,c,TRUE,1,541,TRUE,cv
901,CVOE updated,9,1,1,47,E 23,E,3,,,FALSE,CV,p,p,v,v,TRUE,1,459,TRUE,cv
902,CVOE updated,9,1,1,48,S 61,S,1,,,TRUE,CV,q,q,c,c,TRUE,1,422,TRUE,cv
903,CVOE updated,9,1,1,49,U 67,U,7,,,FALSE,CV,p,p,v,v,TRUE,1,515,TRUE,cv
904,CVOE updated,9,1,1,50,H 32,H,2,,,FALSE,CV,q,q,c,c,TRUE,1,540,TRUE,cv
905,CVOE updated,9,1,1,51,U 50,U,0,,,TRUE,CV,p,p,v,v,TRUE,1,575,TRUE,cv
906,CVOE updated,9,1,1,52,O 49,O,9,,,FALSE,CV,p,p,v,v,TRUE,1,554,TRUE,cv
907,CVOE updated,9,1,1,53,U 32,U,2,,,TRUE,CV,p,p,v,v,TRUE,1,530,TRUE,cv
908,CVOE updated,9,1,1,54,J 78,J,8,,,FALSE,CV,q,q,c,c,TRUE,1,509,TRUE,cv
909,CVOE updated,9,1,1,55,S 54,S,4,,,FALSE,CV,q,q,c,c,TRUE,1,571,TRUE,cv
910,CVOE updated,9,1,1,56,J 27,J,7,,,TRUE,CV,q,q,c,c,TRUE,1,550,TRUE,cv
911,CVOE updated,9,1,1,57,S 06,S,6,,,FALSE,CV,q,q,c,c,TRUE,1,612,TRUE,cv
912,CVOE updated,9,1,1,58,D 67,D,7,,,TRUE,CV,q,q,c,c,TRUE,1,487,TRUE,cv
913,CVOE updated,9,1,1,59,A 79,A,9,,,FALSE,CV,p,p,v,v,TRUE,1,482,TRUE,cv
914,CVOE updated,9,1,1,60,S 52,S,2,,,FALSE,CV,q,q,c,c,TRUE,1,498,TRUE,cv
915,CVOE updated,9,1,1,61,U 16,U,6,,,TRUE,CV,p,p,v,v,TRUE,1,526,TRUE,cv
916,CVOE updated,9,1,1,62,O 82,O,2,,,TRUE,CV,p,p,v,v,TRUE,1,430,TRUE,cv
917,CVOE updated,9,1,1,63,H 87,H,7,,,TRUE,CV,q,q,c,c,TRUE,1,516,TRUE,cv
918,CVOE updated,9,1,1,64,I 32,I,2,,,TRUE,CV,p,p,v,v,TRUE,1,372,TRUE,cv
919,CVOE updated,9,1,1,65,U 37,U,7,,,FALSE,CV,p,p,v,v,TRUE,1,455,TRUE,cv
920,CVOE updated,9,1,1,66,I 42,I,2,,,TRUE,CV,p,p,v,v,TRUE,1,466,TRUE,cv
921,CVOE updated,9,1,1,67,D 65,D,5,,,TRUE,CV,q,q,c,c,TRUE,1,400,TRUE,cv
922,CVOE updated,9,1,1,68,U 77,U,7,,,FALSE,CV,p,p,v,v,TRUE,1,472,TRUE,cv
923,CVOE updated,9,1,1,69,E 12,E,2,,,TRUE,CV,p,p,v,v,TRUE,1,462,TRUE,cv
924,CVOE updated,9,1,1,70,I 60,I,0,,,TRUE,CV,p,p,v,v,TRUE,1,452,TRUE,cv
925,CVOE updated,9,1,1,71,J 36,J,6,,,FALSE,CV,q,q,c,c,TRUE,1,423,TRUE,cv
926,CVOE updated,9,1,1,72,H 75,H,5,,,TRUE,CV,q,q,c,c,TRUE,1,492,TRUE,cv
927,CVOE updated,9,1,1,73,I 50,I,0,,,TRUE,CV,p,p,v,v,TRUE,1,535,TRUE,cv
928,CVOE updated,9,1,1,74,E 99,E,9,,,FALSE,CV,p,p,v,v,TRUE,1,450,TRUE,cv
929,CVOE updated,9,1,1,75,A 86,A,6,,,TRUE,CV,p,p,v,v,TRUE,1,437,TRUE,cv
930,CVOE updated,9,1,1,76,U 48,U,8,,,TRUE,CV,p,p,v,v,TRUE,1,510,TRUE,cv
931,CVOE updated,9,1,1,77,E 01,E,1,,,FALSE,CV,p,p,v,v,TRUE,1,484,TRUE,cv
932,CVOE updated,9,1,1,78,A 78,A,8,,,TRUE,CV,p,p,v,v,TRUE,1,444,TRUE,cv
933,CVOE updated,9,1,1,79,P 60,P,0,,,FALSE,CV,q,q,c,c,TRUE,1,468,TRUE,cv
934,CVOE updated,9,1,1,80,E 43,E,3,,,FALSE,CV,p,p,v,v,TRUE,1,458,TRUE,cv
935,CVOE updated,9,1,1,81,D 69,D,9,,,TRUE,CV,q,q,c,c,TRUE,1,413,TRUE,cv
936,CVOE updated,9,1,1,82,H 11,H,1,,,TRUE,CV,q,q,c,c,TRUE,1,520,TRUE,cv
937,CVOE updated,9,1,1,83,P 43,P,3,,,TRUE,CV,q,q,c,c,TRUE,1,1016,TRUE,cv
938,CVOE updated,9,1,1,84,O 67,O,7,,,FALSE,CV,p,p,v,v,TRUE,1,484,TRUE,cv
939,CVOE updated,9,1,1,85,S 91,S,1,,,FALSE,CV,q,q,c,c,TRUE,1,476,TRUE,cv
940,CVOE updated,9,1,1,86,J 68,J,8,,,TRUE,CV,q,q,c,c,TRUE,1,444,TRUE,cv
941,CVOE updated,9,1,1,87,S 47,S,7,,,FALSE,CV,q,q,c,c,TRUE,1,501,TRUE,cv
942,CVOE updated,9,1,1,88,I 81,I,1,,,TRUE,CV,p,p,v,v,TRUE,1,499,TRUE,cv
943,CVOE updated,9,1,1,89,J 39,J,9,,,FALSE,CV,q,q,c,c,TRUE,1,438,TRUE,cv
944,CVOE updated,9,1,1,90,A 11,A,1,,,TRUE,CV,p,p,v,v,TRUE,1,526,TRUE,cv
945,CVOE updated,9,1,1,91,O 76,O,6,,,FALSE,CV,p,p,v,v,TRUE,1,398,TRUE,cv
946,CVOE updated,9,1,1,92,A 62,A,2,,,FALSE,CV,p,p,v,v,TRUE,1,415,TRUE,cv
947,CVOE updated,9,1,1,93,O 27,O,7,,,TRUE,CV,p,p,v,v,TRUE,1,394,TRUE,cv
948,CVOE updated,9,1,1,94,E 66,E,6,,,FALSE,CV,p,p,v,v,TRUE,1,466,TRUE,cv
949,CVOE updated,9,1,1,95,J 62,J,2,,,TRUE,CV,q,q,c,c,TRUE,1,448,TRUE,cv
950,CVOE updated,9,1,1,96,H 72,H,2,,,TRUE,CV,q,q,c,c,TRUE,1,507,TRUE,cv
951,CVOE updated,9,1,1,97,E 49,E,9,,,TRUE,CV,p,p,v,v,TRUE,1,417,TRUE,cv
952,CVOE updated,9,1,1,98,D 52,D,2,,,TRUE,CV,q,q,c,c,TRUE,1,460,TRUE,cv
953,CVOE updated,9,1,1,99,H 62,H,2,,,TRUE,CV,q,q,c,c,TRUE,1,383,TRUE,cv
954,CVOE updated,9,1,1,100,I 11,I,1,,,TRUE,CV,p,p,v,v,TRUE,1,372,TRUE,cv
955,CVOE updated,9,1,1,101,A 98,A,8,,,FALSE,CV,p,p,v,v,TRUE,1,367,TRUE,cv
956,CVOE updated,9,1,1,102,H 29,H,9,,,FALSE,CV,q,q,c,c,TRUE,1,426,TRUE,cv
957,CVOE updated,9,1,1,103,E 83,E,3,,,TRUE,CV,p,p,v,v,TRUE,1,488,TRUE,cv
958,CVOE updated,9,1,1,104,D 43,D,3,,,FALSE,CV,q,q,c,c,TRUE,1,459,TRUE,cv
959,CVOE updated,9,1,1,105,P 45,P,5,,,TRUE,CV,q,q,c,c,TRUE,1,502,TRUE,cv
960,CVOE updated,9,1,1,106,J 17,J,7,,,TRUE,CV,q,q,c,c,TRUE,1,420,TRUE,cv
1393,CVOE_B,2,1,2,11,A 71,A,1,,,FALSE,CV,p,p,v,v,TRUE,1,1063,TRUE,cv
1394,CVOE_B,2,1,2,12,I 66,I,6,,,TRUE,CV,p,p,v,v,TRUE,1,574,TRUE,cv
1395,CVOE_B,2,1,2,13,S 30,S,0,,,FALSE,CV,q,q,c,c,TRUE,1,481,TRUE,cv
1396,CVOE_B,2,1,2,14,D 20,D,0,,,FALSE,CV,q,q,c,c,TRUE,1,577,TRUE,cv
1397,CVOE_B,2,1,2,15,I 31,I,1,,,FALSE,CV,p,p,v,v,TRUE,1,621,TRUE,cv
1398,CVOE_B,2,1,2,16,P 16,P,6,,,FALSE,CV,q,q,c,c,TRUE,1,706,TRUE,cv
1399,CVOE_B,2,1,2,17,A 49,A,9,,,FALSE,CV,p,p,v,v,TRUE,1,583,TRUE,cv
1400,CVOE_B,2,1,2,18,O 64,O,4,,,TRUE,CV,p,p,v,v,TRUE,1,1661,TRUE,cv
1401,CVOE_B,2,1,2,19,D 02,D,2,,,FALSE,CV,q,q,c,c,TRUE,1,580,TRUE,cv
1402,CVOE_B,2,1,2,20,P 81,P,1,,,TRUE,CV,q,q,c,c,TRUE,1,1006,TRUE,cv
1403,CVOE_B,2,1,2,21,J 58,J,8,,,FALSE,CV,q,q,c,c,TRUE,1,537,TRUE,cv
1404,CVOE_B,2,1,2,22,A 22,A,2,,,TRUE,CV,p,p,v,v,TRUE,1,572,TRUE,cv
1405,CVOE_B,2,1,2,23,J 72,J,2,,,FALSE,CV,q,q,c,c,TRUE,1,505,TRUE,cv
1406,CVOE_B,2,1,2,24,P 91,P,1,,,TRUE,CV,q,q,c,c,TRUE,1,485,TRUE,cv
1407,CVOE_B,2,1,2,25,E 19,E,9,,,FALSE,CV,p,p,v,v,TRUE,1,414,TRUE,cv
1408,CVOE_B,2,1,2,26,I 30,I,0,,,TRUE,CV,p,p,v,v,TRUE,1,585,TRUE,cv
1409,CVOE_B,2,1,2,27,D 91,D,1,,,TRUE,CV,q,q,c,c,TRUE,1,414,TRUE,cv
1410,CVOE_B,2,1,2,28,O 48,O,8,,,TRUE,CV,p,p,v,v,TRUE,1,401,TRUE,cv
1411,CVOE_B,2,1,2,29,A 89,A,9,,,FALSE,CV,p,p,v,v,TRUE,1,578,TRUE,cv
1412,CVOE_B,2,1,2,30,U 11,U,1,,,FALSE,CV,p,p,v,v,TRUE,1,606,TRUE,cv
1413,CVOE_B,2,1,2,31,I 76,I,6,,,TRUE,CV,p,p,v,v,TRUE,1,485,TRUE,cv
1414,CVOE_B,2,1,2,32,U 89,U,9,,,FALSE,CV,p,p,v,v,TRUE,1,431,TRUE,cv
1415,CVOE_B,2,1,2,33,D 63,D,3,,,TRUE,CV,q,q,c,c,TRUE,1,443,TRUE,cv
1416,CVOE_B,2,1,2,34,H 70,H,0,,,FALSE,CV,q,q,c,c,TRUE,1,564,TRUE,cv
1417,CVOE_B,2,1,2,35,D 48,D,8,,,FALSE,CV,q,q,c,c,TRUE,1,508,TRUE,cv
1418,CVOE_B,2,1,2,36,P 56,P,6,,,FALSE,CV,q,q,c,c,TRUE,1,498,TRUE,cv
1419,CVOE_B,2,1,2,37,O 77,O,7,,,FALSE,CV,p,p,v,v,TRUE,1,445,TRUE,cv
1420,CVOE_B,2,1,2,38,P 42,P,2,,,FALSE,CV,q,q,c,c,TRUE,1,461,TRUE,cv
1421,CVOE_B,2,1,2,39,H 22,H,2,,,FALSE,CV,q,q,c,c,TRUE,1,443,TRUE,cv
1422,CVOE_B,2,1,2,40,E 42,E,2,,,TRUE,CV,p,p,v,v,TRUE,1,491,TRUE,cv
1423,CVOE_B,2,1,2,41,J 28,J,8,,,FALSE,CV,q,q,c,c,TRUE,1,663,TRUE,cv
1424,CVOE_B,2,1,2,42,E 95,E,5,,,FALSE,CV,p,p,v,v,TRUE,1,692,TRUE,cv
1425,CVOE_B,2,1,2,43,S 63,S,3,,,TRUE,CV,q,q,c,c,TRUE,1,559,TRUE,cv
1426,CVOE_B,2,1,2,44,H 50,H,0,,,FALSE,CV,q,q,c,c,TRUE,1,480,TRUE,cv
1427,CVOE_B,2,1,2,45,S 33,S,3,,,TRUE,CV,q,q,c,c,TRUE,1,408,TRUE,cv
1428,CVOE_B,2,1,2,46,P 57,P,7,,,TRUE,CV,q,q,c,c,TRUE,1,459,TRUE,cv
1429,CVOE_B,2,1,2,47,E 23,E,3,,,FALSE,CV,p,p,v,v,TRUE,1,543,TRUE,cv
1430,CVOE_B,2,1,2,48,S 61,S,1,,,TRUE,CV,q,q,c,c,TRUE,1,549,TRUE,cv
1431,CVOE_B,2,1,2,49,U 67,U,7,,,FALSE,CV,p,p,v,v,TRUE,1,602,TRUE,cv
1432,CVOE_B,2,1,2,50,H 32,H,2,,,FALSE,CV,q,q,c,c,TRUE,1,467,TRUE,cv
1433,CVOE_B,2,1,2,51,U 50,U,0,,,TRUE,CV,p,p,v,v,TRUE,1,593,TRUE,cv
1434,CVOE_B,2,1,2,52,O 49,O,9,,,FALSE,CV,p,p,v,v,TRUE,1,542,TRUE,cv
1435,CVOE_B,2,1,2,53,U 32,U,2,,,TRUE,CV,p,p,v,v,TRUE,1,516,TRUE,cv
1436,CVOE_B,2,1,2,54,J 78,J,8,,,FALSE,CV,q,q,c,c,TRUE,1,477,TRUE,cv
1437,CVOE_B,2,1,2,55,S 54,S,4,,,FALSE,CV,q,q,c,c,TRUE,1,500,TRUE,cv
1438,CVOE_B,2,1,2,56,J 27,J,7,,,TRUE,CV,q,q,c,c,TRUE,1,491,TRUE,cv
1439,CVOE_B,2,1,2,57,S 06,S,6,,,FALSE,CV,q,q,c,c,TRUE,1,437,TRUE,cv
1440,CVOE_B,2,1,2,58,D 67,D,7,,,TRUE,CV,q,q,c,c,TRUE,1,421,TRUE,cv
1441,CVOE_B,2,1,2,59,A 79,A,9,,,FALSE,CV,p,p,v,v,TRUE,1,563,TRUE,cv
1442,CVOE_B,2,1,2,60,S 52,S,2,,,FALSE,CV,q,q,c,c,TRUE,1,556,TRUE,cv
1443,CVOE_B,2,1,2,61,U 16,U,6,,,TRUE,CV,p,p,v,v,TRUE,1,581,TRUE,cv
1444,CVOE_B,2,1,2,62,O 82,O,2,,,TRUE,CV,p,p,v,v,TRUE,1,577,TRUE,cv
1445,CVOE_B,2,1,2,63,H 87,H,7,,,TRUE,CV,q,q,c,c,TRUE,1,582,TRUE,cv
1446,CVOE_B,2,1,2,64,I 32,I,2,,,TRUE,CV,p,p,v,v,TRUE,1,610,TRUE,cv
1447,CVOE_B,2,1,2,65,U 37,U,7,,,FALSE,CV,q,p,c,v,FALSE,0,598,FALSE,cv
1448,CVOE_B,2,1,2,66,I 42,I,2,,,TRUE,CV,p,p,v,v,TRUE,1,743,TRUE,cv
1449,CVOE_B,2,1,2,67,D 65,D,5,,,TRUE,CV,q,q,c,c,TRUE,1,517,TRUE,cv
1450,CVOE_B,2,1,2,68,U 77,U,7,,,FALSE,CV,q,p,c,v,FALSE,0,549,FALSE,cv
1451,CVOE_B,2,1,2,69,E 12,E,2,,,TRUE,CV,p,p,v,v,TRUE,1,530,TRUE,cv
1452,CVOE_B,2,1,2,70,I 60,I,0,,,TRUE,CV,p,p,v,v,TRUE,1,605,TRUE,cv
1453,CVOE_B,2,1,2,71,J 36,J,6,,,FALSE,CV,q,q,c,c,TRUE,1,542,TRUE,cv
1454,CVOE_B,2,1,2,72,H 75,H,5,,,TRUE,CV,q,q,c,c,TRUE,1,724,TRUE,cv
1455,CVOE_B,2,1,2,73,I 50,I,0,,,TRUE,CV,p,p,v,v,TRUE,1,588,TRUE,cv
1456,CVOE_B,2,1,2,74,E 99,E,9,,,FALSE,CV,p,p,v,v,TRUE,1,706,TRUE,cv
1457,CVOE_B,2,1,2,75,A 86,A,6,,,TRUE,CV,p,p,v,v,TRUE,1,527,TRUE,cv
1458,CVOE_B,2,1,2,76,U 48,U,8,,,TRUE,CV,p,p,v,v,TRUE,1,522,TRUE,cv
1459,CVOE_B,2,1,2,77,E 01,E,1,,,FALSE,CV,p,p,v,v,TRUE,1,468,TRUE,cv
1460,CVOE_B,2,1,2,78,A 78,A,8,,,TRUE,CV,p,p,v,v,TRUE,1,449,TRUE,cv
1461,CVOE_B,2,1,2,79,P 60,P,0,,,FALSE,CV,q,q,c,c,TRUE,1,476,TRUE,cv
1462,CVOE_B,2,1,2,80,E 43,E,3,,,FALSE,CV,p,p,v,v,TRUE,1,780,TRUE,cv
1463,CVOE_B,2,1,2,81,D 69,D,9,,,TRUE,CV,q,q,c,c,TRUE,1,538,TRUE,cv
1464,CVOE_B,2,1,2,82,H 11,H,1,,,TRUE,CV,q,q,c,c,TRUE,1,605,TRUE,cv
1465,CVOE_B,2,1,2,83,P 43,P,3,,,TRUE,CV,q,q,c,c,TRUE,1,830,TRUE,cv
1466,CVOE_B,2,1,2,84,O 67,O,7,,,FALSE,CV,p,p,v,v,TRUE,1,508,TRUE,cv
1467,CVOE_B,2,1,2,85,S 91,S,1,,,FALSE,CV,q,q,c,c,TRUE,1,497,TRUE,cv
1468,CVOE_B,2,1,2,86,J 68,J,8,,,TRUE,CV,q,q,c,c,TRUE,1,588,TRUE,cv
1469,CVOE_B,2,1,2,87,S 47,S,7,,,FALSE,CV,q,q,c,c,TRUE,1,497,TRUE,cv
1470,CVOE_B,2,1,2,88,I 81,I,1,,,TRUE,CV,p,p,v,v,TRUE,1,548,TRUE,cv
1471,CVOE_B,2,1,2,89,J 39,J,9,,,FALSE,CV,q,q,c,c,TRUE,1,443,TRUE,cv
1472,CVOE_B,2,1,2,90,A 11,A,1,,,TRUE,CV,p,p,v,v,TRUE,1,564,TRUE,cv
1473,CVOE_B,2,1,2,91,O 76,O,6,,,FALSE,CV,p,p,v,v,TRUE,1,540,TRUE,cv
1474,CVOE_B,2,1,2,92,A 62,A,2,,,FALSE,CV,p,p,v,v,TRUE,1,543,TRUE,cv
1475,CVOE_B,2,1,2,93,O 27,O,7,,,TRUE,CV,p,p,v,v,TRUE,1,541,TRUE,cv
1476,CVOE_B,2,1,2,94,E 66,E,6,,,FALSE,CV,p,p,v,v,TRUE,1,481,TRUE,cv
1477,CVOE_B,2,1,2,95,J 62,J,2,,,TRUE,CV,q,q,c,c,TRUE,1,459,TRUE,cv
1478,CVOE_B,2,1,2,96,H 72,H,2,,,TRUE,CV,q,q,c,c,TRUE,1,565,TRUE,cv
1479,CVOE_B,2,1,2,97,E 49,E,9,,,TRUE,CV,p,p,v,v,TRUE,1,750,TRUE,cv
1480,CVOE_B,2,1,2,98,D 52,D,2,,,TRUE,CV,q,q,c,c,TRUE,1,1780,TRUE,cv
1481,CVOE_B,2,1,2,99,H 62,H,2,,,TRUE,CV,q,q,c,c,TRUE,1,482,TRUE,cv
1482,CVOE_B,2,1,2,100,I 11,I,1,,,TRUE,CV,p,p,v,v,TRUE,1,507,TRUE,cv
1483,CVOE_B,2,1,2,101,A 98,A,8,,,FALSE,CV,p,p,v,v,TRUE,1,472,TRUE,cv
1484,CVOE_B,2,1,2,102,H 29,H,9,,,FALSE,CV,q,q,c,c,TRUE,1,557,TRUE,cv
1485,CVOE_B,2,1,2,103,E 83,E,3,,,TRUE,CV,p,p,v,v,TRUE,1,502,TRUE,cv
1486,CVOE_B,2,1,2,104,D 43,D,3,,,FALSE,CV,q,q,c,c,TRUE,1,548,TRUE,cv
1487,CVOE_B,2,1,2,105,P 45,P,5,,,TRUE,CV,q,q,c,c,TRUE,1,634,TRUE,cv
1488,CVOE_B,2,1,2,106,J 17,J,7,,,TRUE,CV,q,q,c,c,TRUE,1,481,TRUE,cv
1825,CVOE_B,10,1,2,11,A 71,A,1,,,FALSE,CV,p,p,v,v,TRUE,1,1228,TRUE,cv
1826,CVOE_B,10,1,2,12,I 66,I,6,,,TRUE,CV,p,p,v,v,TRUE,1,930,TRUE,cv
1827,CVOE_B,10,1,2,13,S 30,S,0,,,FALSE,CV,q,q,c,c,TRUE,1,950,TRUE,cv
1828,CVOE_B,10,1,2,14,D 20,D,0,,,FALSE,CV,q,q,c,c,TRUE,1,643,TRUE,cv
1829,CVOE_B,10,1,2,15,I 31,I,1,,,FALSE,CV,p,p,v,v,TRUE,1,732,TRUE,cv
1830,CVOE_B,10,1,2,16,P 16,P,6,,,FALSE,CV,q,q,c,c,TRUE,1,1455,TRUE,cv
1831,CVOE_B,10,1,2,17,A 49,A,9,,,FALSE,CV,p,p,v,v,TRUE,1,658,TRUE,cv
1832,CVOE_B,10,1,2,18,O 64,O,4,,,TRUE,CV,p,p,v,v,TRUE,1,758,TRUE,cv
1833,CVOE_B,10,1,2,19,D 02,D,2,,,FALSE,CV,q,q,c,c,TRUE,1,694,TRUE,cv
1834,CVOE_B,10,1,2,20,P 81,P,1,,,TRUE,CV,p,q,v,c,FALSE,0,577,FALSE,cv
1835,CVOE_B,10,1,2,21,J 58,J,8,,,FALSE,CV,q,q,c,c,TRUE,1,1428,TRUE,cv
1836,CVOE_B,10,1,2,22,A 22,A,2,,,TRUE,CV,p,p,v,v,TRUE,1,610,TRUE,cv
1837,CVOE_B,10,1,2,23,J 72,J,2,,,FALSE,CV,q,q,c,c,TRUE,1,533,TRUE,cv
1838,CVOE_B,10,1,2,24,P 91,P,1,,,TRUE,CV,q,q,c,c,TRUE,1,696,TRUE,cv
1839,CVOE_B,10,1,2,25,E 19,E,9,,,FALSE,CV,p,p,v,v,TRUE,1,780,TRUE,cv
1840,CVOE_B,10,1,2,26,I 30,I,0,,,TRUE,CV,p,p,v,v,TRUE,1,1223,TRUE,cv
1841,CVOE_B,10,1,2,27,D 91,D,1,,,TRUE,CV,q,q,c,c,TRUE,1,557,TRUE,cv
1842,CVOE_B,10,1,2,28,O 48,O,8,,,TRUE,CV,p,p,v,v,TRUE,1,1861,TRUE,cv
1843,CVOE_B,10,1,2,29,A 89,A,9,,,FALSE,CV,p,p,v,v,TRUE,1,651,TRUE,cv
1844,CVOE_B,10,1,2,30,U 11,U,1,,,FALSE,CV,p,p,v,v,TRUE,1,822,TRUE,cv
1845,CVOE_B,10,1,2,31,I 76,I,6,,,TRUE,CV,p,p,v,v,TRUE,1,652,TRUE,cv
1846,CVOE_B,10,1,2,32,U 89,U,9,,,FALSE,CV,p,p,v,v,TRUE,1,815,TRUE,cv
1847,CVOE_B,10,1,2,33,D 63,D,3,,,TRUE,CV,q,q,c,c,TRUE,1,603,TRUE,cv
1848,CVOE_B,10,1,2,34,H 70,H,0,,,FALSE,CV,q,q,c,c,TRUE,1,731,TRUE,cv
1849,CVOE_B,10,1,2,35,D 48,D,8,,,FALSE,CV,q,q,c,c,TRUE,1,630,TRUE,cv
1850,CVOE_B,10,1,2,36,P 56,P,6,,,FALSE,CV,q,q,c,c,TRUE,1,404,TRUE,cv
1851,CVOE_B,10,1,2,37,O 77,O,7,,,FALSE,CV,p,p,v,v,TRUE,1,948,TRUE,cv
1852,CVOE_B,10,1,2,38,P 42,P,2,,,FALSE,CV,q,q,c,c,TRUE,1,674,TRUE,cv
1853,CVOE_B,10,1,2,39,H 22,H,2,,,FALSE,CV,q,q,c,c,TRUE,1,1475,TRUE,cv
1854,CVOE_B,10,1,2,40,E 42,E,2,,,TRUE,CV,p,p,v,v,TRUE,1,555,TRUE,cv
1855,CVOE_B,10,1,2,41,J 28,J,8,,,FALSE,CV,q,q,c,c,TRUE,1,460,TRUE,cv
1856,CVOE_B,10,1,2,42,E 95,E,5,,,FALSE,CV,p,p,v,v,TRUE,1,679,TRUE,cv
1857,CVOE_B,10,1,2,43,S 63,S,3,,,TRUE,CV,q,q,c,c,TRUE,1,335,TRUE,cv
1858,CVOE_B,10,1,2,44,H 50,H,0,,,FALSE,CV,q,q,c,c,TRUE,1,554,TRUE,cv
1859,CVOE_B,10,1,2,45,S 33,S,3,,,TRUE,CV,q,q,c,c,TRUE,1,579,TRUE,cv
1860,CVOE_B,10,1,2,46,P 57,P,7,,,TRUE,CV,q,q,c,c,TRUE,1,574,TRUE,cv
1861,CVOE_B,10,1,2,47,E 23,E,3,,,FALSE,CV,p,p,v,v,TRUE,1,601,TRUE,cv
1862,CVOE_B,10,1,2,48,S 61,S,1,,,TRUE,CV,q,q,c,c,TRUE,1,697,TRUE,cv
1863,CVOE_B,10,1,2,49,U 67,U,7,,,FALSE,CV,p,p,v,v,TRUE,1,700,TRUE,cv
1864,CVOE_B,10,1,2,50,H 32,H,2,,,FALSE,CV,q,q,c,c,TRUE,1,600,TRUE,cv
1865,CVOE_B,10,1,2,51,U 50,U,0,,,TRUE,CV,p,p,v,v,TRUE,1,336,TRUE,cv
1866,CVOE_B,10,1,2,52,O 49,O,9,,,FALSE,CV,p,p,v,v,TRUE,1,1555,TRUE,cv
1867,CVOE_B,10,1,2,53,U 32,U,2,,,TRUE,CV,p,p,v,v,TRUE,1,580,TRUE,cv
1868,CVOE_B,10,1,2,54,J 78,J,8,,,FALSE,CV,q,q,c,c,TRUE,1,623,TRUE,cv
1869,CVOE_B,10,1,2,55,S 54,S,4,,,FALSE,CV,q,q,c,c,TRUE,1,613,TRUE,cv
1870,CVOE_B,10,1,2,56,J 27,J,7,,,TRUE,CV,q,q,c,c,TRUE,1,608,TRUE,cv
1871,CVOE_B,10,1,2,57,S 06,S,6,,,FALSE,CV,q,q,c,c,TRUE,1,1251,TRUE,cv
1872,CVOE_B,10,1,2,58,D 67,D,7,,,TRUE,CV,q,q,c,c,TRUE,1,1094,TRUE,cv
1873,CVOE_B,10,1,2,59,A 79,A,9,,,FALSE,CV,p,p,v,v,TRUE,1,513,TRUE,cv
1874,CVOE_B,10,1,2,60,S 52,S,2,,,FALSE,CV,q,q,c,c,TRUE,1,535,TRUE,cv
1875,CVOE_B,10,1,2,61,U 16,U,6,,,TRUE,CV,p,p,v,v,TRUE,1,1610,TRUE,cv
1876,CVOE_B,10,1,2,62,O 82,O,2,,,TRUE,CV,p,p,v,v,TRUE,1,1174,TRUE,cv
1877,CVOE_B,10,1,2,63,H 87,H,7,,,TRUE,CV,q,q,c,c,TRUE,1,801,TRUE,cv
1878,CVOE_B,10,1,2,64,I 32,I,2,,,TRUE,CV,p,p,v,v,TRUE,1,489,TRUE,cv
1879,CVOE_B,10,1,2,65,U 37,U,7,,,FALSE,CV,p,p,v,v,TRUE,1,541,TRUE,cv
1880,CVOE_B,10,1,2,66,I 42,I,2,,,TRUE,CV,p,p,v,v,TRUE,1,522,TRUE,cv
1881,CVOE_B,10,1,2,67,D 65,D,5,,,TRUE,CV,q,q,c,c,TRUE,1,939,TRUE,cv
1882,CVOE_B,10,1,2,68,U 77,U,7,,,FALSE,CV,p,p,v,v,TRUE,1,2078,TRUE,cv
1883,CVOE_B,10,1,2,69,E 12,E,2,,,TRUE,CV,p,p,v,v,TRUE,1,439,TRUE,cv
1884,CVOE_B,10,1,2,70,I 60,I,0,,,TRUE,CV,p,p,v,v,TRUE,1,375,TRUE,cv
1885,CVOE_B,10,1,2,71,J 36,J,6,,,FALSE,CV,q,q,c,c,TRUE,1,586,TRUE,cv
1886,CVOE_B,10,1,2,72,H 75,H,5,,,TRUE,CV,q,q,c,c,TRUE,1,640,TRUE,cv
1887,CVOE_B,10,1,2,73,I 50,I,0,,,TRUE,CV,p,p,v,v,TRUE,1,664,TRUE,cv
1888,CVOE_B,10,1,2,74,E 99,E,9,,,FALSE,CV,p,p,v,v,TRUE,1,2926,TRUE,cv
1889,CVOE_B,10,1,2,75,A 86,A,6,,,TRUE,CV,p,p,v,v,TRUE,1,720,TRUE,cv
1890,CVOE_B,10,1,2,76,U 48,U,8,,,TRUE,CV,p,p,v,v,TRUE,1,752,TRUE,cv
1891,CVOE_B,10,1,2,77,E 01,E,1,,,FALSE,CV,p,p,v,v,TRUE,1,574,TRUE,cv
1892,CVOE_B,10,1,2,78,A 78,A,8,,,TRUE,CV,p,p,v,v,TRUE,1,409,TRUE,cv
1893,CVOE_B,10,1,2,79,P 60,P,0,,,FALSE,CV,q,q,c,c,TRUE,1,588,TRUE,cv
1894,CVOE_B,10,1,2,80,E 43,E,3,,,FALSE,CV,p,p,v,v,TRUE,1,538,TRUE,cv
1895,CVOE_B,10,1,2,81,D 69,D,9,,,TRUE,CV,q,q,c,c,TRUE,1,1317,TRUE,cv
1896,CVOE_B,10,1,2,82,H 11,H,1,,,TRUE,CV,q,q,c,c,TRUE,1,637,TRUE,cv
1897,CVOE_B,10,1,2,83,P 43,P,3,,,TRUE,CV,q,q,c,c,TRUE,1,534,TRUE,cv
1898,CVOE_B,10,1,2,84,O 67,O,7,,,FALSE,CV,p,p,v,v,TRUE,1,433,TRUE,cv
1899,CVOE_B,10,1,2,85,S 91,S,1,,,FALSE,CV,q,q,c,c,TRUE,1,599,TRUE,cv
1900,CVOE_B,10,1,2,86,J 68,J,8,,,TRUE,CV,q,q,c,c,TRUE,1,647,TRUE,cv
1901,CVOE_B,10,1,2,87,S 47,S,7,,,FALSE,CV,q,q,c,c,TRUE,1,903,TRUE,cv
1902,CVOE_B,10,1,2,88,I 81,I,1,,,TRUE,CV,p,p,v,v,TRUE,1,629,TRUE,cv
1903,CVOE_B,10,1,2,89,J 39,J,9,,,FALSE,CV,q,q,c,c,TRUE,1,2691,TRUE,cv
1904,CVOE_B,10,1,2,90,A 11,A,1,,,TRUE,CV,p,p,v,v,TRUE,1,359,TRUE,cv
1905,CVOE_B,10,1,2,91,O 76,O,6,,,FALSE,CV,p,p,v,v,TRUE,1,343,TRUE,cv
1906,CVOE_B,10,1,2,92,A 62,A,2,,,FALSE,CV,p,p,v,v,TRUE,1,629,TRUE,cv
1907,CVOE_B,10,1,2,93,O 27,O,7,,,TRUE,CV,p,p,v,v,TRUE,1,1347,TRUE,cv
1908,CVOE_B,10,1,2,94,E 66,E,6,,,FALSE,CV,p,p,v,v,TRUE,1,1249,TRUE,cv
1909,CVOE_B,10,1,2,95,J 62,J,2,,,TRUE,CV,q,q,c,c,TRUE,1,476,TRUE,cv
1910,CVOE_B,10,1,2,96,H 72,H,2,,,TRUE,CV,q,q,c,c,TRUE,1,549,TRUE,cv
1911,CVOE_B,10,1,2,97,E 49,E,9,,,TRUE,CV,p,p,v,v,TRUE,1,762,TRUE,cv
1912,CVOE_B,10,1,2,98,D 52,D,2,,,TRUE,CV,q,q,c,c,TRUE,1,747,TRUE,cv
1913,CVOE_B,10,1,2,99,H 62,H,2,,,TRUE,CV,q,q,c,c,TRUE,1,673,TRUE,cv
1914,CVOE_B,10,1,2,100,I 11,I,1,,,TRUE,CV,p,p,v,v,TRUE,1,1182,TRUE,cv
1915,CVOE_B,10,1,2,101,A 98,A,8,,,FALSE,CV,p,p,v,v,TRUE,1,580,TRUE,cv
1916,CVOE_B,10,1,2,102,H 29,H,9,,,FALSE,CV,q,q,c,c,TRUE,1,631,TRUE,cv
1917,CVOE_B,10,1,2,103,E 83,E,3,,,TRUE,CV,p,p,v,v,TRUE,1,437,TRUE,cv
1918,CVOE_B,10,1,2,104,D 43,D,3,,,FALSE,CV,q,q,c,c,TRUE,1,694,TRUE,cv
1919,CVOE_B,10,1,2,105,P 45,P,5,,,TRUE,CV,q,q,c,c,TRUE,1,2057,TRUE,cv
1920,CVOE_B,10,1,2,106,J 17,J,7,,,TRUE,CV,q,q,c,c,TRUE,1,524,TRUE,cv
2257,CVOE_B,6,1,2,11,A 71,A,1,,,FALSE,CV,p,p,v,v,TRUE,1,5563,TRUE,cv
2258,CVOE_B,6,1,2,12,I 66,I,6,,,TRUE,CV,p,p,v,v,TRUE,1,1477,TRUE,cv
2259,CVOE_B,6,1,2,13,S 30,S,0,,,FALSE,CV,q,q,c,c,TRUE,1,894,TRUE,cv
2260,CVOE_B,6,1,2,14,D 20,D,0,,,FALSE,CV,q,q,c,c,TRUE,1,1961,TRUE,cv
2261,CVOE_B,6,1,2,15,I 31,I,1,,,FALSE,CV,p,p,v,v,TRUE,1,978,TRUE,cv
2262,CVOE_B,6,1,2,16,P 16,P,6,,,FALSE,CV,q,q,c,c,TRUE,1,885,TRUE,cv
2263,CVOE_B,6,1,2,17,A 49,A,9,,,FALSE,CV,p,p,v,v,TRUE,1,934,TRUE,cv
2264,CVOE_B,6,1,2,18,O 64,O,4,,,TRUE,CV,p,p,v,v,TRUE,1,721,TRUE,cv
2265,CVOE_B,6,1,2,19,D 02,D,2,,,FALSE,CV,q,q,c,c,TRUE,1,770,TRUE,cv
2266,CVOE_B,6,1,2,20,P 81,P,1,,,TRUE,CV,q,q,c,c,TRUE,1,805,TRUE,cv
2267,CVOE_B,6,1,2,21,J 58,J,8,,,FALSE,CV,q,q,c,c,TRUE,1,749,TRUE,cv
2268,CVOE_B,6,1,2,22,A 22,A,2,,,TRUE,CV,p,p,v,v,TRUE,1,763,TRUE,cv
2269,CVOE_B,6,1,2,23,J 72,J,2,,,FALSE,CV,q,q,c,c,TRUE,1,972,TRUE,cv
2270,CVOE_B,6,1,2,24,P 91,P,1,,,TRUE,CV,q,q,c,c,TRUE,1,1671,TRUE,cv
2271,CVOE_B,6,1,2,25,E 19,E,9,,,FALSE,CV,p,p,v,v,TRUE,1,773,TRUE,cv
2272,CVOE_B,6,1,2,26,I 30,I,0,,,TRUE,CV,p,p,v,v,TRUE,1,936,TRUE,cv
2273,CVOE_B,6,1,2,27,D 91,D,1,,,TRUE,CV,q,q,c,c,TRUE,1,675,TRUE,cv
2274,CVOE_B,6,1,2,28,O 48,O,8,,,TRUE,CV,p,p,v,v,TRUE,1,892,TRUE,cv
2275,CVOE_B,6,1,2,29,A 89,A,9,,,FALSE,CV,p,p,v,v,TRUE,1,807,TRUE,cv
2276,CVOE_B,6,1,2,30,U 11,U,1,,,FALSE,CV,p,p,v,v,TRUE,1,882,TRUE,cv
2277,CVOE_B,6,1,2,31,I 76,I,6,,,TRUE,CV,p,p,v,v,TRUE,1,715,TRUE,cv
2278,CVOE_B,6,1,2,32,U 89,U,9,,,FALSE,CV,p,p,v,v,TRUE,1,859,TRUE,cv
2279,CVOE_B,6,1,2,33,D 63,D,3,,,TRUE,CV,q,q,c,c,TRUE,1,654,TRUE,cv
2280,CVOE_B,6,1,2,34,H 70,H,0,,,FALSE,CV,q,q,c,c,TRUE,1,1257,TRUE,cv
2281,CVOE_B,6,1,2,35,D 48,D,8,,,FALSE,CV,q,q,c,c,TRUE,1,1205,TRUE,cv
2282,CVOE_B,6,1,2,36,P 56,P,6,,,FALSE,CV,q,q,c,c,TRUE,1,1117,TRUE,cv
2283,CVOE_B,6,1,2,37,O 77,O,7,,,FALSE,CV,p,p,v,v,TRUE,1,606,TRUE,cv
2284,CVOE_B,6,1,2,38,P 42,P,2,,,FALSE,CV,q,q,c,c,TRUE,1,1230,TRUE,cv
2285,CVOE_B,6,1,2,39,H 22,H,2,,,FALSE,CV,q,q,c,c,TRUE,1,2244,TRUE,cv
2286,CVOE_B,6,1,2,40,E 42,E,2,,,TRUE,CV,p,p,v,v,TRUE,1,654,TRUE,cv
2287,CVOE_B,6,1,2,41,J 28,J,8,,,FALSE,CV,q,q,c,c,TRUE,1,657,TRUE,cv
2288,CVOE_B,6,1,2,42,E 95,E,5,,,FALSE,CV,p,p,v,v,TRUE,1,604,TRUE,cv
2289,CVOE_B,6,1,2,43,S 63,S,3,,,TRUE,CV,q,q,c,c,TRUE,1,668,TRUE,cv
2290,CVOE_B,6,1,2,44,H 50,H,0,,,FALSE,CV,q,q,c,c,TRUE,1,746,TRUE,cv
2291,CVOE_B,6,1,2,45,S 33,S,3,,,TRUE,CV,p,q,v,c,FALSE,0,696,FALSE,cv
2292,CVOE_B,6,1,2,46,P 57,P,7,,,TRUE,CV,q,q,c,c,TRUE,1,3707,TRUE,cv
2293,CVOE_B,6,1,2,47,E 23,E,3,,,FALSE,CV,p,p,v,v,TRUE,1,850,TRUE,cv
2294,CVOE_B,6,1,2,48,S 61,S,1,,,TRUE,CV,q,q,c,c,TRUE,1,2413,TRUE,cv
2295,CVOE_B,6,1,2,49,U 67,U,7,,,FALSE,CV,p,p,v,v,TRUE,1,761,TRUE,cv
2296,CVOE_B,6,1,2,50,H 32,H,2,,,FALSE,CV,q,q,c,c,TRUE,1,913,TRUE,cv
2297,CVOE_B,6,1,2,51,U 50,U,0,,,TRUE,CV,p,p,v,v,TRUE,1,679,TRUE,cv
2298,CVOE_B,6,1,2,52,O 49,O,9,,,FALSE,CV,p,p,v,v,TRUE,1,920,TRUE,cv
2299,CVOE_B,6,1,2,53,U 32,U,2,,,TRUE,CV,p,p,v,v,TRUE,1,688,TRUE,cv
2300,CVOE_B,6,1,2,54,J 78,J,8,,,FALSE,CV,q,q,c,c,TRUE,1,747,TRUE,cv
2301,CVOE_B,6,1,2,55,S 54,S,4,,,FALSE,CV,q,q,c,c,TRUE,1,881,TRUE,cv
2302,CVOE_B,6,1,2,56,J 27,J,7,,,TRUE,CV,q,q,c,c,TRUE,1,762,TRUE,cv
2303,CVOE_B,6,1,2,57,S 06,S,6,,,FALSE,CV,q,q,c,c,TRUE,1,906,TRUE,cv
2304,CVOE_B,6,1,2,58,D 67,D,7,,,TRUE,CV,q,q,c,c,TRUE,1,744,TRUE,cv
2305,CVOE_B,6,1,2,59,A 79,A,9,,,FALSE,CV,p,p,v,v,TRUE,1,766,TRUE,cv
2306,CVOE_B,6,1,2,60,S 52,S,2,,,FALSE,CV,q,q,c,c,TRUE,1,894,TRUE,cv
2307,CVOE_B,6,1,2,61,U 16,U,6,,,TRUE,CV,p,p,v,v,TRUE,1,874,TRUE,cv
2308,CVOE_B,6,1,2,62,O 82,O,2,,,TRUE,CV,p,p,v,v,TRUE,1,1402,TRUE,cv
2309,CVOE_B,6,1,2,63,H 87,H,7,,,TRUE,CV,q,q,c,c,TRUE,1,779,TRUE,cv
2310,CVOE_B,6,1,2,64,I 32,I,2,,,TRUE,CV,p,p,v,v,TRUE,1,894,TRUE,cv
2311,CVOE_B,6,1,2,65,U 37,U,7,,,FALSE,CV,p,p,v,v,TRUE,1,752,TRUE,cv
2312,CVOE_B,6,1,2,66,I 42,I,2,,,TRUE,CV,p,p,v,v,TRUE,1,2095,TRUE,cv
2313,CVOE_B,6,1,2,67,D 65,D,5,,,TRUE,CV,q,q,c,c,TRUE,1,875,TRUE,cv
2314,CVOE_B,6,1,2,68,U 77,U,7,,,FALSE,CV,p,p,v,v,TRUE,1,691,TRUE,cv
2315,CVOE_B,6,1,2,69,E 12,E,2,,,TRUE,CV,p,p,v,v,TRUE,1,758,TRUE,cv
2316,CVOE_B,6,1,2,70,I 60,I,0,,,TRUE,CV,p,p,v,v,TRUE,1,783,TRUE,cv
2317,CVOE_B,6,1,2,71,J 36,J,6,,,FALSE,CV,q,q,c,c,TRUE,1,741,TRUE,cv
2318,CVOE_B,6,1,2,72,H 75,H,5,,,TRUE,CV,q,q,c,c,TRUE,1,802,TRUE,cv
2319,CVOE_B,6,1,2,73,I 50,I,0,,,TRUE,CV,p,p,v,v,TRUE,1,675,TRUE,cv
2320,CVOE_B,6,1,2,74,E 99,E,9,,,FALSE,CV,p,p,v,v,TRUE,1,907,TRUE,cv
2321,CVOE_B,6,1,2,75,A 86,A,6,,,TRUE,CV,p,p,v,v,TRUE,1,873,TRUE,cv
2322,CVOE_B,6,1,2,76,U 48,U,8,,,TRUE,CV,p,p,v,v,TRUE,1,791,TRUE,cv
2323,CVOE_B,6,1,2,77,E 01,E,1,,,FALSE,CV,p,p,v,v,TRUE,1,693,TRUE,cv
2324,CVOE_B,6,1,2,78,A 78,A,8,,,TRUE,CV,p,p,v,v,TRUE,1,752,TRUE,cv
2325,CVOE_B,6,1,2,79,P 60,P,0,,,FALSE,CV,q,q,c,c,TRUE,1,814,TRUE,cv
2326,CVOE_B,6,1,2,80,E 43,E,3,,,FALSE,CV,p,p,v,v,TRUE,1,673,TRUE,cv
2327,CVOE_B,6,1,2,81,D 69,D,9,,,TRUE,CV,q,q,c,c,TRUE,1,1798,TRUE,cv
2328,CVOE_B,6,1,2,82,H 11,H,1,,,TRUE,CV,q,q,c,c,TRUE,1,935,TRUE,cv
2329,CVOE_B,6,1,2,83,P 43,P,3,,,TRUE,CV,q,q,c,c,TRUE,1,955,TRUE,cv
2330,CVOE_B,6,1,2,84,O 67,O,7,,,FALSE,CV,p,p,v,v,TRUE,1,660,TRUE,cv
2331,CVOE_B,6,1,2,85,S 91,S,1,,,FALSE,CV,q,q,c,c,TRUE,1,678,TRUE,cv
2332,CVOE_B,6,1,2,86,J 68,J,8,,,TRUE,CV,q,q,c,c,TRUE,1,1574,TRUE,cv
2333,CVOE_B,6,1,2,87,S 47,S,7,,,FALSE,CV,q,q,c,c,TRUE,1,499,TRUE,cv
2334,CVOE_B,6,1,2,88,I 81,I,1,,,TRUE,CV,p,p,v,v,TRUE,1,678,TRUE,cv
2335,CVOE_B,6,1,2,89,J 39,J,9,,,FALSE,CV,q,q,c,c,TRUE,1,806,TRUE,cv
2336,CVOE_B,6,1,2,90,A 11,A,1,,,TRUE,CV,p,p,v,v,TRUE,1,663,TRUE,cv
2337,CVOE_B,6,1,2,91,O 76,O,6,,,FALSE,CV,p,p,v,v,TRUE,1,1491,TRUE,cv
2338,CVOE_B,6,1,2,92,A 62,A,2,,,FALSE,CV,p,p,v,v,TRUE,1,720,TRUE,cv
2339,CVOE_B,6,1,2,93,O 27,O,7,,,TRUE,CV,p,p,v,v,TRUE,1,920,TRUE,cv
2340,CVOE_B,6,1,2,94,E 66,E,6,,,FALSE,CV,p,p,v,v,TRUE,1,641,TRUE,cv
2341,CVOE_B,6,1,2,95,J 62,J,2,,,TRUE,CV,q,q,c,c,TRUE,1,769,TRUE,cv
2342,CVOE_B,6,1,2,96,H 72,H,2,,,TRUE,CV,q,q,c,c,TRUE,1,620,TRUE,cv
2343,CVOE_B,6,1,2,97,E 49,E,9,,,TRUE,CV,p,p,v,v,TRUE,1,530,TRUE,cv
2344,CVOE_B,6,1,2,98,D 52,D,2,,,TRUE,CV,q,q,c,c,TRUE,1,653,TRUE,cv
2345,CVOE_B,6,1,2,99,H 62,H,2,,,TRUE,CV,q,q,c,c,TRUE,1,568,TRUE,cv
2346,CVOE_B,6,1,2,100,I 11,I,1,,,TRUE,CV,p,p,v,v,TRUE,1,660,TRUE,cv
2347,CVOE_B,6,1,2,101,A 98,A,8,,,FALSE,CV,p,p,v,v,TRUE,1,1054,TRUE,cv
2348,CVOE_B,6,1,2,102,H 29,H,9,,,FALSE,CV,q,q,c,c,TRUE,1,890,TRUE,cv
2349,CVOE_B,6,1,2,103,E 83,E,3,,,TRUE,CV,p,p,v,v,TRUE,1,789,TRUE,cv
2350,CVOE_B,6,1,2,104,D 43,D,3,,,FALSE,CV,q,q,c,c,TRUE,1,1587,TRUE,cv
2351,CVOE_B,6,1,2,105,P 45,P,5,,,TRUE,CV,q,q,c,c,TRUE,1,681,TRUE,cv
2352,CVOE_B,6,1,2,106,J 17,J,7,,,TRUE,CV,q,q,c,c,TRUE,1,546,TRUE,cv
2689,CVOE_C,3,1,2,11,A 71,A,1,,,FALSE,CV,p,p,v,v,TRUE,1,5876,TRUE,cv
2690,CVOE_C,3,1,2,12,I 66,I,6,,,TRUE,CV,p,p,v,v,TRUE,1,678,TRUE,cv
2691,CVOE_C,3,1,2,13,S 30,S,0,,,FALSE,CV,q,q,c,c,TRUE,1,743,TRUE,cv
2692,CVOE_C,3,1,2,14,D 20,D,0,,,FALSE,CV,q,q,c,c,TRUE,1,765,TRUE,cv
2693,CVOE_C,3,1,2,15,I 31,I,1,,,FALSE,CV,p,p,v,v,TRUE,1,533,TRUE,cv
2694,CVOE_C,3,1,2,16,P 16,P,6,,,FALSE,CV,q,q,c,c,TRUE,1,568,TRUE,cv
2695,CVOE_C,3,1,2,17,A 49,A,9,,,FALSE,CV,p,p,v,v,TRUE,1,643,TRUE,cv
2696,CVOE_C,3,1,2,18,O 64,O,4,,,TRUE,CV,p,p,v,v,TRUE,1,524,TRUE,cv
2697,CVOE_C,3,1,2,19,D 02,D,2,,,FALSE,CV,q,q,c,c,TRUE,1,532,TRUE,cv
2698,CVOE_C,3,1,2,20,P 81,P,1,,,TRUE,CV,q,q,c,c,TRUE,1,871,TRUE,cv
2699,CVOE_C,3,1,2,21,J 58,J,8,,,FALSE,CV,q,q,c,c,TRUE,1,797,TRUE,cv
2700,CVOE_C,3,1,2,22,A 22,A,2,,,TRUE,CV,p,p,v,v,TRUE,1,557,TRUE,cv
2701,CVOE_C,3,1,2,23,J 72,J,2,,,FALSE,CV,q,q,c,c,TRUE,1,678,TRUE,cv
2702,CVOE_C,3,1,2,24,P 91,P,1,,,TRUE,CV,q,q,c,c,TRUE,1,454,TRUE,cv
2703,CVOE_C,3,1,2,25,E 19,E,9,,,FALSE,CV,p,p,v,v,TRUE,1,513,TRUE,cv
2704,CVOE_C,3,1,2,26,I 30,I,0,,,TRUE,CV,p,p,v,v,TRUE,1,482,TRUE,cv
2705,CVOE_C,3,1,2,27,D 91,D,1,,,TRUE,CV,q,q,c,c,TRUE,1,378,TRUE,cv
2706,CVOE_C,3,1,2,28,O 48,O,8,,,TRUE,CV,p,p,v,v,TRUE,1,589,TRUE,cv
2707,CVOE_C,3,1,2,29,A 89,A,9,,,FALSE,CV,p,p,v,v,TRUE,1,531,TRUE,cv
2708,CVOE_C,3,1,2,30,U 11,U,1,,,FALSE,CV,q,p,c,v,FALSE,0,382,FALSE,cv
2709,CVOE_C,3,1,2,31,I 76,I,6,,,TRUE,CV,p,p,v,v,TRUE,1,684,TRUE,cv
2710,CVOE_C,3,1,2,32,U 89,U,9,,,FALSE,CV,p,p,v,v,TRUE,1,380,TRUE,cv
2711,CVOE_C,3,1,2,33,D 63,D,3,,,TRUE,CV,q,q,c,c,TRUE,1,562,TRUE,cv
2712,CVOE_C,3,1,2,34,H 70,H,0,,,FALSE,CV,q,q,c,c,TRUE,1,874,TRUE,cv
2713,CVOE_C,3,1,2,35,D 48,D,8,,,FALSE,CV,q,q,c,c,TRUE,1,475,TRUE,cv
2714,CVOE_C,3,1,2,36,P 56,P,6,,,FALSE,CV,q,q,c,c,TRUE,1,475,TRUE,cv
2715,CVOE_C,3,1,2,37,O 77,O,7,,,FALSE,CV,p,p,v,v,TRUE,1,643,TRUE,cv
2716,CVOE_C,3,1,2,38,P 42,P,2,,,FALSE,CV,q,q,c,c,TRUE,1,804,TRUE,cv
2717,CVOE_C,3,1,2,39,H 22,H,2,,,FALSE,CV,q,q,c,c,TRUE,1,484,TRUE,cv
2718,CVOE_C,3,1,2,40,E 42,E,2,,,TRUE,CV,p,p,v,v,TRUE,1,485,TRUE,cv
2719,CVOE_C,3,1,2,41,J 28,J,8,,,FALSE,CV,q,q,c,c,TRUE,1,389,TRUE,cv
2720,CVOE_C,3,1,2,42,E 95,E,5,,,FALSE,CV,q,p,c,v,FALSE,0,491,FALSE,cv
2721,CVOE_C,3,1,2,43,S 63,S,3,,,TRUE,CV,q,q,c,c,TRUE,1,814,TRUE,cv
2722,CVOE_C,3,1,2,44,H 50,H,0,,,FALSE,CV,q,q,c,c,TRUE,1,521,TRUE,cv
2723,CVOE_C,3,1,2,45,S 33,S,3,,,TRUE,CV,q,q,c,c,TRUE,1,985,TRUE,cv
2724,CVOE_C,3,1,2,46,P 57,P,7,,,TRUE,CV,q,q,c,c,TRUE,1,543,TRUE,cv
2725,CVOE_C,3,1,2,47,E 23,E,3,,,FALSE,CV,p,p,v,v,TRUE,1,901,TRUE,cv
2726,CVOE_C,3,1,2,48,S 61,S,1,,,TRUE,CV,q,q,c,c,TRUE,1,763,TRUE,cv
2727,CVOE_C,3,1,2,49,U 67,U,7,,,FALSE,CV,p,p,v,v,TRUE,1,771,TRUE,cv
2728,CVOE_C,3,1,2,50,H 32,H,2,,,FALSE,CV,q,q,c,c,TRUE,1,607,TRUE,cv
2729,CVOE_C,3,1,2,51,U 50,U,0,,,TRUE,CV,p,p,v,v,TRUE,1,498,TRUE,cv
2730,CVOE_C,3,1,2,52,O 49,O,9,,,FALSE,CV,p,p,v,v,TRUE,1,469,TRUE,cv
2731,CVOE_C,3,1,2,53,U 32,U,2,,,TRUE,CV,p,p,v,v,TRUE,1,434,TRUE,cv
2732,CVOE_C,3,1,2,54,J 78,J,8,,,FALSE,CV,q,q,c,c,TRUE,1,667,TRUE,cv
2733,CVOE_C,3,1,2,55,S 54,S,4,,,FALSE,CV,q,q,c,c,TRUE,1,849,TRUE,cv
2734,CVOE_C,3,1,2,56,J 27,J,7,,,TRUE,CV,q,q,c,c,TRUE,1,612,TRUE,cv
2735,CVOE_C,3,1,2,57,S 06,S,6,,,FALSE,CV,q,q,c,c,TRUE,1,759,TRUE,cv
2736,CVOE_C,3,1,2,58,D 67,D,7,,,TRUE,CV,q,q,c,c,TRUE,1,1023,TRUE,cv
2737,CVOE_C,3,1,2,59,A 79,A,9,,,FALSE,CV,p,p,v,v,TRUE,1,701,TRUE,cv
2738,CVOE_C,3,1,2,60,S 52,S,2,,,FALSE,CV,q,q,c,c,TRUE,1,1147,TRUE,cv
2739,CVOE_C,3,1,2,61,U 16,U,6,,,TRUE,CV,p,p,v,v,TRUE,1,593,TRUE,cv
2740,CVOE_C,3,1,2,62,O 82,O,2,,,TRUE,CV,p,p,v,v,TRUE,1,434,TRUE,cv
2741,CVOE_C,3,1,2,63,H 87,H,7,,,TRUE,CV,q,q,c,c,TRUE,1,474,TRUE,cv
2742,CVOE_C,3,1,2,64,I 32,I,2,,,TRUE,CV,p,p,v,v,TRUE,1,586,TRUE,cv
2743,CVOE_C,3,1,2,65,U 37,U,7,,,FALSE,CV,p,p,v,v,TRUE,1,496,TRUE,cv
2744,CVOE_C,3,1,2,66,I 42,I,2,,,TRUE,CV,p,p,v,v,TRUE,1,483,TRUE,cv
2745,CVOE_C,3,1,2,67,D 65,D,5,,,TRUE,CV,q,q,c,c,TRUE,1,603,TRUE,cv
2746,CVOE_C,3,1,2,68,U 77,U,7,,,FALSE,CV,p,p,v,v,TRUE,1,604,TRUE,cv
2747,CVOE_C,3,1,2,69,E 12,E,2,,,TRUE,CV,p,p,v,v,TRUE,1,492,TRUE,cv
2748,CVOE_C,3,1,2,70,I 60,I,0,,,TRUE,CV,p,p,v,v,TRUE,1,383,TRUE,cv
2749,CVOE_C,3,1,2,71,J 36,J,6,,,FALSE,CV,q,q,c,c,TRUE,1,541,TRUE,cv
2750,CVOE_C,3,1,2,72,H 75,H,5,,,TRUE,CV,q,q,c,c,TRUE,1,555,TRUE,cv
2751,CVOE_C,3,1,2,73,I 50,I,0,,,TRUE,CV,p,p,v,v,TRUE,1,459,TRUE,cv
2752,CVOE_C,3,1,2,74,E 99,E,9,,,FALSE,CV,q,p,c,v,FALSE,0,446,FALSE,cv
2753,CVOE_C,3,1,2,75,A 86,A,6,,,TRUE,CV,p,p,v,v,TRUE,1,519,TRUE,cv
2754,CVOE_C,3,1,2,76,U 48,U,8,,,TRUE,CV,p,p,v,v,TRUE,1,367,TRUE,cv
2755,CVOE_C,3,1,2,77,E 01,E,1,,,FALSE,CV,p,p,v,v,TRUE,1,370,TRUE,cv
2756,CVOE_C,3,1,2,78,A 78,A,8,,,TRUE,CV,p,p,v,v,TRUE,1,1013,TRUE,cv
2757,CVOE_C,3,1,2,79,P 60,P,0,,,FALSE,CV,q,q,c,c,TRUE,1,728,TRUE,cv
2758,CVOE_C,3,1,2,80,E 43,E,3,,,FALSE,CV,p,p,v,v,TRUE,1,619,TRUE,cv
2759,CVOE_C,3,1,2,81,D 69,D,9,,,TRUE,CV,q,q,c,c,TRUE,1,646,TRUE,cv
2760,CVOE_C,3,1,2,82,H 11,H,1,,,TRUE,CV,q,q,c,c,TRUE,1,634,TRUE,cv
2761,CVOE_C,3,1,2,83,P 43,P,3,,,TRUE,CV,q,q,c,c,TRUE,1,586,TRUE,cv
2762,CVOE_C,3,1,2,84,O 67,O,7,,,FALSE,CV,p,p,v,v,TRUE,1,536,TRUE,cv
2763,CVOE_C,3,1,2,85,S 91,S,1,,,FALSE,CV,q,q,c,c,TRUE,1,467,TRUE,cv
2764,CVOE_C,3,1,2,86,J 68,J,8,,,TRUE,CV,q,q,c,c,TRUE,1,441,TRUE,cv
2765,CVOE_C,3,1,2,87,S 47,S,7,,,FALSE,CV,q,q,c,c,TRUE,1,353,TRUE,cv
2766,CVOE_C,3,1,2,88,I 81,I,1,,,TRUE,CV,p,p,v,v,TRUE,1,511,TRUE,cv
2767,CVOE_C,3,1,2,89,J 39,J,9,,,FALSE,CV,q,q,c,c,TRUE,1,484,TRUE,cv
2768,CVOE_C,3,1,2,90,A 11,A,1,,,TRUE,CV,p,p,v,v,TRUE,1,509,TRUE,cv
2769,CVOE_C,3,1,2,91,O 76,O,6,,,FALSE,CV,p,p,v,v,TRUE,1,490,TRUE,cv
2770,CVOE_C,3,1,2,92,A 62,A,2,,,FALSE,CV,p,p,v,v,TRUE,1,406,TRUE,cv
2771,CVOE_C,3,1,2,93,O 27,O,7,,,TRUE,CV,p,p,v,v,TRUE,1,342,TRUE,cv
2772,CVOE_C,3,1,2,94,E 66,E,6,,,FALSE,CV,p,p,v,v,TRUE,1,420,TRUE,cv
2773,CVOE_C,3,1,2,95,J 62,J,2,,,TRUE,CV,q,q,c,c,TRUE,1,647,TRUE,cv
2774,CVOE_C,3,1,2,96,H 72,H,2,,,TRUE,CV,p,q,v,c,FALSE,0,530,FALSE,cv
2775,CVOE_C,3,1,2,97,E 49,E,9,,,TRUE,CV,p,p,v,v,TRUE,1,973,TRUE,cv
2776,CVOE_C,3,1,2,98,D 52,D,2,,,TRUE,CV,q,q,c,c,TRUE,1,648,TRUE,cv
2777,CVOE_C,3,1,2,99,H 62,H,2,,,TRUE,CV,q,q,c,c,TRUE,1,451,TRUE,cv
2778,CVOE_C,3,1,2,100,I 11,I,1,,,TRUE,CV,p,p,v,v,TRUE,1,694,TRUE,cv
2779,CVOE_C,3,1,2,101,A 98,A,8,,,FALSE,CV,p,p,v,v,TRUE,1,425,TRUE,cv
2780,CVOE_C,3,1,2,102,H 29,H,9,,,FALSE,CV,q,q,c,c,TRUE,1,559,TRUE,cv
2781,CVOE_C,3,1,2,103,E 83,E,3,,,TRUE,CV,q,p,c,v,FALSE,0,479,FALSE,cv
2782,CVOE_C,3,1,2,104,D 43,D,3,,,FALSE,CV,q,q,c,c,TRUE,1,1089,TRUE,cv
2783,CVOE_C,3,1,2,105,P 45,P,5,,,TRUE,CV,q,q,c,c,TRUE,1,555,TRUE,cv
2784,CVOE_C,3,1,2,106,J 17,J,7,,,TRUE,CV,q,q,c,c,TRUE,1,459,TRUE,cv
3121,CVOE_C,11,1,2,11,A 71,A,1,,,FALSE,CV,p,p,v,v,TRUE,1,2185,TRUE,cv
3122,CVOE_C,11,1,2,12,I 66,I,6,,,TRUE,CV,p,p,v,v,TRUE,1,727,TRUE,cv
3123,CVOE_C,11,1,2,13,S 30,S,0,,,FALSE,CV,q,q,c,c,TRUE,1,575,TRUE,cv
3124,CVOE_C,11,1,2,14,D 20,D,0,,,FALSE,CV,q,q,c,c,TRUE,1,1930,TRUE,cv
3125,CVOE_C,11,1,2,15,I 31,I,1,,,FALSE,CV,p,p,v,v,TRUE,1,574,TRUE,cv
3126,CVOE_C,11,1,2,16,P 16,P,6,,,FALSE,CV,q,q,c,c,TRUE,1,705,TRUE,cv
3127,CVOE_C,11,1,2,17,A 49,A,9,,,FALSE,CV,p,p,v,v,TRUE,1,775,TRUE,cv
3128,CVOE_C,11,1,2,18,O 64,O,4,,,TRUE,CV,p,p,v,v,TRUE,1,466,TRUE,cv
3129,CVOE_C,11,1,2,19,D 02,D,2,,,FALSE,CV,q,q,c,c,TRUE,1,544,TRUE,cv
3130,CVOE_C,11,1,2,20,P 81,P,1,,,TRUE,CV,q,q,c,c,TRUE,1,870,TRUE,cv
3131,CVOE_C,11,1,2,21,J 58,J,8,,,FALSE,CV,q,q,c,c,TRUE,1,499,TRUE,cv
3132,CVOE_C,11,1,2,22,A 22,A,2,,,TRUE,CV,p,p,v,v,TRUE,1,598,TRUE,cv
3133,CVOE_C,11,1,2,23,J 72,J,2,,,FALSE,CV,q,q,c,c,TRUE,1,559,TRUE,cv
3134,CVOE_C,11,1,2,24,P 91,P,1,,,TRUE,CV,q,q,c,c,TRUE,1,903,TRUE,cv
3135,CVOE_C,11,1,2,25,E 19,E,9,,,FALSE,CV,p,p,v,v,TRUE,1,765,TRUE,cv
3136,CVOE_C,11,1,2,26,I 30,I,0,,,TRUE,CV,p,p,v,v,TRUE,1,398,TRUE,cv
3137,CVOE_C,11,1,2,27,D 91,D,1,,,TRUE,CV,q,q,c,c,TRUE,1,486,TRUE,cv
3138,CVOE_C,11,1,2,28,O 48,O,8,,,TRUE,CV,p,p,v,v,TRUE,1,550,TRUE,cv
3139,CVOE_C,11,1,2,29,A 89,A,9,,,FALSE,CV,q,p,c,v,FALSE,0,556,FALSE,cv
3140,CVOE_C,11,1,2,30,U 11,U,1,,,FALSE,CV,p,p,v,v,TRUE,1,1045,TRUE,cv
3141,CVOE_C,11,1,2,31,I 76,I,6,,,TRUE,CV,p,p,v,v,TRUE,1,1189,TRUE,cv
3142,CVOE_C,11,1,2,32,U 89,U,9,,,FALSE,CV,p,p,v,v,TRUE,1,483,TRUE,cv
3143,CVOE_C,11,1,2,33,D 63,D,3,,,TRUE,CV,q,q,c,c,TRUE,1,892,TRUE,cv
3144,CVOE_C,11,1,2,34,H 70,H,0,,,FALSE,CV,q,q,c,c,TRUE,1,495,TRUE,cv
3145,CVOE_C,11,1,2,35,D 48,D,8,,,FALSE,CV,q,q,c,c,TRUE,1,858,TRUE,cv
3146,CVOE_C,11,1,2,36,P 56,P,6,,,FALSE,CV,q,q,c,c,TRUE,1,429,TRUE,cv
3147,CVOE_C,11,1,2,37,O 77,O,7,,,FALSE,CV,p,p,v,v,TRUE,1,859,TRUE,cv
3148,CVOE_C,11,1,2,38,P 42,P,2,,,FALSE,CV,q,q,c,c,TRUE,1,654,TRUE,cv
3149,CVOE_C,11,1,2,39,H 22,H,2,,,FALSE,CV,q,q,c,c,TRUE,1,897,TRUE,cv
3150,CVOE_C,11,1,2,40,E 42,E,2,,,TRUE,CV,p,p,v,v,TRUE,1,564,TRUE,cv
3151,CVOE_C,11,1,2,41,J 28,J,8,,,FALSE,CV,q,q,c,c,TRUE,1,485,TRUE,cv
3152,CVOE_C,11,1,2,42,E 95,E,5,,,FALSE,CV,p,p,v,v,TRUE,1,509,TRUE,cv
3153,CVOE_C,11,1,2,43,S 63,S,3,,,TRUE,CV,q,q,c,c,TRUE,1,387,TRUE,cv
3154,CVOE_C,11,1,2,44,H 50,H,0,,,FALSE,CV,q,q,c,c,TRUE,1,496,TRUE,cv
3155,CVOE_C,11,1,2,45,S 33,S,3,,,TRUE,CV,q,q,c,c,TRUE,1,595,TRUE,cv
3156,CVOE_C,11,1,2,46,P 57,P,7,,,TRUE,CV,q,q,c,c,TRUE,1,460,TRUE,cv
3157,CVOE_C,11,1,2,47,E 23,E,3,,,FALSE,CV,p,p,v,v,TRUE,1,567,TRUE,cv
3158,CVOE_C,11,1,2,48,S 61,S,1,,,TRUE,CV,q,q,c,c,TRUE,1,695,TRUE,cv
3159,CVOE_C,11,1,2,49,U 67,U,7,,,FALSE,CV,p,p,v,v,TRUE,1,490,TRUE,cv
3160,CVOE_C,11,1,2,50,H 32,H,2,,,FALSE,CV,q,q,c,c,TRUE,1,397,TRUE,cv
3161,CVOE_C,11,1,2,51,U 50,U,0,,,TRUE,CV,p,p,v,v,TRUE,1,502,TRUE,cv
3162,CVOE_C,11,1,2,52,O 49,O,9,,,FALSE,CV,p,p,v,v,TRUE,1,619,TRUE,cv
3163,CVOE_C,11,1,2,53,U 32,U,2,,,TRUE,CV,p,p,v,v,TRUE,1,799,TRUE,cv
3164,CVOE_C,11,1,2,54,J 78,J,8,,,FALSE,CV,q,q,c,c,TRUE,1,527,TRUE,cv
3165,CVOE_C,11,1,2,55,S 54,S,4,,,FALSE,CV,q,q,c,c,TRUE,1,831,TRUE,cv
3166,CVOE_C,11,1,2,56,J 27,J,7,,,TRUE,CV,q,q,c,c,TRUE,1,421,TRUE,cv
3167,CVOE_C,11,1,2,57,S 06,S,6,,,FALSE,CV,q,q,c,c,TRUE,1,491,TRUE,cv
3168,CVOE_C,11,1,2,58,D 67,D,7,,,TRUE,CV,q,q,c,c,TRUE,1,446,TRUE,cv
3169,CVOE_C,11,1,2,59,A 79,A,9,,,FALSE,CV,p,p,v,v,TRUE,1,398,TRUE,cv
3170,CVOE_C,11,1,2,60,S 52,S,2,,,FALSE,CV,q,q,c,c,TRUE,1,479,TRUE,cv
3171,CVOE_C,11,1,2,61,U 16,U,6,,,TRUE,CV,p,p,v,v,TRUE,1,503,TRUE,cv
3172,CVOE_C,11,1,2,62,O 82,O,2,,,TRUE,CV,p,p,v,v,TRUE,1,837,TRUE,cv
3173,CVOE_C,11,1,2,63,H 87,H,7,,,TRUE,CV,q,q,c,c,TRUE,1,509,TRUE,cv
3174,CVOE_C,11,1,2,64,I 32,I,2,,,TRUE,CV,p,p,v,v,TRUE,1,451,TRUE,cv
3175,CVOE_C,11,1,2,65,U 37,U,7,,,FALSE,CV,p,p,v,v,TRUE,1,574,TRUE,cv
3176,CVOE_C,11,1,2,66,I 42,I,2,,,TRUE,CV,p,p,v,v,TRUE,1,409,TRUE,cv
3177,CVOE_C,11,1,2,67,D 65,D,5,,,TRUE,CV,q,q,c,c,TRUE,1,420,TRUE,cv
3178,CVOE_C,11,1,2,68,U 77,U,7,,,FALSE,CV,p,p,v,v,TRUE,1,447,TRUE,cv
3179,CVOE_C,11,1,2,69,E 12,E,2,,,TRUE,CV,q,p,c,v,FALSE,0,368,FALSE,cv
3180,CVOE_C,11,1,2,70,I 60,I,0,,,TRUE,CV,p,p,v,v,TRUE,1,544,TRUE,cv
3181,CVOE_C,11,1,2,71,J 36,J,6,,,FALSE,CV,q,q,c,c,TRUE,1,646,TRUE,cv
3182,CVOE_C,11,1,2,72,H 75,H,5,,,TRUE,CV,q,q,c,c,TRUE,1,646,TRUE,cv
3183,CVOE_C,11,1,2,73,I 50,I,0,,,TRUE,CV,p,p,v,v,TRUE,1,1543,TRUE,cv
3184,CVOE_C,11,1,2,74,E 99,E,9,,,FALSE,CV,p,p,v,v,TRUE,1,381,TRUE,cv
3185,CVOE_C,11,1,2,75,A 86,A,6,,,TRUE,CV,p,p,v,v,TRUE,1,520,TRUE,cv
3186,CVOE_C,11,1,2,76,U 48,U,8,,,TRUE,CV,p,p,v,v,TRUE,1,408,TRUE,cv
3187,CVOE_C,11,1,2,77,E 01,E,1,,,FALSE,CV,p,p,v,v,TRUE,1,763,TRUE,cv
3188,CVOE_C,11,1,2,78,A 78,A,8,,,TRUE,CV,p,p,v,v,TRUE,1,460,TRUE,cv
3189,CVOE_C,11,1,2,79,P 60,P,0,,,FALSE,CV,q,q,c,c,TRUE,1,471,TRUE,cv
3190,CVOE_C,11,1,2,80,E 43,E,3,,,FALSE,CV,p,p,v,v,TRUE,1,428,TRUE,cv
3191,CVOE_C,11,1,2,81,D 69,D,9,,,TRUE,CV,q,q,c,c,TRUE,1,578,TRUE,cv
3192,CVOE_C,11,1,2,82,H 11,H,1,,,TRUE,CV,q,q,c,c,TRUE,1,1333,TRUE,cv
3193,CVOE_C,11,1,2,83,P 43,P,3,,,TRUE,CV,q,q,c,c,TRUE,1,696,TRUE,cv
3194,CVOE_C,11,1,2,84,O 67,O,7,,,FALSE,CV,p,p,v,v,TRUE,1,460,TRUE,cv
3195,CVOE_C,11,1,2,85,S 91,S,1,,,FALSE,CV,q,q,c,c,TRUE,1,559,TRUE,cv
3196,CVOE_C,11,1,2,86,J 68,J,8,,,TRUE,CV,q,q,c,c,TRUE,1,407,TRUE,cv
3197,CVOE_C,11,1,2,87,S 47,S,7,,,FALSE,CV,q,q,c,c,TRUE,1,367,TRUE,cv
3198,CVOE_C,11,1,2,88,I 81,I,1,,,TRUE,CV,p,p,v,v,TRUE,1,568,TRUE,cv
3199,CVOE_C,11,1,2,89,J 39,J,9,,,FALSE,CV,q,q,c,c,TRUE,1,459,TRUE,cv
3200,CVOE_C,11,1,2,90,A 11,A,1,,,TRUE,CV,p,p,v,v,TRUE,1,502,TRUE,cv
3201,CVOE_C,11,1,2,91,O 76,O,6,,,FALSE,CV,p,p,v,v,TRUE,1,436,TRUE,cv
3202,CVOE_C,11,1,2,92,A 62,A,2,,,FALSE,CV,p,p,v,v,TRUE,1,372,TRUE,cv
3203,CVOE_C,11,1,2,93,O 27,O,7,,,TRUE,CV,p,p,v,v,TRUE,1,407,TRUE,cv
3204,CVOE_C,11,1,2,94,E 66,E,6,,,FALSE,CV,p,p,v,v,TRUE,1,439,TRUE,cv
3205,CVOE_C,11,1,2,95,J 62,J,2,,,TRUE,CV,q,q,c,c,TRUE,1,536,TRUE,cv
3206,CVOE_C,11,1,2,96,H 72,H,2,,,TRUE,CV,q,q,c,c,TRUE,1,483,TRUE,cv
3207,CVOE_C,11,1,2,97,E 49,E,9,,,TRUE,CV,p,p,v,v,TRUE,1,403,TRUE,cv
3208,CVOE_C,11,1,2,98,D 52,D,2,,,TRUE,CV,q,q,c,c,TRUE,1,467,TRUE,cv
3209,CVOE_C,11,1,2,99,H 62,H,2,,,TRUE,CV,q,q,c,c,TRUE,1,809,TRUE,cv
3210,CVOE_C,11,1,2,100,I 11,I,1,,,TRUE,CV,p,p,v,v,TRUE,1,516,TRUE,cv
3211,CVOE_C,11,1,2,101,A 98,A,8,,,FALSE,CV,p,p,v,v,TRUE,1,789,TRUE,cv
3212,CVOE_C,11,1,2,102,H 29,H,9,,,FALSE,CV,q,q,c,c,TRUE,1,507,TRUE,cv
3213,CVOE_C,11,1,2,103,E 83,E,3,,,TRUE,CV,p,p,v,v,TRUE,1,400,TRUE,cv
3214,CVOE_C,11,1,2,104,D 43,D,3,,,FALSE,CV,q,q,c,c,TRUE,1,537,TRUE,cv
3215,CVOE_C,11,1,2,105,P 45,P,5,,,TRUE,CV,q,q,c,c,TRUE,1,572,TRUE,cv
3216,CVOE_C,11,1,2,106,J 17,J,7,,,TRUE,CV,q,q,c,c,TRUE,1,375,TRUE,cv
3553,CVOE_C,15,1,2,11,A 71,A,1,,,FALSE,CV,p,p,v,v,TRUE,1,1555,TRUE,cv
3554,CVOE_C,15,1,2,12,I 66,I,6,,,TRUE,CV,p,p,v,v,TRUE,1,1180,TRUE,cv
3555,CVOE_C,15,1,2,13,S 30,S,0,,,FALSE,CV,q,q,c,c,TRUE,1,442,TRUE,cv
3556,CVOE_C,15,1,2,14,D 20,D,0,,,FALSE,CV,q,q,c,c,TRUE,1,450,TRUE,cv
3557,CVOE_C,15,1,2,15,I 31,I,1,,,FALSE,CV,p,p,v,v,TRUE,1,430,TRUE,cv
3558,CVOE_C,15,1,2,16,P 16,P,6,,,FALSE,CV,q,q,c,c,TRUE,1,603,TRUE,cv
3559,CVOE_C,15,1,2,17,A 49,A,9,,,FALSE,CV,p,p,v,v,TRUE,1,500,TRUE,cv
3560,CVOE_C,15,1,2,18,O 64,O,4,,,TRUE,CV,p,p,v,v,TRUE,1,415,TRUE,cv
3561,CVOE_C,15,1,2,19,D 02,D,2,,,FALSE,CV,q,q,c,c,TRUE,1,1338,TRUE,cv
3562,CVOE_C,15,1,2,20,P 81,P,1,,,TRUE,CV,q,q,c,c,TRUE,1,437,TRUE,cv
3563,CVOE_C,15,1,2,21,J 58,J,8,,,FALSE,CV,q,q,c,c,TRUE,1,429,TRUE,cv
3564,CVOE_C,15,1,2,22,A 22,A,2,,,TRUE,CV,p,p,v,v,TRUE,1,419,TRUE,cv
3565,CVOE_C,15,1,2,23,J 72,J,2,,,FALSE,CV,q,q,c,c,TRUE,1,414,TRUE,cv
3566,CVOE_C,15,1,2,24,P 91,P,1,,,TRUE,CV,q,q,c,c,TRUE,1,377,TRUE,cv
3567,CVOE_C,15,1,2,25,E 19,E,9,,,FALSE,CV,p,p,v,v,TRUE,1,404,TRUE,cv
3568,CVOE_C,15,1,2,26,I 30,I,0,,,TRUE,CV,p,p,v,v,TRUE,1,413,TRUE,cv
3569,CVOE_C,15,1,2,27,D 91,D,1,,,TRUE,CV,q,q,c,c,TRUE,1,512,TRUE,cv
3570,CVOE_C,15,1,2,28,O 48,O,8,,,TRUE,CV,p,p,v,v,TRUE,1,381,TRUE,cv
3571,CVOE_C,15,1,2,29,A 89,A,9,,,FALSE,CV,q,p,c,v,FALSE,0,339,FALSE,cv
3572,CVOE_C,15,1,2,30,U 11,U,1,,,FALSE,CV,q,p,c,v,FALSE,0,614,FALSE,cv
3573,CVOE_C,15,1,2,31,I 76,I,6,,,TRUE,CV,p,p,v,v,TRUE,1,481,TRUE,cv
3574,CVOE_C,15,1,2,32,U 89,U,9,,,FALSE,CV,p,p,v,v,TRUE,1,497,TRUE,cv
3575,CVOE_C,15,1,2,33,D 63,D,3,,,TRUE,CV,q,q,c,c,TRUE,1,628,TRUE,cv
3576,CVOE_C,15,1,2,34,H 70,H,0,,,FALSE,CV,q,q,c,c,TRUE,1,674,TRUE,cv
3577,CVOE_C,15,1,2,35,D 48,D,8,,,FALSE,CV,q,q,c,c,TRUE,1,467,TRUE,cv
3578,CVOE_C,15,1,2,36,P 56,P,6,,,FALSE,CV,q,q,c,c,TRUE,1,368,TRUE,cv
3579,CVOE_C,15,1,2,37,O 77,O,7,,,FALSE,CV,p,p,v,v,TRUE,1,379,TRUE,cv
3580,CVOE_C,15,1,2,38,P 42,P,2,,,FALSE,CV,q,q,c,c,TRUE,1,350,TRUE,cv
3581,CVOE_C,15,1,2,39,H 22,H,2,,,FALSE,CV,q,q,c,c,TRUE,1,404,TRUE,cv
3582,CVOE_C,15,1,2,40,E 42,E,2,,,TRUE,CV,p,p,v,v,TRUE,1,436,TRUE,cv
3583,CVOE_C,15,1,2,41,J 28,J,8,,,FALSE,CV,q,q,c,c,TRUE,1,405,TRUE,cv
3584,CVOE_C,15,1,2,42,E 95,E,5,,,FALSE,CV,q,p,c,v,FALSE,0,301,FALSE,cv
3585,CVOE_C,15,1,2,43,S 63,S,3,,,TRUE,CV,q,q,c,c,TRUE,1,523,TRUE,cv
3586,CVOE_C,15,1,2,44,H 50,H,0,,,FALSE,CV,q,q,c,c,TRUE,1,363,TRUE,cv
3587,CVOE_C,15,1,2,45,S 33,S,3,,,TRUE,CV,q,q,c,c,TRUE,1,467,TRUE,cv
3588,CVOE_C,15,1,2,46,P 57,P,7,,,TRUE,CV,q,q,c,c,TRUE,1,329,TRUE,cv
3589,CVOE_C,15,1,2,47,E 23,E,3,,,FALSE,CV,p,p,v,v,TRUE,1,348,TRUE,cv
3590,CVOE_C,15,1,2,48,S 61,S,1,,,TRUE,CV,q,q,c,c,TRUE,1,578,TRUE,cv
3591,CVOE_C,15,1,2,49,U 67,U,7,,,FALSE,CV,p,p,v,v,TRUE,1,669,TRUE,cv
3592,CVOE_C,15,1,2,50,H 32,H,2,,,FALSE,CV,q,q,c,c,TRUE,1,547,TRUE,cv
3593,CVOE_C,15,1,2,51,U 50,U,0,,,TRUE,CV,p,p,v,v,TRUE,1,312,TRUE,cv
3594,CVOE_C,15,1,2,52,O 49,O,9,,,FALSE,CV,p,p,v,v,TRUE,1,462,TRUE,cv
3595,CVOE_C,15,1,2,53,U 32,U,2,,,TRUE,CV,p,p,v,v,TRUE,1,388,TRUE,cv
3596,CVOE_C,15,1,2,54,J 78,J,8,,,FALSE,CV,q,q,c,c,TRUE,1,345,TRUE,cv
3597,CVOE_C,15,1,2,55,S 54,S,4,,,FALSE,CV,q,q,c,c,TRUE,1,367,TRUE,cv
3598,CVOE_C,15,1,2,56,J 27,J,7,,,TRUE,CV,q,q,c,c,TRUE,1,354,TRUE,cv
3599,CVOE_C,15,1,2,57,S 06,S,6,,,FALSE,CV,q,q,c,c,TRUE,1,1354,TRUE,cv
3600,CVOE_C,15,1,2,58,D 67,D,7,,,TRUE,CV,q,q,c,c,TRUE,1,379,TRUE,cv
3601,CVOE_C,15,1,2,59,A 79,A,9,,,FALSE,CV,p,p,v,v,TRUE,1,462,TRUE,cv
3602,CVOE_C,15,1,2,60,S 52,S,2,,,FALSE,CV,q,q,c,c,TRUE,1,460,TRUE,cv
3603,CVOE_C,15,1,2,61,U 16,U,6,,,TRUE,CV,p,p,v,v,TRUE,1,431,TRUE,cv
3604,CVOE_C,15,1,2,62,O 82,O,2,,,TRUE,CV,p,p,v,v,TRUE,1,357,TRUE,cv
3605,CVOE_C,15,1,2,63,H 87,H,7,,,TRUE,CV,q,q,c,c,TRUE,1,349,TRUE,cv
3606,CVOE_C,15,1,2,64,I 32,I,2,,,TRUE,CV,p,p,v,v,TRUE,1,403,TRUE,cv
3607,CVOE_C,15,1,2,65,U 37,U,7,,,FALSE,CV,p,p,v,v,TRUE,1,803,TRUE,cv
3608,CVOE_C,15,1,2,66,I 42,I,2,,,TRUE,CV,p,p,v,v,TRUE,1,355,TRUE,cv
3609,CVOE_C,15,1,2,67,D 65,D,5,,,TRUE,CV,q,q,c,c,TRUE,1,300,TRUE,cv
3610,CVOE_C,15,1,2,68,U 77,U,7,,,FALSE,CV,p,p,v,v,TRUE,1,343,TRUE,cv
3611,CVOE_C,15,1,2,69,E 12,E,2,,,TRUE,CV,p,p,v,v,TRUE,1,396,TRUE,cv
3612,CVOE_C,15,1,2,70,I 60,I,0,,,TRUE,CV,p,p,v,v,TRUE,1,365,TRUE,cv
3613,CVOE_C,15,1,2,71,J 36,J,6,,,FALSE,CV,p,q,v,c,FALSE,0,333,FALSE,cv
3614,CVOE_C,15,1,2,72,H 75,H,5,,,TRUE,CV,q,q,c,c,TRUE,1,392,TRUE,cv
3615,CVOE_C,15,1,2,73,I 50,I,0,,,TRUE,CV,p,p,v,v,TRUE,1,366,TRUE,cv
3616,CVOE_C,15,1,2,74,E 99,E,9,,,FALSE,CV,q,p,c,v,FALSE,0,350,FALSE,cv
3617,CVOE_C,15,1,2,75,A 86,A,6,,,TRUE,CV,q,p,c,v,FALSE,0,340,FALSE,cv
3618,CVOE_C,15,1,2,76,U 48,U,8,,,TRUE,CV,p,p,v,v,TRUE,1,591,TRUE,cv
3619,CVOE_C,15,1,2,77,E 01,E,1,,,FALSE,CV,p,p,v,v,TRUE,1,405,TRUE,cv
3620,CVOE_C,15,1,2,78,A 78,A,8,,,TRUE,CV,p,p,v,v,TRUE,1,429,TRUE,cv
3621,CVOE_C,15,1,2,79,P 60,P,0,,,FALSE,CV,q,q,c,c,TRUE,1,307,TRUE,cv
3622,CVOE_C,15,1,2,80,E 43,E,3,,,FALSE,CV,p,p,v,v,TRUE,1,344,TRUE,cv
3623,CVOE_C,15,1,2,81,D 69,D,9,,,TRUE,CV,q,q,c,c,TRUE,1,278,TRUE,cv
3624,CVOE_C,15,1,2,82,H 11,H,1,,,TRUE,CV,q,q,c,c,TRUE,1,382,TRUE,cv
3625,CVOE_C,15,1,2,83,P 43,P,3,,,TRUE,CV,q,q,c,c,TRUE,1,380,TRUE,cv
3626,CVOE_C,15,1,2,84,O 67,O,7,,,FALSE,CV,p,p,v,v,TRUE,1,431,TRUE,cv
3627,CVOE_C,15,1,2,85,S 91,S,1,,,FALSE,CV,p,q,v,c,FALSE,0,357,FALSE,cv
3628,CVOE_C,15,1,2,86,J 68,J,8,,,TRUE,CV,q,q,c,c,TRUE,1,469,TRUE,cv
3629,CVOE_C,15,1,2,87,S 47,S,7,,,FALSE,CV,q,q,c,c,TRUE,1,371,TRUE,cv
3630,CVOE_C,15,1,2,88,I 81,I,1,,,TRUE,CV,p,p,v,v,TRUE,1,478,TRUE,cv
3631,CVOE_C,15,1,2,89,J 39,J,9,,,FALSE,CV,q,q,c,c,TRUE,1,462,TRUE,cv
3632,CVOE_C,15,1,2,90,A 11,A,1,,,TRUE,CV,q,p,c,v,FALSE,0,380,FALSE,cv
3633,CVOE_C,15,1,2,91,O 76,O,6,,,FALSE,CV,p,p,v,v,TRUE,1,457,TRUE,cv
3634,CVOE_C,15,1,2,92,A 62,A,2,,,FALSE,CV,p,p,v,v,TRUE,1,620,TRUE,cv
3635,CVOE_C,15,1,2,93,O 27,O,7,,,TRUE,CV,p,p,v,v,TRUE,1,354,TRUE,cv
3636,CVOE_C,15,1,2,94,E 66,E,6,,,FALSE,CV,p,p,v,v,TRUE,1,411,TRUE,cv
3637,CVOE_C,15,1,2,95,J 62,J,2,,,TRUE,CV,q,q,c,c,TRUE,1,494,TRUE,cv
3638,CVOE_C,15,1,2,96,H 72,H,2,,,TRUE,CV,q,q,c,c,TRUE,1,521,TRUE,cv
3639,CVOE_C,15,1,2,97,E 49,E,9,,,TRUE,CV,p,p,v,v,TRUE,1,361,TRUE,cv
3640,CVOE_C,15,1,2,98,D 52,D,2,,,TRUE,CV,q,q,c,c,TRUE,1,329,TRUE,cv
3641,CVOE_C,15,1,2,99,H 62,H,2,,,TRUE,CV,q,q,c,c,TRUE,1,396,TRUE,cv
3642,CVOE_C,15,1,2,100,I 11,I,1,,,TRUE,CV,p,p,v,v,TRUE,1,397,TRUE,cv
3643,CVOE_C,15,1,2,101,A 98,A,8,,,FALSE,CV,p,p,v,v,TRUE,1,501,TRUE,cv
3644,CVOE_C,15,1,2,102,H 29,H,9,,,FALSE,CV,p,q,v,c,FALSE,0,363,FALSE,cv
3645,CVOE_C,15,1,2,103,E 83,E,3,,,TRUE,CV,q,p,c,v,FALSE,0,299,FALSE,cv
3646,CVOE_C,15,1,2,104,D 43,D,3,,,FALSE,CV,q,q,c,c,TRUE,1,518,TRUE,cv
3647,CVOE_C,15,1,2,105,P 45,P,5,,,TRUE,CV,q,q,c,c,TRUE,1,430,TRUE,cv
3648,CVOE_C,15,1,2,106,J 17,J,7,,,TRUE,CV,q,q,c,c,TRUE,1,316,TRUE,cv
3985,CVOE_C,7,1,2,11,A 71,A,1,,,FALSE,CV,p,p,v,v,TRUE,1,3005,TRUE,cv
3986,CVOE_C,7,1,2,12,I 66,I,6,,,TRUE,CV,p,p,v,v,TRUE,1,830,TRUE,cv
3987,CVOE_C,7,1,2,13,S 30,S,0,,,FALSE,CV,q,q,c,c,TRUE,1,668,TRUE,cv
3988,CVOE_C,7,1,2,14,D 20,D,0,,,FALSE,CV,q,q,c,c,TRUE,1,754,TRUE,cv
3989,CVOE_C,7,1,2,15,I 31,I,1,,,FALSE,CV,p,p,v,v,TRUE,1,874,TRUE,cv
3990,CVOE_C,7,1,2,16,P 16,P,6,,,FALSE,CV,q,q,c,c,TRUE,1,859,TRUE,cv
3991,CVOE_C,7,1,2,17,A 49,A,9,,,FALSE,CV,p,p,v,v,TRUE,1,902,TRUE,cv
3992,CVOE_C,7,1,2,18,O 64,O,4,,,TRUE,CV,p,p,v,v,TRUE,1,1076,TRUE,cv
3993,CVOE_C,7,1,2,19,D 02,D,2,,,FALSE,CV,q,q,c,c,TRUE,1,581,TRUE,cv
3994,CVOE_C,7,1,2,20,P 81,P,1,,,TRUE,CV,q,q,c,c,TRUE,1,1338,TRUE,cv
3995,CVOE_C,7,1,2,21,J 58,J,8,,,FALSE,CV,q,q,c,c,TRUE,1,646,TRUE,cv
3996,CVOE_C,7,1,2,22,A 22,A,2,,,TRUE,CV,p,p,v,v,TRUE,1,606,TRUE,cv
3997,CVOE_C,7,1,2,23,J 72,J,2,,,FALSE,CV,q,q,c,c,TRUE,1,601,TRUE,cv
3998,CVOE_C,7,1,2,24,P 91,P,1,,,TRUE,CV,q,q,c,c,TRUE,1,986,TRUE,cv
3999,CVOE_C,7,1,2,25,E 19,E,9,,,FALSE,CV,p,p,v,v,TRUE,1,1024,TRUE,cv
4000,CVOE_C,7,1,2,26,I 30,I,0,,,TRUE,CV,p,p,v,v,TRUE,1,694,TRUE,cv
4001,CVOE_C,7,1,2,27,D 91,D,1,,,TRUE,CV,q,q,c,c,TRUE,1,697,TRUE,cv
4002,CVOE_C,7,1,2,28,O 48,O,8,,,TRUE,CV,p,p,v,v,TRUE,1,636,TRUE,cv
4003,CVOE_C,7,1,2,29,A 89,A,9,,,FALSE,CV,p,p,v,v,TRUE,1,764,TRUE,cv
4004,CVOE_C,7,1,2,30,U 11,U,1,,,FALSE,CV,p,p,v,v,TRUE,1,789,TRUE,cv
4005,CVOE_C,7,1,2,31,I 76,I,6,,,TRUE,CV,p,p,v,v,TRUE,1,787,TRUE,cv
4006,CVOE_C,7,1,2,32,U 89,U,9,,,FALSE,CV,p,p,v,v,TRUE,1,672,TRUE,cv
4007,CVOE_C,7,1,2,33,D 63,D,3,,,TRUE,CV,q,q,c,c,TRUE,1,614,TRUE,cv
4008,CVOE_C,7,1,2,34,H 70,H,0,,,FALSE,CV,q,q,c,c,TRUE,1,857,TRUE,cv
4009,CVOE_C,7,1,2,35,D 48,D,8,,,FALSE,CV,q,q,c,c,TRUE,1,597,TRUE,cv
4010,CVOE_C,7,1,2,36,P 56,P,6,,,FALSE,CV,q,q,c,c,TRUE,1,861,TRUE,cv
4011,CVOE_C,7,1,2,37,O 77,O,7,,,FALSE,CV,p,p,v,v,TRUE,1,699,TRUE,cv
4012,CVOE_C,7,1,2,38,P 42,P,2,,,FALSE,CV,q,q,c,c,TRUE,1,598,TRUE,cv
4013,CVOE_C,7,1,2,39,H 22,H,2,,,FALSE,CV,q,q,c,c,TRUE,1,1014,TRUE,cv
4014,CVOE_C,7,1,2,40,E 42,E,2,,,TRUE,CV,p,p,v,v,TRUE,1,954,TRUE,cv
4015,CVOE_C,7,1,2,41,J 28,J,8,,,FALSE,CV,q,q,c,c,TRUE,1,1394,TRUE,cv
4016,CVOE_C,7,1,2,42,E 95,E,5,,,FALSE,CV,p,p,v,v,TRUE,1,595,TRUE,cv
4017,CVOE_C,7,1,2,43,S 63,S,3,,,TRUE,CV,q,q,c,c,TRUE,1,587,TRUE,cv
4018,CVOE_C,7,1,2,44,H 50,H,0,,,FALSE,CV,q,q,c,c,TRUE,1,1201,TRUE,cv
4019,CVOE_C,7,1,2,45,S 33,S,3,,,TRUE,CV,q,q,c,c,TRUE,1,642,TRUE,cv
4020,CVOE_C,7,1,2,46,P 57,P,7,,,TRUE,CV,q,q,c,c,TRUE,1,1034,TRUE,cv
4021,CVOE_C,7,1,2,47,E 23,E,3,,,FALSE,CV,p,p,v,v,TRUE,1,923,TRUE,cv
4022,CVOE_C,7,1,2,48,S 61,S,1,,,TRUE,CV,q,q,c,c,TRUE,1,587,TRUE,cv
4023,CVOE_C,7,1,2,49,U 67,U,7,,,FALSE,CV,p,p,v,v,TRUE,1,697,TRUE,cv
4024,CVOE_C,7,1,2,50,H 32,H,2,,,FALSE,CV,q,q,c,c,TRUE,1,516,TRUE,cv
4025,CVOE_C,7,1,2,51,U 50,U,0,,,TRUE,CV,p,p,v,v,TRUE,1,653,TRUE,cv
4026,CVOE_C,7,1,2,52,O 49,O,9,,,FALSE,CV,p,p,v,v,TRUE,1,776,TRUE,cv
4027,CVOE_C,7,1,2,53,U 32,U,2,,,TRUE,CV,p,p,v,v,TRUE,1,675,TRUE,cv
4028,CVOE_C,7,1,2,54,J 78,J,8,,,FALSE,CV,q,q,c,c,TRUE,1,539,TRUE,cv
4029,CVOE_C,7,1,2,55,S 54,S,4,,,FALSE,CV,q,q,c,c,TRUE,1,942,TRUE,cv
4030,CVOE_C,7,1,2,56,J 27,J,7,,,TRUE,CV,q,q,c,c,TRUE,1,572,TRUE,cv
4031,CVOE_C,7,1,2,57,S 06,S,6,,,FALSE,CV,q,q,c,c,TRUE,1,647,TRUE,cv
4032,CVOE_C,7,1,2,58,D 67,D,7,,,TRUE,CV,q,q,c,c,TRUE,1,691,TRUE,cv
4033,CVOE_C,7,1,2,59,A 79,A,9,,,FALSE,CV,p,p,v,v,TRUE,1,598,TRUE,cv
4034,CVOE_C,7,1,2,60,S 52,S,2,,,FALSE,CV,q,q,c,c,TRUE,1,494,TRUE,cv
4035,CVOE_C,7,1,2,61,U 16,U,6,,,TRUE,CV,p,p,v,v,TRUE,1,465,TRUE,cv
4036,CVOE_C,7,1,2,62,O 82,O,2,,,TRUE,CV,p,p,v,v,TRUE,1,511,TRUE,cv
4037,CVOE_C,7,1,2,63,H 87,H,7,,,TRUE,CV,q,q,c,c,TRUE,1,573,TRUE,cv
4038,CVOE_C,7,1,2,64,I 32,I,2,,,TRUE,CV,p,p,v,v,TRUE,1,592,TRUE,cv
4039,CVOE_C,7,1,2,65,U 37,U,7,,,FALSE,CV,p,p,v,v,TRUE,1,549,TRUE,cv
4040,CVOE_C,7,1,2,66,I 42,I,2,,,TRUE,CV,p,p,v,v,TRUE,1,515,TRUE,cv
4041,CVOE_C,7,1,2,67,D 65,D,5,,,TRUE,CV,q,q,c,c,TRUE,1,652,TRUE,cv
4042,CVOE_C,7,1,2,68,U 77,U,7,,,FALSE,CV,p,p,v,v,TRUE,1,599,TRUE,cv
4043,CVOE_C,7,1,2,69,E 12,E,2,,,TRUE,CV,p,p,v,v,TRUE,1,999,TRUE,cv
4044,CVOE_C,7,1,2,70,I 60,I,0,,,TRUE,CV,p,p,v,v,TRUE,1,784,TRUE,cv
4045,CVOE_C,7,1,2,71,J 36,J,6,,,FALSE,CV,q,q,c,c,TRUE,1,582,TRUE,cv
4046,CVOE_C,7,1,2,72,H 75,H,5,,,TRUE,CV,q,q,c,c,TRUE,1,579,TRUE,cv
4047,CVOE_C,7,1,2,73,I 50,I,0,,,TRUE,CV,p,p,v,v,TRUE,1,1022,TRUE,cv
4048,CVOE_C,7,1,2,74,E 99,E,9,,,FALSE,CV,p,p,v,v,TRUE,1,956,TRUE,cv
4049,CVOE_C,7,1,2,75,A 86,A,6,,,TRUE,CV,p,p,v,v,TRUE,1,805,TRUE,cv
4050,CVOE_C,7,1,2,76,U 48,U,8,,,TRUE,CV,p,p,v,v,TRUE,1,1085,TRUE,cv
4051,CVOE_C,7,1,2,77,E 01,E,1,,,FALSE,CV,p,p,v,v,TRUE,1,574,TRUE,cv
4052,CVOE_C,7,1,2,78,A 78,A,8,,,TRUE,CV,p,p,v,v,TRUE,1,497,TRUE,cv
4053,CVOE_C,7,1,2,79,P 60,P,0,,,FALSE,CV,q,q,c,c,TRUE,1,548,TRUE,cv
4054,CVOE_C,7,1,2,80,E 43,E,3,,,FALSE,CV,p,p,v,v,TRUE,1,562,TRUE,cv
4055,CVOE_C,7,1,2,81,D 69,D,9,,,TRUE,CV,q,q,c,c,TRUE,1,570,TRUE,cv
4056,CVOE_C,7,1,2,82,H 11,H,1,,,TRUE,CV,q,q,c,c,TRUE,1,981,TRUE,cv
4057,CVOE_C,7,1,2,83,P 43,P,3,,,TRUE,CV,q,q,c,c,TRUE,1,1235,TRUE,cv
4058,CVOE_C,7,1,2,84,O 67,O,7,,,FALSE,CV,p,p,v,v,TRUE,1,628,TRUE,cv
4059,CVOE_C,7,1,2,85,S 91,S,1,,,FALSE,CV,q,q,c,c,TRUE,1,922,TRUE,cv
4060,CVOE_C,7,1,2,86,J 68,J,8,,,TRUE,CV,q,q,c,c,TRUE,1,1162,TRUE,cv
4061,CVOE_C,7,1,2,87,S 47,S,7,,,FALSE,CV,q,q,c,c,TRUE,1,467,TRUE,cv
4062,CVOE_C,7,1,2,88,I 81,I,1,,,TRUE,CV,p,p,v,v,TRUE,1,721,TRUE,cv
4063,CVOE_C,7,1,2,89,J 39,J,9,,,FALSE,CV,q,q,c,c,TRUE,1,537,TRUE,cv
4064,CVOE_C,7,1,2,90,A 11,A,1,,,TRUE,CV,p,p,v,v,TRUE,1,556,TRUE,cv
4065,CVOE_C,7,1,2,91,O 76,O,6,,,FALSE,CV,p,p,v,v,TRUE,1,445,TRUE,cv
4066,CVOE_C,7,1,2,92,A 62,A,2,,,FALSE,CV,p,p,v,v,TRUE,1,573,TRUE,cv
4067,CVOE_C,7,1,2,93,O 27,O,7,,,TRUE,CV,p,p,v,v,TRUE,1,800,TRUE,cv
4068,CVOE_C,7,1,2,94,E 66,E,6,,,FALSE,CV,p,p,v,v,TRUE,1,832,TRUE,cv
4069,CVOE_C,7,1,2,95,J 62,J,2,,,TRUE,CV,q,q,c,c,TRUE,1,494,TRUE,cv
4070,CVOE_C,7,1,2,96,H 72,H,2,,,TRUE,CV,q,q,c,c,TRUE,1,441,TRUE,cv
4071,CVOE_C,7,1,2,97,E 49,E,9,,,TRUE,CV,p,p,v,v,TRUE,1,602,TRUE,cv
4072,CVOE_C,7,1,2,98,D 52,D,2,,,TRUE,CV,q,q,c,c,TRUE,1,682,TRUE,cv
4073,CVOE_C,7,1,2,99,H 62,H,2,,,TRUE,CV,q,q,c,c,TRUE,1,579,TRUE,cv
4074,CVOE_C,7,1,2,100,I 11,I,1,,,TRUE,CV,p,p,v,v,TRUE,1,494,TRUE,cv
4075,CVOE_C,7,1,2,101,A 98,A,8,,,FALSE,CV,p,p,v,v,TRUE,1,825,TRUE,cv
4076,CVOE_C,7,1,2,102,H 29,H,9,,,FALSE,CV,q,q,c,c,TRUE,1,687,TRUE,cv
4077,CVOE_C,7,1,2,103,E 83,E,3,,,TRUE,CV,p,p,v,v,TRUE,1,554,TRUE,cv
4078,CVOE_C,7,1,2,104,D 43,D,3,,,FALSE,CV,q,q,c,c,TRUE,1,562,TRUE,cv
4079,CVOE_C,7,1,2,105,P 45,P,5,,,TRUE,CV,q,q,c,c,TRUE,1,491,TRUE,cv
4080,CVOE_C,7,1,2,106,J 17,J,7,,,TRUE,CV,q,q,c,c,TRUE,1,518,TRUE,cv
4321,CVOE_D,4,1,1,11,A 71,A,1,,,FALSE,CV,p,p,v,v,TRUE,1,1212,TRUE,cv
4322,CVOE_D,4,1,1,12,I 66,I,6,,,TRUE,CV,p,p,v,v,TRUE,1,840,TRUE,cv
4323,CVOE_D,4,1,1,13,S 30,S,0,,,FALSE,CV,q,q,c,c,TRUE,1,728,TRUE,cv
4324,CVOE_D,4,1,1,14,D 20,D,0,,,FALSE,CV,q,q,c,c,TRUE,1,1075,TRUE,cv
4325,CVOE_D,4,1,1,15,I 31,I,1,,,FALSE,CV,p,p,v,v,TRUE,1,708,TRUE,cv
4326,CVOE_D,4,1,1,16,P 16,P,6,,,FALSE,CV,q,q,c,c,TRUE,1,802,TRUE,cv
4327,CVOE_D,4,1,1,17,A 49,A,9,,,FALSE,CV,p,p,v,v,TRUE,1,706,TRUE,cv
4328,CVOE_D,4,1,1,18,O 64,O,4,,,TRUE,CV,p,p,v,v,TRUE,1,776,TRUE,cv
4329,CVOE_D,4,1,1,19,D 02,D,2,,,FALSE,CV,q,q,c,c,TRUE,1,851,TRUE,cv
4330,CVOE_D,4,1,1,20,P 81,P,1,,,TRUE,CV,q,q,c,c,TRUE,1,1006,TRUE,cv
4331,CVOE_D,4,1,1,21,J 58,J,8,,,FALSE,CV,q,q,c,c,TRUE,1,687,TRUE,cv
4332,CVOE_D,4,1,1,22,A 22,A,2,,,TRUE,CV,p,p,v,v,TRUE,1,959,TRUE,cv
4333,CVOE_D,4,1,1,23,J 72,J,2,,,FALSE,CV,q,q,c,c,TRUE,1,1439,TRUE,cv
4334,CVOE_D,4,1,1,24,P 91,P,1,,,TRUE,CV,q,q,c,c,TRUE,1,889,TRUE,cv
4335,CVOE_D,4,1,1,25,E 19,E,9,,,FALSE,CV,p,p,v,v,TRUE,1,860,TRUE,cv
4336,CVOE_D,4,1,1,26,I 30,I,0,,,TRUE,CV,p,p,v,v,TRUE,1,743,TRUE,cv
4337,CVOE_D,4,1,1,27,D 91,D,1,,,TRUE,CV,q,q,c,c,TRUE,1,1597,TRUE,cv
4338,CVOE_D,4,1,1,28,O 48,O,8,,,TRUE,CV,p,p,v,v,TRUE,1,3798,TRUE,cv
4339,CVOE_D,4,1,1,29,A 89,A,9,,,FALSE,CV,p,p,v,v,TRUE,1,663,TRUE,cv
4340,CVOE_D,4,1,1,30,U 11,U,1,,,FALSE,CV,p,p,v,v,TRUE,1,1909,TRUE,cv
4341,CVOE_D,4,1,1,31,I 76,I,6,,,TRUE,CV,p,p,v,v,TRUE,1,651,TRUE,cv
4342,CVOE_D,4,1,1,32,U 89,U,9,,,FALSE,CV,p,p,v,v,TRUE,1,950,TRUE,cv
4343,CVOE_D,4,1,1,33,D 63,D,3,,,TRUE,CV,q,q,c,c,TRUE,1,1036,TRUE,cv
4344,CVOE_D,4,1,1,34,H 70,H,0,,,FALSE,CV,q,q,c,c,TRUE,1,1157,TRUE,cv
4345,CVOE_D,4,1,1,35,D 48,D,8,,,FALSE,CV,q,q,c,c,TRUE,1,734,TRUE,cv
4346,CVOE_D,4,1,1,36,P 56,P,6,,,FALSE,CV,q,q,c,c,TRUE,1,689,TRUE,cv
4347,CVOE_D,4,1,1,37,O 77,O,7,,,FALSE,CV,p,p,v,v,TRUE,1,924,TRUE,cv
4348,CVOE_D,4,1,1,38,P 42,P,2,,,FALSE,CV,q,q,c,c,TRUE,1,756,TRUE,cv
4349,CVOE_D,4,1,1,39,H 22,H,2,,,FALSE,CV,q,q,c,c,TRUE,1,1901,TRUE,cv
4350,CVOE_D,4,1,1,40,E 42,E,2,,,TRUE,CV,p,p,v,v,TRUE,1,667,TRUE,cv
4351,CVOE_D,4,1,1,41,J 28,J,8,,,FALSE,CV,q,q,c,c,TRUE,1,897,TRUE,cv
4352,CVOE_D,4,1,1,42,E 95,E,5,,,FALSE,CV,p,p,v,v,TRUE,1,908,TRUE,cv
4353,CVOE_D,4,1,1,43,S 63,S,3,,,TRUE,CV,q,q,c,c,TRUE,1,738,TRUE,cv
4354,CVOE_D,4,1,1,44,H 50,H,0,,,FALSE,CV,q,q,c,c,TRUE,1,1133,TRUE,cv
4355,CVOE_D,4,1,1,45,S 33,S,3,,,TRUE,CV,q,q,c,c,TRUE,1,712,TRUE,cv
4356,CVOE_D,4,1,1,46,P 57,P,7,,,TRUE,CV,q,q,c,c,TRUE,1,926,TRUE,cv
4357,CVOE_D,4,1,1,47,E 23,E,3,,,FALSE,CV,p,p,v,v,TRUE,1,1031,TRUE,cv
4358,CVOE_D,4,1,1,48,S 61,S,1,,,TRUE,CV,q,q,c,c,TRUE,1,677,TRUE,cv
4359,CVOE_D,4,1,1,49,U 67,U,7,,,FALSE,CV,p,p,v,v,TRUE,1,805,TRUE,cv
4360,CVOE_D,4,1,1,50,H 32,H,2,,,FALSE,CV,q,q,c,c,TRUE,1,1102,TRUE,cv
4361,CVOE_D,4,1,1,51,U 50,U,0,,,TRUE,CV,p,p,v,v,TRUE,1,836,TRUE,cv
4362,CVOE_D,4,1,1,52,O 49,O,9,,,FALSE,CV,p,p,v,v,TRUE,1,820,TRUE,cv
4363,CVOE_D,4,1,1,53,U 32,U,2,,,TRUE,CV,p,p,v,v,TRUE,1,711,TRUE,cv
4364,CVOE_D,4,1,1,54,J 78,J,8,,,FALSE,CV,q,q,c,c,TRUE,1,749,TRUE,cv
4365,CVOE_D,4,1,1,55,S 54,S,4,,,FALSE,CV,q,q,c,c,TRUE,1,723,TRUE,cv
4366,CVOE_D,4,1,1,56,J 27,J,7,,,TRUE,CV,q,q,c,c,TRUE,1,707,TRUE,cv
4367,CVOE_D,4,1,1,57,S 06,S,6,,,FALSE,CV,q,q,c,c,TRUE,1,569,TRUE,cv
4368,CVOE_D,4,1,1,58,D 67,D,7,,,TRUE,CV,q,q,c,c,TRUE,1,1188,TRUE,cv
4369,CVOE_D,4,1,1,59,A 79,A,9,,,FALSE,CV,p,p,v,v,TRUE,1,642,TRUE,cv
4370,CVOE_D,4,1,1,60,S 52,S,2,,,FALSE,CV,q,q,c,c,TRUE,1,819,TRUE,cv
4371,CVOE_D,4,1,1,61,U 16,U,6,,,TRUE,CV,p,p,v,v,TRUE,1,709,TRUE,cv
4372,CVOE_D,4,1,1,62,O 82,O,2,,,TRUE,CV,p,p,v,v,TRUE,1,756,TRUE,cv
4373,CVOE_D,4,1,1,63,H 87,H,7,,,TRUE,CV,q,q,c,c,TRUE,1,788,TRUE,cv
4374,CVOE_D,4,1,1,64,I 32,I,2,,,TRUE,CV,p,p,v,v,TRUE,1,778,TRUE,cv
4375,CVOE_D,4,1,1,65,U 37,U,7,,,FALSE,CV,p,p,v,v,TRUE,1,1237,TRUE,cv
4376,CVOE_D,4,1,1,66,I 42,I,2,,,TRUE,CV,p,p,v,v,TRUE,1,750,TRUE,cv
4377,CVOE_D,4,1,1,67,D 65,D,5,,,TRUE,CV,q,q,c,c,TRUE,1,628,TRUE,cv
4378,CVOE_D,4,1,1,68,U 77,U,7,,,FALSE,CV,p,p,v,v,TRUE,1,785,TRUE,cv
4379,CVOE_D,4,1,1,69,E 12,E,2,,,TRUE,CV,p,p,v,v,TRUE,1,1191,TRUE,cv
4380,CVOE_D,4,1,1,70,I 60,I,0,,,TRUE,CV,p,p,v,v,TRUE,1,781,TRUE,cv
4381,CVOE_D,4,1,1,71,J 36,J,6,,,FALSE,CV,q,q,c,c,TRUE,1,699,TRUE,cv
4382,CVOE_D,4,1,1,72,H 75,H,5,,,TRUE,CV,q,q,c,c,TRUE,1,598,TRUE,cv
4383,CVOE_D,4,1,1,73,I 50,I,0,,,TRUE,CV,p,p,v,v,TRUE,1,759,TRUE,cv
4384,CVOE_D,4,1,1,74,E 99,E,9,,,FALSE,CV,p,p,v,v,TRUE,1,1423,TRUE,cv
4385,CVOE_D,4,1,1,75,A 86,A,6,,,TRUE,CV,p,p,v,v,TRUE,1,669,TRUE,cv
4386,CVOE_D,4,1,1,76,U 48,U,8,,,TRUE,CV,p,p,v,v,TRUE,1,771,TRUE,cv
4387,CVOE_D,4,1,1,77,E 01,E,1,,,FALSE,CV,p,p,v,v,TRUE,1,694,TRUE,cv
4388,CVOE_D,4,1,1,78,A 78,A,8,,,TRUE,CV,p,p,v,v,TRUE,1,721,TRUE,cv
4389,CVOE_D,4,1,1,79,P 60,P,0,,,FALSE,CV,q,q,c,c,TRUE,1,698,TRUE,cv
4390,CVOE_D,4,1,1,80,E 43,E,3,,,FALSE,CV,p,p,v,v,TRUE,1,693,TRUE,cv
4391,CVOE_D,4,1,1,81,D 69,D,9,,,TRUE,CV,q,q,c,c,TRUE,1,768,TRUE,cv
4392,CVOE_D,4,1,1,82,H 11,H,1,,,TRUE,CV,q,q,c,c,TRUE,1,603,TRUE,cv
4393,CVOE_D,4,1,1,83,P 43,P,3,,,TRUE,CV,q,q,c,c,TRUE,1,820,TRUE,cv
4394,CVOE_D,4,1,1,84,O 67,O,7,,,FALSE,CV,p,p,v,v,TRUE,1,719,TRUE,cv
4395,CVOE_D,4,1,1,85,S 91,S,1,,,FALSE,CV,q,q,c,c,TRUE,1,743,TRUE,cv
4396,CVOE_D,4,1,1,86,J 68,J,8,,,TRUE,CV,q,q,c,c,TRUE,1,693,TRUE,cv
4397,CVOE_D,4,1,1,87,S 47,S,7,,,FALSE,CV,q,q,c,c,TRUE,1,568,TRUE,cv
4398,CVOE_D,4,1,1,88,I 81,I,1,,,TRUE,CV,p,p,v,v,TRUE,1,675,TRUE,cv
4399,CVOE_D,4,1,1,89,J 39,J,9,,,FALSE,CV,q,q,c,c,TRUE,1,580,TRUE,cv
4400,CVOE_D,4,1,1,90,A 11,A,1,,,TRUE,CV,p,p,v,v,TRUE,1,671,TRUE,cv
4401,CVOE_D,4,1,1,91,O 76,O,6,,,FALSE,CV,p,p,v,v,TRUE,1,669,TRUE,cv
4402,CVOE_D,4,1,1,92,A 62,A,2,,,FALSE,CV,p,p,v,v,TRUE,1,618,TRUE,cv
4403,CVOE_D,4,1,1,93,O 27,O,7,,,TRUE,CV,p,p,v,v,TRUE,1,582,TRUE,cv
4404,CVOE_D,4,1,1,94,E 66,E,6,,,FALSE,CV,p,p,v,v,TRUE,1,643,TRUE,cv
4405,CVOE_D,4,1,1,95,J 62,J,2,,,TRUE,CV,q,q,c,c,TRUE,1,652,TRUE,cv
4406,CVOE_D,4,1,1,96,H 72,H,2,,,TRUE,CV,q,q,c,c,TRUE,1,655,TRUE,cv
4407,CVOE_D,4,1,1,97,E 49,E,9,,,TRUE,CV,p,p,v,v,TRUE,1,818,TRUE,cv
4408,CVOE_D,4,1,1,98,D 52,D,2,,,TRUE,CV,q,q,c,c,TRUE,1,533,TRUE,cv
4409,CVOE_D,4,1,1,99,H 62,H,2,,,TRUE,CV,q,q,c,c,TRUE,1,624,TRUE,cv
4410,CVOE_D,4,1,1,100,I 11,I,1,,,TRUE,CV,p,p,v,v,TRUE,1,974,TRUE,cv
4411,CVOE_D,4,1,1,101,A 98,A,8,,,FALSE,CV,p,p,v,v,TRUE,1,657,TRUE,cv
4412,CVOE_D,4,1,1,102,H 29,H,9,,,FALSE,CV,q,q,c,c,TRUE,1,604,TRUE,cv
4413,CVOE_D,4,1,1,103,E 83,E,3,,,TRUE,CV,p,p,v,v,TRUE,1,645,TRUE,cv
4414,CVOE_D,4,1,1,104,D 43,D,3,,,FALSE,CV,q,q,c,c,TRUE,1,613,TRUE,cv
4415,CVOE_D,4,1,1,105,P 45,P,5,,,TRUE,CV,q,q,c,c,TRUE,1,528,TRUE,cv
4416,CVOE_D,4,1,1,106,J 17,J,7,,,TRUE,CV,q,q,c,c,TRUE,1,675,TRUE,cv
4753,CVOE_D,12,1,1,11,A 71,A,1,,,FALSE,CV,p,p,v,v,TRUE,1,2677,TRUE,cv
4754,CVOE_D,12,1,1,12,I 66,I,6,,,TRUE,CV,p,p,v,v,TRUE,1,926,TRUE,cv
4755,CVOE_D,12,1,1,13,S 30,S,0,,,FALSE,CV,q,q,c,c,TRUE,1,823,TRUE,cv
4756,CVOE_D,12,1,1,14,D 20,D,0,,,FALSE,CV,q,q,c,c,TRUE,1,589,TRUE,cv
4757,CVOE_D,12,1,1,15,I 31,I,1,,,FALSE,CV,p,p,v,v,TRUE,1,738,TRUE,cv
4758,CVOE_D,12,1,1,16,P 16,P,6,,,FALSE,CV,q,q,c,c,TRUE,1,750,TRUE,cv
4759,CVOE_D,12,1,1,17,A 49,A,9,,,FALSE,CV,p,p,v,v,TRUE,1,635,TRUE,cv
4760,CVOE_D,12,1,1,18,O 64,O,4,,,TRUE,CV,p,p,v,v,TRUE,1,828,TRUE,cv
4761,CVOE_D,12,1,1,19,D 02,D,2,,,FALSE,CV,q,q,c,c,TRUE,1,506,TRUE,cv
4762,CVOE_D,12,1,1,20,P 81,P,1,,,TRUE,CV,q,q,c,c,TRUE,1,775,TRUE,cv
4763,CVOE_D,12,1,1,21,J 58,J,8,,,FALSE,CV,q,q,c,c,TRUE,1,499,TRUE,cv
4764,CVOE_D,12,1,1,22,A 22,A,2,,,TRUE,CV,p,p,v,v,TRUE,1,646,TRUE,cv
4765,CVOE_D,12,1,1,23,J 72,J,2,,,FALSE,CV,q,q,c,c,TRUE,1,534,TRUE,cv
4766,CVOE_D,12,1,1,24,P 91,P,1,,,TRUE,CV,q,q,c,c,TRUE,1,737,TRUE,cv
4767,CVOE_D,12,1,1,25,E 19,E,9,,,FALSE,CV,p,p,v,v,TRUE,1,948,TRUE,cv
4768,CVOE_D,12,1,1,26,I 30,I,0,,,TRUE,CV,p,p,v,v,TRUE,1,658,TRUE,cv
4769,CVOE_D,12,1,1,27,D 91,D,1,,,TRUE,CV,q,q,c,c,TRUE,1,589,TRUE,cv
4770,CVOE_D,12,1,1,28,O 48,O,8,,,TRUE,CV,p,p,v,v,TRUE,1,627,TRUE,cv
4771,CVOE_D,12,1,1,29,A 89,A,9,,,FALSE,CV,p,p,v,v,TRUE,1,697,TRUE,cv
4772,CVOE_D,12,1,1,30,U 11,U,1,,,FALSE,CV,p,p,v,v,TRUE,1,692,TRUE,cv
4773,CVOE_D,12,1,1,31,I 76,I,6,,,TRUE,CV,p,p,v,v,TRUE,1,471,TRUE,cv
4774,CVOE_D,12,1,1,32,U 89,U,9,,,FALSE,CV,p,p,v,v,TRUE,1,501,TRUE,cv
4775,CVOE_D,12,1,1,33,D 63,D,3,,,TRUE,CV,q,q,c,c,TRUE,1,640,TRUE,cv
4776,CVOE_D,12,1,1,34,H 70,H,0,,,FALSE,CV,q,q,c,c,TRUE,1,800,TRUE,cv
4777,CVOE_D,12,1,1,35,D 48,D,8,,,FALSE,CV,q,q,c,c,TRUE,1,729,TRUE,cv
4778,CVOE_D,12,1,1,36,P 56,P,6,,,FALSE,CV,q,q,c,c,TRUE,1,788,TRUE,cv
4779,CVOE_D,12,1,1,37,O 77,O,7,,,FALSE,CV,p,p,v,v,TRUE,1,586,TRUE,cv
4780,CVOE_D,12,1,1,38,P 42,P,2,,,FALSE,CV,q,q,c,c,TRUE,1,519,TRUE,cv
4781,CVOE_D,12,1,1,39,H 22,H,2,,,FALSE,CV,q,q,c,c,TRUE,1,904,TRUE,cv
4782,CVOE_D,12,1,1,40,E 42,E,2,,,TRUE,CV,p,p,v,v,TRUE,1,662,TRUE,cv
4783,CVOE_D,12,1,1,41,J 28,J,8,,,FALSE,CV,q,q,c,c,TRUE,1,468,TRUE,cv
4784,CVOE_D,12,1,1,42,E 95,E,5,,,FALSE,CV,p,p,v,v,TRUE,1,577,TRUE,cv
4785,CVOE_D,12,1,1,43,S 63,S,3,,,TRUE,CV,q,q,c,c,TRUE,1,484,TRUE,cv
4786,CVOE_D,12,1,1,44,H 50,H,0,,,FALSE,CV,q,q,c,c,TRUE,1,565,TRUE,cv
4787,CVOE_D,12,1,1,45,S 33,S,3,,,TRUE,CV,q,q,c,c,TRUE,1,1117,TRUE,cv
4788,CVOE_D,12,1,1,46,P 57,P,7,,,TRUE,CV,q,q,c,c,TRUE,1,502,TRUE,cv
4789,CVOE_D,12,1,1,47,E 23,E,3,,,FALSE,CV,p,p,v,v,TRUE,1,467,TRUE,cv
4790,CVOE_D,12,1,1,48,S 61,S,1,,,TRUE,CV,q,q,c,c,TRUE,1,529,TRUE,cv
4791,CVOE_D,12,1,1,49,U 67,U,7,,,FALSE,CV,p,p,v,v,TRUE,1,636,TRUE,cv
4792,CVOE_D,12,1,1,50,H 32,H,2,,,FALSE,CV,q,q,c,c,TRUE,1,477,TRUE,cv
4793,CVOE_D,12,1,1,51,U 50,U,0,,,TRUE,CV,p,p,v,v,TRUE,1,693,TRUE,cv
4794,CVOE_D,12,1,1,52,O 49,O,9,,,FALSE,CV,p,p,v,v,TRUE,1,528,TRUE,cv
4795,CVOE_D,12,1,1,53,U 32,U,2,,,TRUE,CV,p,p,v,v,TRUE,1,595,TRUE,cv
4796,CVOE_D,12,1,1,54,J 78,J,8,,,FALSE,CV,q,q,c,c,TRUE,1,516,TRUE,cv
4797,CVOE_D,12,1,1,55,S 54,S,4,,,FALSE,CV,q,q,c,c,TRUE,1,724,TRUE,cv
4798,CVOE_D,12,1,1,56,J 27,J,7,,,TRUE,CV,q,q,c,c,TRUE,1,573,TRUE,cv
4799,CVOE_D,12,1,1,57,S 06,S,6,,,FALSE,CV,q,q,c,c,TRUE,1,504,TRUE,cv
4800,CVOE_D,12,1,1,58,D 67,D,7,,,TRUE,CV,q,q,c,c,TRUE,1,517,TRUE,cv
4801,CVOE_D,12,1,1,59,A 79,A,9,,,FALSE,CV,p,p,v,v,TRUE,1,718,TRUE,cv
4802,CVOE_D,12,1,1,60,S 52,S,2,,,FALSE,CV,q,q,c,c,TRUE,1,470,TRUE,cv
4803,CVOE_D,12,1,1,61,U 16,U,6,,,TRUE,CV,p,p,v,v,TRUE,1,604,TRUE,cv
4804,CVOE_D,12,1,1,62,O 82,O,2,,,TRUE,CV,p,p,v,v,TRUE,1,484,TRUE,cv
4805,CVOE_D,12,1,1,63,H 87,H,7,,,TRUE,CV,q,q,c,c,TRUE,1,565,TRUE,cv
4806,CVOE_D,12,1,1,64,I 32,I,2,,,TRUE,CV,p,p,v,v,TRUE,1,533,TRUE,cv
4807,CVOE_D,12,1,1,65,U 37,U,7,,,FALSE,CV,p,p,v,v,TRUE,1,512,TRUE,cv
4808,CVOE_D,12,1,1,66,I 42,I,2,,,TRUE,CV,p,p,v,v,TRUE,1,510,TRUE,cv
4809,CVOE_D,12,1,1,67,D 65,D,5,,,TRUE,CV,q,q,c,c,TRUE,1,492,TRUE,cv
4810,CVOE_D,12,1,1,68,U 77,U,7,,,FALSE,CV,q,p,c,v,FALSE,0,543,FALSE,cv
4811,CVOE_D,12,1,1,69,E 12,E,2,,,TRUE,CV,p,p,v,v,TRUE,1,964,TRUE,cv
4812,CVOE_D,12,1,1,70,I 60,I,0,,,TRUE,CV,p,p,v,v,TRUE,1,541,TRUE,cv
4813,CVOE_D,12,1,1,71,J 36,J,6,,,FALSE,CV,q,q,c,c,TRUE,1,536,TRUE,cv
4814,CVOE_D,12,1,1,72,H 75,H,5,,,TRUE,CV,q,q,c,c,TRUE,1,603,TRUE,cv
4815,CVOE_D,12,1,1,73,I 50,I,0,,,TRUE,CV,p,p,v,v,TRUE,1,516,TRUE,cv
4816,CVOE_D,12,1,1,74,E 99,E,9,,,FALSE,CV,p,p,v,v,TRUE,1,492,TRUE,cv
4817,CVOE_D,12,1,1,75,A 86,A,6,,,TRUE,CV,p,p,v,v,TRUE,1,487,TRUE,cv
4818,CVOE_D,12,1,1,76,U 48,U,8,,,TRUE,CV,p,p,v,v,TRUE,1,455,TRUE,cv
4819,CVOE_D,12,1,1,77,E 01,E,1,,,FALSE,CV,p,p,v,v,TRUE,1,394,TRUE,cv
4820,CVOE_D,12,1,1,78,A 78,A,8,,,TRUE,CV,p,p,v,v,TRUE,1,427,TRUE,cv
4821,CVOE_D,12,1,1,79,P 60,P,0,,,FALSE,CV,q,q,c,c,TRUE,1,440,TRUE,cv
4822,CVOE_D,12,1,1,80,E 43,E,3,,,FALSE,CV,p,p,v,v,TRUE,1,505,TRUE,cv
4823,CVOE_D,12,1,1,81,D 69,D,9,,,TRUE,CV,q,q,c,c,TRUE,1,478,TRUE,cv
4824,CVOE_D,12,1,1,82,H 11,H,1,,,TRUE,CV,q,q,c,c,TRUE,1,535,TRUE,cv
4825,CVOE_D,12,1,1,83,P 43,P,3,,,TRUE,CV,q,q,c,c,TRUE,1,474,TRUE,cv
4826,CVOE_D,12,1,1,84,O 67,O,7,,,FALSE,CV,p,p,v,v,TRUE,1,456,TRUE,cv
4827,CVOE_D,12,1,1,85,S 91,S,1,,,FALSE,CV,q,q,c,c,TRUE,1,539,TRUE,cv
4828,CVOE_D,12,1,1,86,J 68,J,8,,,TRUE,CV,q,q,c,c,TRUE,1,494,TRUE,cv
4829,CVOE_D,12,1,1,87,S 47,S,7,,,FALSE,CV,q,q,c,c,TRUE,1,505,TRUE,cv
4830,CVOE_D,12,1,1,88,I 81,I,1,,,TRUE,CV,p,p,v,v,TRUE,1,479,TRUE,cv
4831,CVOE_D,12,1,1,89,J 39,J,9,,,FALSE,CV,q,q,c,c,TRUE,1,463,TRUE,cv
4832,CVOE_D,12,1,1,90,A 11,A,1,,,TRUE,CV,p,p,v,v,TRUE,1,517,TRUE,cv
4833,CVOE_D,12,1,1,91,O 76,O,6,,,FALSE,CV,p,p,v,v,TRUE,1,525,TRUE,cv
4834,CVOE_D,12,1,1,92,A 62,A,2,,,FALSE,CV,p,p,v,v,TRUE,1,485,TRUE,cv
4835,CVOE_D,12,1,1,93,O 27,O,7,,,TRUE,CV,p,p,v,v,TRUE,1,406,TRUE,cv
4836,CVOE_D,12,1,1,94,E 66,E,6,,,FALSE,CV,p,p,v,v,TRUE,1,438,TRUE,cv
4837,CVOE_D,12,1,1,95,J 62,J,2,,,TRUE,CV,q,q,c,c,TRUE,1,575,TRUE,cv
4838,CVOE_D,12,1,1,96,H 72,H,2,,,TRUE,CV,q,q,c,c,TRUE,1,498,TRUE,cv
4839,CVOE_D,12,1,1,97,E 49,E,9,,,TRUE,CV,p,p,v,v,TRUE,1,477,TRUE,cv
4840,CVOE_D,12,1,1,98,D 52,D,2,,,TRUE,CV,q,q,c,c,TRUE,1,493,TRUE,cv
4841,CVOE_D,12,1,1,99,H 62,H,2,,,TRUE,CV,p,q,v,c,FALSE,0,752,FALSE,cv
4842,CVOE_D,12,1,1,100,I 11,I,1,,,TRUE,CV,p,p,v,v,TRUE,1,702,TRUE,cv
4843,CVOE_D,12,1,1,101,A 98,A,8,,,FALSE,CV,p,p,v,v,TRUE,1,524,TRUE,cv
4844,CVOE_D,12,1,1,102,H 29,H,9,,,FALSE,CV,q,q,c,c,TRUE,1,820,TRUE,cv
4845,CVOE_D,12,1,1,103,E 83,E,3,,,TRUE,CV,p,p,v,v,TRUE,1,463,TRUE,cv
4846,CVOE_D,12,1,1,104,D 43,D,3,,,FALSE,CV,q,q,c,c,TRUE,1,485,TRUE,cv
4847,CVOE_D,12,1,1,105,P 45,P,5,,,TRUE,CV,q,q,c,c,TRUE,1,525,TRUE,cv
4848,CVOE_D,12,1,1,106,J 17,J,7,,,TRUE,CV,q,q,c,c,TRUE,1,470,TRUE,cv
5185,CVOE_D,16,1,1,11,A 71,A,1,,,FALSE,CV,p,p,v,v,TRUE,1,3638,TRUE,cv
5186,CVOE_D,16,1,1,12,I 66,I,6,,,TRUE,CV,p,p,v,v,TRUE,1,1496,TRUE,cv
5187,CVOE_D,16,1,1,13,S 30,S,0,,,FALSE,CV,q,q,c,c,TRUE,1,2051,TRUE,cv
5188,CVOE_D,16,1,1,14,D 20,D,0,,,FALSE,CV,q,q,c,c,TRUE,1,687,TRUE,cv
5189,CVOE_D,16,1,1,15,I 31,I,1,,,FALSE,CV,p,p,v,v,TRUE,1,695,TRUE,cv
5190,CVOE_D,16,1,1,16,P 16,P,6,,,FALSE,CV,q,q,c,c,TRUE,1,618,TRUE,cv
5191,CVOE_D,16,1,1,17,A 49,A,9,,,FALSE,CV,p,p,v,v,TRUE,1,662,TRUE,cv
5192,CVOE_D,16,1,1,18,O 64,O,4,,,TRUE,CV,p,p,v,v,TRUE,1,2587,TRUE,cv
5193,CVOE_D,16,1,1,19,D 02,D,2,,,FALSE,CV,q,q,c,c,TRUE,1,714,TRUE,cv
5194,CVOE_D,16,1,1,20,P 81,P,1,,,TRUE,CV,p,q,v,c,FALSE,0,728,FALSE,cv
5195,CVOE_D,16,1,1,21,J 58,J,8,,,FALSE,CV,q,q,c,c,TRUE,1,4563,TRUE,cv
5196,CVOE_D,16,1,1,22,A 22,A,2,,,TRUE,CV,p,p,v,v,TRUE,1,1149,TRUE,cv
5197,CVOE_D,16,1,1,23,J 72,J,2,,,FALSE,CV,q,q,c,c,TRUE,1,675,TRUE,cv
5198,CVOE_D,16,1,1,24,P 91,P,1,,,TRUE,CV,q,q,c,c,TRUE,1,587,TRUE,cv
5199,CVOE_D,16,1,1,25,E 19,E,9,,,FALSE,CV,p,p,v,v,TRUE,1,1993,TRUE,cv
5200,CVOE_D,16,1,1,26,I 30,I,0,,,TRUE,CV,p,p,v,v,TRUE,1,1359,TRUE,cv
5201,CVOE_D,16,1,1,27,D 91,D,1,,,TRUE,CV,q,q,c,c,TRUE,1,640,TRUE,cv
5202,CVOE_D,16,1,1,28,O 48,O,8,,,TRUE,CV,p,p,v,v,TRUE,1,600,TRUE,cv
5203,CVOE_D,16,1,1,29,A 89,A,9,,,FALSE,CV,p,p,v,v,TRUE,1,817,TRUE,cv
5204,CVOE_D,16,1,1,30,U 11,U,1,,,FALSE,CV,p,p,v,v,TRUE,1,796,TRUE,cv
5205,CVOE_D,16,1,1,31,I 76,I,6,,,TRUE,CV,p,p,v,v,TRUE,1,860,TRUE,cv
5206,CVOE_D,16,1,1,32,U 89,U,9,,,FALSE,CV,p,p,v,v,TRUE,1,976,TRUE,cv
5207,CVOE_D,16,1,1,33,D 63,D,3,,,TRUE,CV,q,q,c,c,TRUE,1,747,TRUE,cv
5208,CVOE_D,16,1,1,34,H 70,H,0,,,FALSE,CV,q,q,c,c,TRUE,1,1441,TRUE,cv
5209,CVOE_D,16,1,1,35,D 48,D,8,,,FALSE,CV,q,q,c,c,TRUE,1,777,TRUE,cv
5210,CVOE_D,16,1,1,36,P 56,P,6,,,FALSE,CV,q,q,c,c,TRUE,1,757,TRUE,cv
5211,CVOE_D,16,1,1,37,O 77,O,7,,,FALSE,CV,p,p,v,v,TRUE,1,1253,TRUE,cv
5212,CVOE_D,16,1,1,38,P 42,P,2,,,FALSE,CV,q,q,c,c,TRUE,1,888,TRUE,cv
5213,CVOE_D,16,1,1,39,H 22,H,2,,,FALSE,CV,q,q,c,c,TRUE,1,1372,TRUE,cv
5214,CVOE_D,16,1,1,40,E 42,E,2,,,TRUE,CV,p,p,v,v,TRUE,1,919,TRUE,cv
5215,CVOE_D,16,1,1,41,J 28,J,8,,,FALSE,CV,q,q,c,c,TRUE,1,1288,TRUE,cv
5216,CVOE_D,16,1,1,42,E 95,E,5,,,FALSE,CV,p,p,v,v,TRUE,1,827,TRUE,cv
5217,CVOE_D,16,1,1,43,S 63,S,3,,,TRUE,CV,q,q,c,c,TRUE,1,689,TRUE,cv
5218,CVOE_D,16,1,1,44,H 50,H,0,,,FALSE,CV,q,q,c,c,TRUE,1,716,TRUE,cv
5219,CVOE_D,16,1,1,45,S 33,S,3,,,TRUE,CV,q,q,c,c,TRUE,1,508,TRUE,cv
5220,CVOE_D,16,1,1,46,P 57,P,7,,,TRUE,CV,q,q,c,c,TRUE,1,554,TRUE,cv
5221,CVOE_D,16,1,1,47,E 23,E,3,,,FALSE,CV,p,p,v,v,TRUE,1,880,TRUE,cv
5222,CVOE_D,16,1,1,48,S 61,S,1,,,TRUE,CV,q,q,c,c,TRUE,1,672,TRUE,cv
5223,CVOE_D,16,1,1,49,U 67,U,7,,,FALSE,CV,p,p,v,v,TRUE,1,718,TRUE,cv
5224,CVOE_D,16,1,1,50,H 32,H,2,,,FALSE,CV,q,q,c,c,TRUE,1,1167,TRUE,cv
5225,CVOE_D,16,1,1,51,U 50,U,0,,,TRUE,CV,p,p,v,v,TRUE,1,679,TRUE,cv
5226,CVOE_D,16,1,1,52,O 49,O,9,,,FALSE,CV,p,p,v,v,TRUE,1,1000,TRUE,cv
5227,CVOE_D,16,1,1,53,U 32,U,2,,,TRUE,CV,p,p,v,v,TRUE,1,544,TRUE,cv
5228,CVOE_D,16,1,1,54,J 78,J,8,,,FALSE,CV,q,q,c,c,TRUE,1,678,TRUE,cv
5229,CVOE_D,16,1,1,55,S 54,S,4,,,FALSE,CV,q,q,c,c,TRUE,1,1590,TRUE,cv
5230,CVOE_D,16,1,1,56,J 27,J,7,,,TRUE,CV,q,q,c,c,TRUE,1,765,TRUE,cv
5231,CVOE_D,16,1,1,57,S 06,S,6,,,FALSE,CV,q,q,c,c,TRUE,1,757,TRUE,cv
5232,CVOE_D,16,1,1,58,D 67,D,7,,,TRUE,CV,q,q,c,c,TRUE,1,1230,TRUE,cv
5233,CVOE_D,16,1,1,59,A 79,A,9,,,FALSE,CV,p,p,v,v,TRUE,1,540,TRUE,cv
5234,CVOE_D,16,1,1,60,S 52,S,2,,,FALSE,CV,q,q,c,c,TRUE,1,591,TRUE,cv
5235,CVOE_D,16,1,1,61,U 16,U,6,,,TRUE,CV,p,p,v,v,TRUE,1,556,TRUE,cv
5236,CVOE_D,16,1,1,62,O 82,O,2,,,TRUE,CV,p,p,v,v,TRUE,1,797,TRUE,cv
5237,CVOE_D,16,1,1,63,H 87,H,7,,,TRUE,CV,q,q,c,c,TRUE,1,557,TRUE,cv
5238,CVOE_D,16,1,1,64,I 32,I,2,,,TRUE,CV,p,p,v,v,TRUE,1,486,TRUE,cv
5239,CVOE_D,16,1,1,65,U 37,U,7,,,FALSE,CV,p,p,v,v,TRUE,1,654,TRUE,cv
5240,CVOE_D,16,1,1,66,I 42,I,2,,,TRUE,CV,p,p,v,v,TRUE,1,705,TRUE,cv
5241,CVOE_D,16,1,1,67,D 65,D,5,,,TRUE,CV,q,q,c,c,TRUE,1,799,TRUE,cv
5242,CVOE_D,16,1,1,68,U 77,U,7,,,FALSE,CV,p,p,v,v,TRUE,1,1423,TRUE,cv
5243,CVOE_D,16,1,1,69,E 12,E,2,,,TRUE,CV,p,p,v,v,TRUE,1,1046,TRUE,cv
5244,CVOE_D,16,1,1,70,I 60,I,0,,,TRUE,CV,p,p,v,v,TRUE,1,638,TRUE,cv
5245,CVOE_D,16,1,1,71,J 36,J,6,,,FALSE,CV,q,q,c,c,TRUE,1,671,TRUE,cv
5246,CVOE_D,16,1,1,72,H 75,H,5,,,TRUE,CV,q,q,c,c,TRUE,1,852,TRUE,cv
5247,CVOE_D,16,1,1,73,I 50,I,0,,,TRUE,CV,p,p,v,v,TRUE,1,840,TRUE,cv
5248,CVOE_D,16,1,1,74,E 99,E,9,,,FALSE,CV,p,p,v,v,TRUE,1,800,TRUE,cv
5249,CVOE_D,16,1,1,75,A 86,A,6,,,TRUE,CV,p,p,v,v,TRUE,1,609,TRUE,cv
5250,CVOE_D,16,1,1,76,U 48,U,8,,,TRUE,CV,p,p,v,v,TRUE,1,1148,TRUE,cv
5251,CVOE_D,16,1,1,77,E 01,E,1,,,FALSE,CV,p,p,v,v,TRUE,1,562,TRUE,cv
5252,CVOE_D,16,1,1,78,A 78,A,8,,,TRUE,CV,p,p,v,v,TRUE,1,546,TRUE,cv
5253,CVOE_D,16,1,1,79,P 60,P,0,,,FALSE,CV,q,q,c,c,TRUE,1,1552,TRUE,cv
5254,CVOE_D,16,1,1,80,E 43,E,3,,,FALSE,CV,p,p,v,v,TRUE,1,694,TRUE,cv
5255,CVOE_D,16,1,1,81,D 69,D,9,,,TRUE,CV,q,q,c,c,TRUE,1,2705,TRUE,cv
5256,CVOE_D,16,1,1,82,H 11,H,1,,,TRUE,CV,q,q,c,c,TRUE,1,832,TRUE,cv
5257,CVOE_D,16,1,1,83,P 43,P,3,,,TRUE,CV,q,q,c,c,TRUE,1,733,TRUE,cv
5258,CVOE_D,16,1,1,84,O 67,O,7,,,FALSE,CV,p,p,v,v,TRUE,1,681,TRUE,cv
5259,CVOE_D,16,1,1,85,S 91,S,1,,,FALSE,CV,q,q,c,c,TRUE,1,633,TRUE,cv
5260,CVOE_D,16,1,1,86,J 68,J,8,,,TRUE,CV,q,q,c,c,TRUE,1,1247,TRUE,cv
5261,CVOE_D,16,1,1,87,S 47,S,7,,,FALSE,CV,q,q,c,c,TRUE,1,887,TRUE,cv
5262,CVOE_D,16,1,1,88,I 81,I,1,,,TRUE,CV,p,p,v,v,TRUE,1,1171,TRUE,cv
5263,CVOE_D,16,1,1,89,J 39,J,9,,,FALSE,CV,q,q,c,c,TRUE,1,974,TRUE,cv
5264,CVOE_D,16,1,1,90,A 11,A,1,,,TRUE,CV,p,p,v,v,TRUE,1,1713,TRUE,cv
5265,CVOE_D,16,1,1,91,O 76,O,6,,,FALSE,CV,p,p,v,v,TRUE,1,5111,TRUE,cv
5266,CVOE_D,16,1,1,92,A 62,A,2,,,FALSE,CV,p,p,v,v,TRUE,1,567,TRUE,cv
5267,CVOE_D,16,1,1,93,O 27,O,7,,,TRUE,CV,p,p,v,v,TRUE,1,615,TRUE,cv
5268,CVOE_D,16,1,1,94,E 66,E,6,,,FALSE,CV,p,p,v,v,TRUE,1,634,TRUE,cv
5269,CVOE_D,16,1,1,95,J 62,J,2,,,TRUE,CV,q,q,c,c,TRUE,1,627,TRUE,cv
5270,CVOE_D,16,1,1,96,H 72,H,2,,,TRUE,CV,q,q,c,c,TRUE,1,705,TRUE,cv
5271,CVOE_D,16,1,1,97,E 49,E,9,,,TRUE,CV,p,p,v,v,TRUE,1,638,TRUE,cv
5272,CVOE_D,16,1,1,98,D 52,D,2,,,TRUE,CV,q,q,c,c,TRUE,1,1111,TRUE,cv
5273,CVOE_D,16,1,1,99,H 62,H,2,,,TRUE,CV,q,q,c,c,TRUE,1,541,TRUE,cv
5274,CVOE_D,16,1,1,100,I 11,I,1,,,TRUE,CV,p,p,v,v,TRUE,1,554,TRUE,cv
5275,CVOE_D,16,1,1,101,A 98,A,8,,,FALSE,CV,p,p,v,v,TRUE,1,467,TRUE,cv
5276,CVOE_D,16,1,1,102,H 29,H,9,,,FALSE,CV,q,q,c,c,TRUE,1,593,TRUE,cv
5277,CVOE_D,16,1,1,103,E 83,E,3,,,TRUE,CV,p,p,v,v,TRUE,1,550,TRUE,cv
5278,CVOE_D,16,1,1,104,D 43,D,3,,,FALSE,CV,q,q,c,c,TRUE,1,2188,TRUE,cv
5279,CVOE_D,16,1,1,105,P 45,P,5,,,TRUE,CV,q,q,c,c,TRUE,1,850,TRUE,cv
5280,CVOE_D,16,1,1,106,J 17,J,7,,,TRUE,CV,q,q,c,c,TRUE,1,1182,TRUE,cv
5617,CVOE_D,8,1,1,11,A 71,A,1,,,FALSE,CV,p,p,v,v,TRUE,1,1660,TRUE,cv
5618,CVOE_D,8,1,1,12,I 66,I,6,,,TRUE,CV,p,p,v,v,TRUE,1,922,TRUE,cv
5619,CVOE_D,8,1,1,13,S 30,S,0,,,FALSE,CV,q,q,c,c,TRUE,1,723,TRUE,cv
5620,CVOE_D,8,1,1,14,D 20,D,0,,,FALSE,CV,q,q,c,c,TRUE,1,883,TRUE,cv
5621,CVOE_D,8,1,1,15,I 31,I,1,,,FALSE,CV,p,p,v,v,TRUE,1,868,TRUE,cv
5622,CVOE_D,8,1,1,16,P 16,P,6,,,FALSE,CV,q,q,c,c,TRUE,1,842,TRUE,cv
5623,CVOE_D,8,1,1,17,A 49,A,9,,,FALSE,CV,p,p,v,v,TRUE,1,714,TRUE,cv
5624,CVOE_D,8,1,1,18,O 64,O,4,,,TRUE,CV,p,p,v,v,TRUE,1,763,TRUE,cv
5625,CVOE_D,8,1,1,19,D 02,D,2,,,FALSE,CV,q,q,c,c,TRUE,1,771,TRUE,cv
5626,CVOE_D,8,1,1,20,P 81,P,1,,,TRUE,CV,q,q,c,c,TRUE,1,1006,TRUE,cv
5627,CVOE_D,8,1,1,21,J 58,J,8,,,FALSE,CV,q,q,c,c,TRUE,1,991,TRUE,cv
5628,CVOE_D,8,1,1,22,A 22,A,2,,,TRUE,CV,p,p,v,v,TRUE,1,557,TRUE,cv
5629,CVOE_D,8,1,1,23,J 72,J,2,,,FALSE,CV,q,q,c,c,TRUE,1,869,TRUE,cv
5630,CVOE_D,8,1,1,24,P 91,P,1,,,TRUE,CV,q,q,c,c,TRUE,1,611,TRUE,cv
5631,CVOE_D,8,1,1,25,E 19,E,9,,,FALSE,CV,p,p,v,v,TRUE,1,686,TRUE,cv
5632,CVOE_D,8,1,1,26,I 30,I,0,,,TRUE,CV,p,p,v,v,TRUE,1,791,TRUE,cv
5633,CVOE_D,8,1,1,27,D 91,D,1,,,TRUE,CV,q,q,c,c,TRUE,1,732,TRUE,cv
5634,CVOE_D,8,1,1,28,O 48,O,8,,,TRUE,CV,p,p,v,v,TRUE,1,976,TRUE,cv
5635,CVOE_D,8,1,1,29,A 89,A,9,,,FALSE,CV,p,p,v,v,TRUE,1,859,TRUE,cv
5636,CVOE_D,8,1,1,30,U 11,U,1,,,FALSE,CV,p,p,v,v,TRUE,1,870,TRUE,cv
5637,CVOE_D,8,1,1,31,I 76,I,6,,,TRUE,CV,p,p,v,v,TRUE,1,588,TRUE,cv
5638,CVOE_D,8,1,1,32,U 89,U,9,,,FALSE,CV,p,p,v,v,TRUE,1,794,TRUE,cv
5639,CVOE_D,8,1,1,33,D 63,D,3,,,TRUE,CV,q,q,c,c,TRUE,1,698,TRUE,cv
5640,CVOE_D,8,1,1,34,H 70,H,0,,,FALSE,CV,q,q,c,c,TRUE,1,741,TRUE,cv
5641,CVOE_D,8,1,1,35,D 48,D,8,,,FALSE,CV,q,q,c,c,TRUE,1,755,TRUE,cv
5642,CVOE_D,8,1,1,36,P 56,P,6,,,FALSE,CV,q,q,c,c,TRUE,1,764,TRUE,cv
5643,CVOE_D,8,1,1,37,O 77,O,7,,,FALSE,CV,p,p,v,v,TRUE,1,788,TRUE,cv
5644,CVOE_D,8,1,1,38,P 42,P,2,,,FALSE,CV,q,q,c,c,TRUE,1,682,TRUE,cv
5645,CVOE_D,8,1,1,39,H 22,H,2,,,FALSE,CV,q,q,c,c,TRUE,1,690,TRUE,cv
5646,CVOE_D,8,1,1,40,E 42,E,2,,,TRUE,CV,p,p,v,v,TRUE,1,669,TRUE,cv
5647,CVOE_D,8,1,1,41,J 28,J,8,,,FALSE,CV,q,q,c,c,TRUE,1,587,TRUE,cv
5648,CVOE_D,8,1,1,42,E 95,E,5,,,FALSE,CV,p,p,v,v,TRUE,1,521,TRUE,cv
5649,CVOE_D,8,1,1,43,S 63,S,3,,,TRUE,CV,q,q,c,c,TRUE,1,561,TRUE,cv
5650,CVOE_D,8,1,1,44,H 50,H,0,,,FALSE,CV,q,q,c,c,TRUE,1,890,TRUE,cv
5651,CVOE_D,8,1,1,45,S 33,S,3,,,TRUE,CV,q,q,c,c,TRUE,1,1117,TRUE,cv
5652,CVOE_D,8,1,1,46,P 57,P,7,,,TRUE,CV,q,q,c,c,TRUE,1,950,TRUE,cv
5653,CVOE_D,8,1,1,47,E 23,E,3,,,FALSE,CV,p,p,v,v,TRUE,1,596,TRUE,cv
5654,CVOE_D,8,1,1,48,S 61,S,1,,,TRUE,CV,q,q,c,c,TRUE,1,764,TRUE,cv
5655,CVOE_D,8,1,1,49,U 67,U,7,,,FALSE,CV,p,p,v,v,TRUE,1,916,TRUE,cv
5656,CVOE_D,8,1,1,50,H 32,H,2,,,FALSE,CV,q,q,c,c,TRUE,1,741,TRUE,cv
5657,CVOE_D,8,1,1,51,U 50,U,0,,,TRUE,CV,p,p,v,v,TRUE,1,867,TRUE,cv
5658,CVOE_D,8,1,1,52,O 49,O,9,,,FALSE,CV,p,p,v,v,TRUE,1,841,TRUE,cv
5659,CVOE_D,8,1,1,53,U 32,U,2,,,TRUE,CV,p,p,v,v,TRUE,1,1177,TRUE,cv
5660,CVOE_D,8,1,1,54,J 78,J,8,,,FALSE,CV,q,q,c,c,TRUE,1,845,TRUE,cv
5661,CVOE_D,8,1,1,55,S 54,S,4,,,FALSE,CV,q,q,c,c,TRUE,1,1061,TRUE,cv
5662,CVOE_D,8,1,1,56,J 27,J,7,,,TRUE,CV,q,q,c,c,TRUE,1,883,TRUE,cv
5663,CVOE_D,8,1,1,57,S 06,S,6,,,FALSE,CV,q,q,c,c,TRUE,1,1516,TRUE,cv
5664,CVOE_D,8,1,1,58,D 67,D,7,,,TRUE,CV,q,q,c,c,TRUE,1,668,TRUE,cv
5665,CVOE_D,8,1,1,59,A 79,A,9,,,FALSE,CV,p,p,v,v,TRUE,1,874,TRUE,cv
5666,CVOE_D,8,1,1,60,S 52,S,2,,,FALSE,CV,q,q,c,c,TRUE,1,755,TRUE,cv
5667,CVOE_D,8,1,1,61,U 16,U,6,,,TRUE,CV,p,p,v,v,TRUE,1,731,TRUE,cv
5668,CVOE_D,8,1,1,62,O 82,O,2,,,TRUE,CV,p,p,v,v,TRUE,1,742,TRUE,cv
5669,CVOE_D,8,1,1,63,H 87,H,7,,,TRUE,CV,q,q,c,c,TRUE,1,812,TRUE,cv
5670,CVOE_D,8,1,1,64,I 32,I,2,,,TRUE,CV,p,p,v,v,TRUE,1,1343,TRUE,cv
5671,CVOE_D,8,1,1,65,U 37,U,7,,,FALSE,CV,p,p,v,v,TRUE,1,613,TRUE,cv
5672,CVOE_D,8,1,1,66,I 42,I,2,,,TRUE,CV,p,p,v,v,TRUE,1,712,TRUE,cv
5673,CVOE_D,8,1,1,67,D 65,D,5,,,TRUE,CV,q,q,c,c,TRUE,1,718,TRUE,cv
5674,CVOE_D,8,1,1,68,U 77,U,7,,,FALSE,CV,p,p,v,v,TRUE,1,831,TRUE,cv
5675,CVOE_D,8,1,1,69,E 12,E,2,,,TRUE,CV,p,p,v,v,TRUE,1,732,TRUE,cv
5676,CVOE_D,8,1,1,70,I 60,I,0,,,TRUE,CV,p,p,v,v,TRUE,1,632,TRUE,cv
5677,CVOE_D,8,1,1,71,J 36,J,6,,,FALSE,CV,q,q,c,c,TRUE,1,1133,TRUE,cv
5678,CVOE_D,8,1,1,72,H 75,H,5,,,TRUE,CV,q,q,c,c,TRUE,1,897,TRUE,cv
5679,CVOE_D,8,1,1,73,I 50,I,0,,,TRUE,CV,p,p,v,v,TRUE,1,900,TRUE,cv
5680,CVOE_D,8,1,1,74,E 99,E,9,,,FALSE,CV,p,p,v,v,TRUE,1,1103,TRUE,cv
5681,CVOE_D,8,1,1,75,A 86,A,6,,,TRUE,CV,p,p,v,v,TRUE,1,805,TRUE,cv
5682,CVOE_D,8,1,1,76,U 48,U,8,,,TRUE,CV,p,p,v,v,TRUE,1,694,TRUE,cv
5683,CVOE_D,8,1,1,77,E 01,E,1,,,FALSE,CV,p,p,v,v,TRUE,1,929,TRUE,cv
5684,CVOE_D,8,1,1,78,A 78,A,8,,,TRUE,CV,p,p,v,v,TRUE,1,716,TRUE,cv
5685,CVOE_D,8,1,1,79,P 60,P,0,,,FALSE,CV,q,q,c,c,TRUE,1,724,TRUE,cv
5686,CVOE_D,8,1,1,80,E 43,E,3,,,FALSE,CV,p,p,v,v,TRUE,1,717,TRUE,cv
5687,CVOE_D,8,1,1,81,D 69,D,9,,,TRUE,CV,q,q,c,c,TRUE,1,629,TRUE,cv
5688,CVOE_D,8,1,1,82,H 11,H,1,,,TRUE,CV,q,q,c,c,TRUE,1,755,TRUE,cv
5689,CVOE_D,8,1,1,83,P 43,P,3,,,TRUE,CV,q,q,c,c,TRUE,1,660,TRUE,cv
5690,CVOE_D,8,1,1,84,O 67,O,7,,,FALSE,CV,p,p,v,v,TRUE,1,783,TRUE,cv
5691,CVOE_D,8,1,1,85,S 91,S,1,,,FALSE,CV,q,q,c,c,TRUE,1,669,TRUE,cv
5692,CVOE_D,8,1,1,86,J 68,J,8,,,TRUE,CV,q,q,c,c,TRUE,1,818,TRUE,cv
5693,CVOE_D,8,1,1,87,S 47,S,7,,,FALSE,CV,q,q,c,c,TRUE,1,806,TRUE,cv
5694,CVOE_D,8,1,1,88,I 81,I,1,,,TRUE,CV,p,p,v,v,TRUE,1,982,TRUE,cv
5695,CVOE_D,8,1,1,89,J 39,J,9,,,FALSE,CV,q,q,c,c,TRUE,1,1132,TRUE,cv
5696,CVOE_D,8,1,1,90,A 11,A,1,,,TRUE,CV,p,p,v,v,TRUE,1,847,TRUE,cv
5697,CVOE_D,8,1,1,91,O 76,O,6,,,FALSE,CV,p,p,v,v,TRUE,1,610,TRUE,cv
5698,CVOE_D,8,1,1,92,A 62,A,2,,,FALSE,CV,p,p,v,v,TRUE,1,1238,TRUE,cv
5699,CVOE_D,8,1,1,93,O 27,O,7,,,TRUE,CV,p,p,v,v,TRUE,1,830,TRUE,cv
5700,CVOE_D,8,1,1,94,E 66,E,6,,,FALSE,CV,p,p,v,v,TRUE,1,1020,TRUE,cv
5701,CVOE_D,8,1,1,95,J 62,J,2,,,TRUE,CV,q,q,c,c,TRUE,1,538,TRUE,cv
5702,CVOE_D,8,1,1,96,H 72,H,2,,,TRUE,CV,q,q,c,c,TRUE,1,989,TRUE,cv
5703,CVOE_D,8,1,1,97,E 49,E,9,,,TRUE,CV,p,p,v,v,TRUE,1,931,TRUE,cv
5704,CVOE_D,8,1,1,98,D 52,D,2,,,TRUE,CV,q,q,c,c,TRUE,1,686,TRUE,cv
5705,CVOE_D,8,1,1,99,H 62,H,2,,,TRUE,CV,q,q,c,c,TRUE,1,1071,TRUE,cv
5706,CVOE_D,8,1,1,100,I 11,I,1,,,TRUE,CV,p,p,v,v,TRUE,1,957,TRUE,cv
5707,CVOE_D,8,1,1,101,A 98,A,8,,,FALSE,CV,p,p,v,v,TRUE,1,781,TRUE,cv
5708,CVOE_D,8,1,1,102,H 29,H,9,,,FALSE,CV,q,q,c,c,TRUE,1,947,TRUE,cv
5709,CVOE_D,8,1,1,103,E 83,E,3,,,TRUE,CV,p,p,v,v,TRUE,1,937,TRUE,cv
5710,CVOE_D,8,1,1,104,D 43,D,3,,,FALSE,CV,q,q,c,c,TRUE,1,1068,TRUE,cv
5711,CVOE_D,8,1,1,105,P 45,P,5,,,TRUE,CV,q,q,c,c,TRUE,1,1298,TRUE,cv
5712,CVOE_D,8,1,1,106,J 17,J,7,,,TRUE,CV,q,q,c,c,TRUE,1,853,TRUE,cv
97,CVOE updated,5,1,2,11,A 24,A,4,,,TRUE,OE,p,p,e,e,TRUE,1,879,TRUE,oe
98,CVOE updated,5,1,2,12,O 83,O,3,,,FALSE,OE,q,q,o,o,TRUE,1,495,TRUE,oe
99,CVOE updated,5,1,2,13,H 55,H,5,,,TRUE,OE,q,q,o,o,TRUE,1,626,TRUE,oe
100,CVOE updated,5,1,2,14,P 10,P,0,,,FALSE,OE,p,p,e,e,TRUE,1,960,TRUE,oe
101,CVOE updated,5,1,2,15,D 30,D,0,,,FALSE,OE,p,p,e,e,TRUE,1,872,TRUE,oe
102,CVOE updated,5,1,2,16,U 62,U,2,,,TRUE,OE,p,p,e,e,TRUE,1,1646,TRUE,oe
103,CVOE updated,5,1,2,17,P 95,P,5,,,TRUE,OE,q,q,o,o,TRUE,1,626,TRUE,oe
104,CVOE updated,5,1,2,18,U 06,U,6,,,TRUE,OE,p,p,e,e,TRUE,1,592,TRUE,oe
105,CVOE updated,5,1,2,19,E 75,E,5,,,FALSE,OE,q,q,o,o,TRUE,1,533,TRUE,oe
106,CVOE updated,5,1,2,20,I 67,I,7,,,FALSE,OE,q,q,o,o,TRUE,1,1128,TRUE,oe
107,CVOE updated,5,1,2,21,S 13,S,3,,,TRUE,OE,q,q,o,o,TRUE,1,1620,TRUE,oe
108,CVOE updated,5,1,2,22,P 78,P,8,,,FALSE,OE,p,p,e,e,TRUE,1,578,TRUE,oe
109,CVOE updated,5,1,2,23,I 15,I,5,,,FALSE,OE,q,q,o,o,TRUE,1,1461,TRUE,oe
110,CVOE updated,5,1,2,24,D 27,D,7,,,TRUE,OE,q,q,o,o,TRUE,1,659,TRUE,oe
111,CVOE updated,5,1,2,25,O 94,O,4,,,TRUE,OE,p,p,e,e,TRUE,1,838,TRUE,oe
112,CVOE updated,5,1,2,26,A 65,A,5,,,FALSE,OE,q,q,o,o,TRUE,1,519,TRUE,oe
113,CVOE updated,5,1,2,27,I 42,I,2,,,TRUE,OE,p,p,e,e,TRUE,1,607,TRUE,oe
114,CVOE updated,5,1,2,28,E 25,E,5,,,FALSE,OE,q,q,o,o,TRUE,1,530,TRUE,oe
115,CVOE updated,5,1,2,29,H 49,H,9,,,TRUE,OE,q,q,o,o,TRUE,1,557,TRUE,oe
116,CVOE updated,5,1,2,30,S 18,S,8,,,FALSE,OE,p,p,e,e,TRUE,1,558,TRUE,oe
117,CVOE updated,5,1,2,31,H 51,H,1,,,TRUE,OE,q,q,o,o,TRUE,1,678,TRUE,oe
118,CVOE updated,5,1,2,32,U 14,U,4,,,TRUE,OE,p,p,e,e,TRUE,1,815,TRUE,oe
119,CVOE updated,5,1,2,33,E 02,E,2,,,TRUE,OE,p,p,e,e,TRUE,1,602,TRUE,oe
120,CVOE updated,5,1,2,34,J 26,J,6,,,FALSE,OE,p,p,e,e,TRUE,1,586,TRUE,oe
121,CVOE updated,5,1,2,35,D 24,D,4,,,FALSE,OE,p,p,e,e,TRUE,1,505,TRUE,oe
122,CVOE updated,5,1,2,36,O 50,O,0,,,TRUE,OE,q,p,o,e,FALSE,0,1918,FALSE,oe
123,CVOE updated,5,1,2,37,U 16,U,6,,,TRUE,OE,p,p,e,e,TRUE,1,695,TRUE,oe
124,CVOE updated,5,1,2,38,O 15,O,5,,,FALSE,OE,q,q,o,o,TRUE,1,610,TRUE,oe
125,CVOE updated,5,1,2,39,D 32,D,2,,,FALSE,OE,p,p,e,e,TRUE,1,773,TRUE,oe
126,CVOE updated,5,1,2,40,S 67,S,7,,,TRUE,OE,q,q,o,o,TRUE,1,912,TRUE,oe
127,CVOE updated,5,1,2,41,J 74,J,4,,,FALSE,OE,p,p,e,e,TRUE,1,1486,TRUE,oe
128,CVOE updated,5,1,2,42,D 92,D,2,,,FALSE,OE,p,p,e,e,TRUE,1,687,TRUE,oe
129,CVOE updated,5,1,2,43,A 65,A,5,,,FALSE,OE,q,q,o,o,TRUE,1,794,TRUE,oe
130,CVOE updated,5,1,2,44,I 87,I,7,,,FALSE,OE,q,q,o,o,TRUE,1,1066,TRUE,oe
131,CVOE updated,5,1,2,45,H 61,H,1,,,TRUE,OE,q,q,o,o,TRUE,1,896,TRUE,oe
132,CVOE updated,5,1,2,46,E 59,E,9,,,FALSE,OE,q,q,o,o,TRUE,1,635,TRUE,oe
133,CVOE updated,5,1,2,47,I 33,I,3,,,FALSE,OE,q,q,o,o,TRUE,1,612,TRUE,oe
134,CVOE updated,5,1,2,48,O 90,O,0,,,TRUE,OE,p,p,e,e,TRUE,1,1191,TRUE,oe
135,CVOE updated,5,1,2,49,U 51,U,1,,,FALSE,OE,q,q,o,o,TRUE,1,1093,TRUE,oe
136,CVOE updated,5,1,2,50,A 10,A,0,,,TRUE,OE,p,p,e,e,TRUE,1,872,TRUE,oe
137,CVOE updated,5,1,2,51,E 50,E,0,,,TRUE,OE,p,p,e,e,TRUE,1,558,TRUE,oe
138,CVOE updated,5,1,2,52,D 92,D,2,,,FALSE,OE,p,p,e,e,TRUE,1,678,TRUE,oe
139,CVOE updated,5,1,2,53,E 60,E,0,,,TRUE,OE,p,p,e,e,TRUE,1,639,TRUE,oe
140,CVOE updated,5,1,2,54,A 95,A,5,,,FALSE,OE,q,q,o,o,TRUE,1,1423,TRUE,oe
141,CVOE updated,5,1,2,55,E 64,E,4,,,TRUE,OE,p,p,e,e,TRUE,1,909,TRUE,oe
142,CVOE updated,5,1,2,56,P 20,P,0,,,FALSE,OE,p,p,e,e,TRUE,1,691,TRUE,oe
143,CVOE updated,5,1,2,57,S 06,S,6,,,FALSE,OE,p,p,e,e,TRUE,1,782,TRUE,oe
144,CVOE updated,5,1,2,58,P 64,P,4,,,FALSE,OE,p,p,e,e,TRUE,1,596,TRUE,oe
145,CVOE updated,5,1,2,59,U 70,U,0,,,TRUE,OE,p,p,e,e,TRUE,1,565,TRUE,oe
146,CVOE updated,5,1,2,60,S 16,S,6,,,FALSE,OE,p,p,e,e,TRUE,1,541,TRUE,oe
147,CVOE updated,5,1,2,61,E 35,E,5,,,FALSE,OE,q,q,o,o,TRUE,1,564,TRUE,oe
148,CVOE updated,5,1,2,62,I 93,I,3,,,FALSE,OE,q,q,o,o,TRUE,1,555,TRUE,oe
149,CVOE updated,5,1,2,63,D 63,D,3,,,TRUE,OE,q,q,o,o,TRUE,1,588,TRUE,oe
150,CVOE updated,5,1,2,64,U 89,U,9,,,FALSE,OE,q,q,o,o,TRUE,1,625,TRUE,oe
151,CVOE updated,5,1,2,65,E 91,E,1,,,FALSE,OE,q,q,o,o,TRUE,1,639,TRUE,oe
152,CVOE updated,5,1,2,66,A 12,A,2,,,TRUE,OE,p,p,e,e,TRUE,1,448,TRUE,oe
153,CVOE updated,5,1,2,67,P 56,P,6,,,FALSE,OE,p,p,e,e,TRUE,1,563,TRUE,oe
154,CVOE updated,5,1,2,68,S 65,S,5,,,TRUE,OE,q,q,o,o,TRUE,1,579,TRUE,oe
155,CVOE updated,5,1,2,69,P 07,P,7,,,TRUE,OE,q,q,o,o,TRUE,1,894,TRUE,oe
156,CVOE updated,5,1,2,70,I 77,I,7,,,FALSE,OE,q,q,o,o,TRUE,1,593,TRUE,oe
157,CVOE updated,5,1,2,71,J 19,J,9,,,TRUE,OE,q,q,o,o,TRUE,1,651,TRUE,oe
158,CVOE updated,5,1,2,72,O 59,O,9,,,FALSE,OE,q,q,o,o,TRUE,1,469,TRUE,oe
159,CVOE updated,5,1,2,73,J 15,J,5,,,TRUE,OE,q,q,o,o,TRUE,1,700,TRUE,oe
160,CVOE updated,5,1,2,74,I 89,I,9,,,FALSE,OE,q,q,o,o,TRUE,1,1254,TRUE,oe
161,CVOE updated,5,1,2,75,O 97,O,7,,,FALSE,OE,q,q,o,o,TRUE,1,785,TRUE,oe
162,CVOE updated,5,1,2,76,A 92,A,2,,,TRUE,OE,p,p,e,e,TRUE,1,623,TRUE,oe
163,CVOE updated,5,1,2,77,J 90,J,0,,,FALSE,OE,p,p,e,e,TRUE,1,493,TRUE,oe
164,CVOE updated,5,1,2,78,H 65,H,5,,,TRUE,OE,q,q,o,o,TRUE,1,936,TRUE,oe
165,CVOE updated,5,1,2,79,H 17,H,7,,,TRUE,OE,q,q,o,o,TRUE,1,651,TRUE,oe
166,CVOE updated,5,1,2,80,S 26,S,6,,,FALSE,OE,p,p,e,e,TRUE,1,470,TRUE,oe
167,CVOE updated,5,1,2,81,D 56,D,6,,,FALSE,OE,p,p,e,e,TRUE,1,468,TRUE,oe
168,CVOE updated,5,1,2,82,I 91,I,1,,,FALSE,OE,q,q,o,o,TRUE,1,489,TRUE,oe
169,CVOE updated,5,1,2,83,J 11,J,1,,,TRUE,OE,q,q,o,o,TRUE,1,453,TRUE,oe
170,CVOE updated,5,1,2,84,O 28,O,8,,,TRUE,OE,p,p,e,e,TRUE,1,456,TRUE,oe
171,CVOE updated,5,1,2,85,H 29,H,9,,,TRUE,OE,q,q,o,o,TRUE,1,499,TRUE,oe
172,CVOE updated,5,1,2,86,J 25,J,5,,,TRUE,OE,q,q,o,o,TRUE,1,582,TRUE,oe
173,CVOE updated,5,1,2,87,A 73,A,3,,,FALSE,OE,q,q,o,o,TRUE,1,483,TRUE,oe
174,CVOE updated,5,1,2,88,J 63,J,3,,,TRUE,OE,q,q,o,o,TRUE,1,556,TRUE,oe
175,CVOE updated,5,1,2,89,U 84,U,4,,,TRUE,OE,p,p,e,e,TRUE,1,516,TRUE,oe
176,CVOE updated,5,1,2,90,A 58,A,8,,,TRUE,OE,p,p,e,e,TRUE,1,533,TRUE,oe
177,CVOE updated,5,1,2,91,S 43,S,3,,,TRUE,OE,q,q,o,o,TRUE,1,536,TRUE,oe
178,CVOE updated,5,1,2,92,H 54,H,4,,,FALSE,OE,p,p,e,e,TRUE,1,611,TRUE,oe
179,CVOE updated,5,1,2,93,D 4,D,,,,FALSE,OE,p,p,e,o,FALSE,0,590,TRUE,oe
180,CVOE updated,5,1,2,94,J 75,J,5,,,TRUE,OE,q,q,o,o,TRUE,1,532,TRUE,oe
181,CVOE updated,5,1,2,95,D 19,D,9,,,TRUE,OE,q,q,o,o,TRUE,1,584,TRUE,oe
182,CVOE updated,5,1,2,96,J 38,J,8,,,FALSE,OE,p,p,e,e,TRUE,1,660,TRUE,oe
183,CVOE updated,5,1,2,97,I 56,I,6,,,TRUE,OE,q,p,o,e,FALSE,0,498,FALSE,oe
184,CVOE updated,5,1,2,98,P 87,P,7,,,TRUE,OE,q,q,o,o,TRUE,1,605,TRUE,oe
185,CVOE updated,5,1,2,99,O 80,O,0,,,TRUE,OE,p,p,e,e,TRUE,1,534,TRUE,oe
186,CVOE updated,5,1,2,100,U 60,U,0,,,TRUE,OE,p,p,e,e,TRUE,1,649,TRUE,oe
187,CVOE updated,5,1,2,101,P 48,P,8,,,FALSE,OE,p,p,e,e,TRUE,1,564,TRUE,oe
188,CVOE updated,5,1,2,102,H 64,H,4,,,FALSE,OE,p,p,e,e,TRUE,1,652,TRUE,oe
189,CVOE updated,5,1,2,103,A 13,A,3,,,FALSE,OE,q,q,o,o,TRUE,1,464,TRUE,oe
190,CVOE updated,5,1,2,104,H 68,H,8,,,FALSE,OE,p,p,e,e,TRUE,1,581,TRUE,oe
191,CVOE updated,5,1,2,105,E 16,E,6,,,TRUE,OE,p,p,e,e,TRUE,1,555,TRUE,oe
192,CVOE updated,5,1,2,106,S 71,S,1,,,TRUE,OE,q,q,o,o,TRUE,1,452,TRUE,oe
