"ExperimentName","Subject","Group","Block","Trial","STIM","TASK","Switch","Congruent","CVOE","Response","RT","block_type","letter","number","key2","response2","match2","score2","zRT"
"CVOE updated",5,1,1,11,"A 71","","",FALSE,"CV","p",2144,"cv","A",1,"v","v",TRUE,1,1.06088255165826
"CVOE updated",5,1,1,12,"I 66","","",TRUE,"CV","q",783,"cv","I",6,"v","c",FALSE,0,-0.406638583248238
"CVOE updated",5,1,1,13,"S 30","","",FALSE,"CV","q",636,"cv","S",0,"c","c",TRUE,1,-0.565143805019916
"CVOE updated",5,1,1,14,"D 20","","",FALSE,"CV","q",1261,"cv","D",0,"c","c",TRUE,1,0.108772954213412
"CVOE updated",5,1,1,15,"I 31","","",FALSE,"CV","p",611,"cv","I",1,"v","v",TRUE,1,-0.592100475389249
"CVOE updated",5,1,1,16,"P 16","","",FALSE,"CV","q",574,"cv","P",6,"c","c",TRUE,1,-0.631996347535863
"CVOE updated",5,1,1,17,"A 49","","",FALSE,"CV","p",777,"cv","A",9,"v","v",TRUE,1,-0.413108184136877
"CVOE updated",5,1,1,18,"O 64","","",TRUE,"CV","p",420,"cv","O",4,"v","v",TRUE,1,-0.798049437010955
"CVOE updated",5,1,1,19,"D 02","","",FALSE,"CV","q",466,"cv","D",2,"c","c",TRUE,1,-0.748449163531382
"CVOE updated",5,1,1,20,"P 81","","",TRUE,"CV","q",904,"cv","P",1,"c","c",TRUE,1,-0.276168298660665
"CVOE updated",5,1,1,21,"J 58","","",FALSE,"CV","q",693,"cv","J",8,"c","c",TRUE,1,-0.503682596577837
"CVOE updated",5,1,1,22,"A 22","","",TRUE,"CV","p",633,"cv","A",2,"v","v",TRUE,1,-0.568378605464236
"CVOE updated",5,1,1,23,"J 72","","",FALSE,"CV","q",582,"cv","J",2,"c","c",TRUE,1,-0.623370213017676
"CVOE updated",5,1,1,24,"P 91","","",TRUE,"CV","q",868,"cv","P",1,"c","c",TRUE,1,-0.314985903992505
"CVOE updated",5,1,1,25,"E 19","","",FALSE,"CV","p",642,"cv","E",9,"v","v",TRUE,1,-0.558674204131276
"CVOE updated",5,1,1,26,"I 30","","",TRUE,"CV","q",602,"cv","I",0,"v","c",FALSE,0,-0.601804876722209
"CVOE updated",5,1,1,27,"D 91","","",TRUE,"CV","q",587,"cv","D",1,"c","c",TRUE,1,-0.617978878943809
"CVOE updated",5,1,1,28,"O 48","","",TRUE,"CV","p",441,"cv","O",8,"v","v",TRUE,1,-0.775405833900715
"CVOE updated",5,1,1,29,"A 89","","",FALSE,"CV","p",921,"cv","A",9,"v","v",TRUE,1,-0.257837762809519
"CVOE updated",5,1,1,30,"U 11","","",FALSE,"CV","p",826,"cv","U",1,"v","v",TRUE,1,-0.360273110212985
"CVOE updated",5,1,1,31,"I 76","","",TRUE,"CV","q",1015,"cv","I",6,"v","c",FALSE,0,-0.156480682220826
"CVOE updated",5,1,1,32,"U 89","","",FALSE,"CV","p",827,"cv","U",9,"v","v",TRUE,1,-0.359194843398211
"CVOE updated",5,1,1,33,"D 63","","",TRUE,"CV","q",960,"cv","D",3,"c","c",TRUE,1,-0.215785357033359
"CVOE updated",5,1,1,34,"H 70","","",FALSE,"CV","q",689,"cv","H",0,"c","c",TRUE,1,-0.50799566383693
"CVOE updated",5,1,1,35,"D 48","","",FALSE,"CV","q",732,"cv","D",8,"c","c",TRUE,1,-0.461630190801677
"CVOE updated",5,1,1,36,"P 56","","",FALSE,"CV","q",895,"cv","P",6,"c","c",TRUE,1,-0.285872699993625
"CVOE updated",5,1,1,37,"O 77","","",FALSE,"CV","p",658,"cv","O",7,"v","v",TRUE,1,-0.541421935094903
"CVOE updated",5,1,1,38,"P 42","","",FALSE,"CV","q",766,"cv","P",2,"c","c",TRUE,1,-0.424969119099384
"CVOE updated",5,1,1,39,"H 22","","",FALSE,"CV","q",870,"cv","H",2,"c","c",TRUE,1,-0.312829370362958
"CVOE updated",5,1,1,40,"E 42","","",TRUE,"CV","p",716,"cv","E",2,"v","v",TRUE,1,-0.47888245983805
"CVOE updated",5,1,1,41,"J 28","","",FALSE,"CV","q",588,"cv","J",8,"c","c",TRUE,1,-0.616900612129036
"CVOE updated",5,1,1,42,"E 95","","",FALSE,"CV","p",506,"cv","E",5,"v","v",TRUE,1,-0.705318490940449
"CVOE updated",5,1,1,43,"S 63","","",TRUE,"CV","q",640,"cv","S",3,"c","c",TRUE,1,-0.560830737760823
"CVOE updated",5,1,1,44,"H 50","","",FALSE,"CV","q",1032,"cv","H",0,"c","c",TRUE,1,-0.138150146369679
"CVOE updated",5,1,1,45,"S 33","","",TRUE,"CV","q",470,"cv","S",3,"c","c",TRUE,1,-0.744136096272288
"CVOE updated",5,1,1,46,"P 57","","",TRUE,"CV","q",836,"cv","P",7,"c","c",TRUE,1,-0.349490442065251
"CVOE updated",5,1,1,47,"E 23","","",FALSE,"CV","p",828,"cv","E",3,"v","v",TRUE,1,-0.358116576583438
"CVOE updated",5,1,1,48,"S 61","","",TRUE,"CV","q",1066,"cv","S",1,"c","c",TRUE,1,-0.101489074667386
"CVOE updated",5,1,1,49,"U 67","","",FALSE,"CV","p",528,"cv","U",7,"v","v",TRUE,1,-0.681596621015435
"CVOE updated",5,1,1,50,"H 32","","",FALSE,"CV","q",547,"cv","H",2,"c","c",TRUE,1,-0.661109551534742
"CVOE updated",5,1,1,51,"U 50","","",TRUE,"CV","p",609,"cv","U",0,"v","v",TRUE,1,-0.594257009018796
"CVOE updated",5,1,1,52,"O 49","","",FALSE,"CV","p",452,"cv","O",9,"v","v",TRUE,1,-0.763544898938208
"CVOE updated",5,1,1,53,"U 32","","",TRUE,"CV","p",479,"cv","U",2,"v","v",TRUE,1,-0.734431694939328
"CVOE updated",5,1,1,54,"J 78","","",FALSE,"CV","q",560,"cv","J",8,"c","c",TRUE,1,-0.647092082942689
"CVOE updated",5,1,1,55,"S 54","","",FALSE,"CV","q",504,"cv","S",4,"c","c",TRUE,1,-0.707475024569995
"CVOE updated",5,1,1,56,"J 27","","",TRUE,"CV","q",638,"cv","J",7,"c","c",TRUE,1,-0.56298727139037
"CVOE updated",5,1,1,57,"S 06","","",FALSE,"CV","q",470,"cv","S",6,"c","c",TRUE,1,-0.744136096272288
"CVOE updated",5,1,1,58,"D 67","","",TRUE,"CV","q",644,"cv","D",7,"c","c",TRUE,1,-0.55651767050173
"CVOE updated",5,1,1,59,"A 79","","",FALSE,"CV","p",580,"cv","A",9,"v","v",TRUE,1,-0.625526746647223
"CVOE updated",5,1,1,60,"S 52","","",FALSE,"CV","q",466,"cv","S",2,"c","c",TRUE,1,-0.748449163531382
"CVOE updated",5,1,1,61,"U 16","","",TRUE,"CV","p",912,"cv","U",6,"v","v",TRUE,1,-0.267542164142479
"CVOE updated",5,1,1,62,"O 82","","",TRUE,"CV","p",670,"cv","O",2,"v","v",TRUE,1,-0.528482733317623
"CVOE updated",5,1,1,63,"H 87","","",TRUE,"CV","q",547,"cv","H",7,"c","c",TRUE,1,-0.661109551534742
"CVOE updated",5,1,1,64,"I 32","","",TRUE,"CV","p",881,"cv","I",2,"v","v",TRUE,1,-0.300968435400452
"CVOE updated",5,1,1,65,"U 37","","",FALSE,"CV","p",562,"cv","U",7,"v","v",TRUE,1,-0.644935549313142
"CVOE updated",5,1,1,66,"I 42","","",TRUE,"CV","p",946,"cv","I",2,"v","v",TRUE,1,-0.230881092440185
"CVOE updated",5,1,1,67,"D 65","","",TRUE,"CV","q",416,"cv","D",5,"c","c",TRUE,1,-0.802362504270048
"CVOE updated",5,1,1,68,"U 77","","",FALSE,"CV","p",491,"cv","U",7,"v","v",TRUE,1,-0.721492493162049
"CVOE updated",5,1,1,69,"E 12","","",TRUE,"CV","q",590,"cv","E",2,"v","c",FALSE,0,-0.614744078499489
"CVOE updated",5,1,1,70,"I 60","","",TRUE,"CV","p",964,"cv","I",0,"v","v",TRUE,1,-0.211472289774266
"CVOE updated",5,1,1,71,"J 36","","",FALSE,"CV","q",1332,"cv","J",6,"c","c",TRUE,1,0.185329898062318
"CVOE updated",5,1,1,72,"H 75","","",TRUE,"CV","q",1288,"cv","H",5,"c","c",TRUE,1,0.137886158212292
"CVOE updated",5,1,1,73,"I 50","","",TRUE,"CV","q",555,"cv","I",0,"v","c",FALSE,0,-0.652483417016556
"CVOE updated",5,1,1,74,"E 99","","",FALSE,"CV","p",956,"cv","E",9,"v","v",TRUE,1,-0.220098424292452
"CVOE updated",5,1,1,75,"A 86","","",TRUE,"CV","q",716,"cv","A",6,"v","c",FALSE,0,-0.47888245983805
"CVOE updated",5,1,1,76,"U 48","","",TRUE,"CV","p",533,"cv","U",8,"v","v",TRUE,1,-0.676205286941569
"CVOE updated",5,1,1,77,"E 01","","",FALSE,"CV","p",656,"cv","E",1,"v","v",TRUE,1,-0.54357846872445
"CVOE updated",5,1,1,78,"A 78","","",TRUE,"CV","q",731,"cv","A",8,"v","c",FALSE,0,-0.46270845761645
"CVOE updated",5,1,1,79,"P 60","","",FALSE,"CV","q",598,"cv","P",0,"c","c",TRUE,1,-0.606117943981303
"CVOE updated",5,1,1,80,"E 43","","",FALSE,"CV","p",958,"cv","E",3,"v","v",TRUE,1,-0.217941890662906
"CVOE updated",5,1,1,81,"D 69","","",TRUE,"CV","q",559,"cv","D",9,"c","c",TRUE,1,-0.648170349757462
"CVOE updated",5,1,1,82,"H 11","","",TRUE,"CV","q",895,"cv","H",1,"c","c",TRUE,1,-0.285872699993625
"CVOE updated",5,1,1,83,"P 43","","",TRUE,"CV","q",619,"cv","P",3,"c","c",TRUE,1,-0.583474340871063
"CVOE updated",5,1,1,84,"O 67","","",FALSE,"CV","p",1134,"cv","O",7,"v","v",TRUE,1,-0.0281669312628003
"CVOE updated",5,1,1,85,"S 91","","",FALSE,"CV","q",505,"cv","S",1,"c","c",TRUE,1,-0.706396757755222
"CVOE updated",5,1,1,86,"J 68","","",TRUE,"CV","q",647,"cv","J",8,"c","c",TRUE,1,-0.55328287005741
"CVOE updated",5,1,1,87,"S 47","","",FALSE,"CV","q",762,"cv","S",7,"c","c",TRUE,1,-0.429282186358477
"CVOE updated",5,1,1,88,"I 81","","",TRUE,"CV","p",690,"cv","I",1,"v","v",TRUE,1,-0.506917397022157
"CVOE updated",5,1,1,89,"J 39","","",FALSE,"CV","q",621,"cv","J",9,"c","c",TRUE,1,-0.581317807241516
"CVOE updated",5,1,1,90,"A 11","","",TRUE,"CV","p",811,"cv","A",1,"v","v",TRUE,1,-0.376447112434584
"CVOE updated",5,1,1,91,"O 76","","",FALSE,"CV","p",510,"cv","O",6,"v","v",TRUE,1,-0.701005423681355
"CVOE updated",5,1,1,92,"A 62","","",FALSE,"CV","p",1260,"cv","A",2,"v","v",TRUE,1,0.107694687398639
"CVOE updated",5,1,1,93,"O 27","","",TRUE,"CV","p",466,"cv","O",7,"v","v",TRUE,1,-0.748449163531382
"CVOE updated",5,1,1,94,"E 66","","",FALSE,"CV","q",552,"cv","E",6,"v","c",FALSE,0,-0.655718217460876
"CVOE updated",5,1,1,95,"J 62","","",TRUE,"CV","q",774,"cv","J",2,"c","c",TRUE,1,-0.416342984581197
"CVOE updated",5,1,1,96,"H 72","","",TRUE,"CV","q",609,"cv","H",2,"c","c",TRUE,1,-0.594257009018796
"CVOE updated",5,1,1,97,"E 49","","",TRUE,"CV","p",948,"cv","E",9,"v","v",TRUE,1,-0.228724558810639
"CVOE updated",5,1,1,98,"D 52","","",TRUE,"CV","q",466,"cv","D",2,"c","c",TRUE,1,-0.748449163531382
"CVOE updated",5,1,1,99,"H 62","","",TRUE,"CV","q",551,"cv","H",2,"c","c",TRUE,1,-0.656796484275649
"CVOE updated",5,1,1,100,"I 11","","",TRUE,"CV","p",637,"cv","I",1,"v","v",TRUE,1,-0.564065538205143
"CVOE updated",5,1,1,101,"A 98","","",FALSE,"CV","p",1494,"cv","A",8,"v","v",TRUE,1,0.360009122055597
"CVOE updated",5,1,1,102,"H 29","","",FALSE,"CV","q",1457,"cv","H",9,"c","c",TRUE,1,0.320113249908984
"CVOE updated",5,1,1,103,"E 83","","",TRUE,"CV","p",596,"cv","E",3,"v","v",TRUE,1,-0.608274477610849
"CVOE updated",5,1,1,104,"D 43","","",FALSE,"CV","q",501,"cv","D",3,"c","c",TRUE,1,-0.710709825014315
"CVOE updated",5,1,1,105,"P 45","","",TRUE,"CV","q",491,"cv","P",5,"c","c",TRUE,1,-0.721492493162049
"CVOE updated",5,1,1,106,"J 17","","",TRUE,"CV","q",462,"cv","J",7,"c","c",TRUE,1,-0.752762230790475
"CVOE updated",1,1,1,11,"A 71","","",FALSE,"CV","p",2421,"cv","A",1,"v","v",TRUE,1,1.35956245935047
"CVOE updated",1,1,1,12,"I 66","","",TRUE,"CV","p",717,"cv","I",6,"v","v",TRUE,1,-0.477804193023277
"CVOE updated",1,1,1,13,"S 30","","",FALSE,"CV","q",566,"cv","S",0,"c","c",TRUE,1,-0.640622482054049
"CVOE updated",1,1,1,14,"D 20","","",FALSE,"CV","q",868,"cv","D",0,"c","c",TRUE,1,-0.314985903992505
"CVOE updated",1,1,1,15,"I 31","","",FALSE,"CV","p",550,"cv","I",1,"v","v",TRUE,1,-0.657874751090422
"CVOE updated",1,1,1,16,"P 16","","",FALSE,"CV","q",731,"cv","P",6,"c","c",TRUE,1,-0.46270845761645
"CVOE updated",1,1,1,17,"A 49","","",FALSE,"CV","p",784,"cv","A",9,"v","v",TRUE,1,-0.405560316433464
"CVOE updated",1,1,1,18,"O 64","","",TRUE,"CV","p",1165,"cv","O",4,"v","v",TRUE,1,0.00525933999517279
"CVOE updated",1,1,1,19,"D 02","","",FALSE,"CV","q",1267,"cv","D",2,"c","c",TRUE,1,0.115242555102052
"CVOE updated",1,1,1,20,"P 81","","",TRUE,"CV","q",1141,"cv","P",1,"c","c",TRUE,1,-0.020619063559387
"CVOE updated",1,1,1,21,"J 58","","",FALSE,"CV","q",3512,"cv","J",8,"c","c",TRUE,1,2.53595155426817
"CVOE updated",1,1,1,22,"A 22","","",TRUE,"CV","p",492,"cv","A",2,"v","v",TRUE,1,-0.720414226347275
"CVOE updated",1,1,1,23,"J 72","","",FALSE,"CV","q",599,"cv","J",2,"c","c",TRUE,1,-0.605039677166529
"CVOE updated",1,1,1,24,"P 91","","",TRUE,"CV","q",590,"cv","P",1,"c","c",TRUE,1,-0.614744078499489
"CVOE updated",1,1,1,25,"E 19","","",FALSE,"CV","p",666,"cv","E",9,"v","v",TRUE,1,-0.532795800576717
"CVOE updated",1,1,1,26,"I 30","","",TRUE,"CV","p",710,"cv","I",0,"v","v",TRUE,1,-0.48535206072669
"CVOE updated",1,1,1,27,"D 91","","",TRUE,"CV","q",515,"cv","D",1,"c","c",TRUE,1,-0.695614089607489
"CVOE updated",1,1,1,28,"O 48","","",TRUE,"CV","p",823,"cv","O",8,"v","v",TRUE,1,-0.363507910657305
"CVOE updated",1,1,1,29,"A 89","","",FALSE,"CV","p",545,"cv","A",9,"v","v",TRUE,1,-0.663266085164289
"CVOE updated",1,1,1,30,"U 11","","",FALSE,"CV","p",736,"cv","U",1,"v","v",TRUE,1,-0.457317123542584
"CVOE updated",1,1,1,31,"I 76","","",TRUE,"CV","p",608,"cv","I",6,"v","v",TRUE,1,-0.595335275833569
"CVOE updated",1,1,1,32,"U 89","","",FALSE,"CV","p",978,"cv","U",9,"v","v",TRUE,1,-0.196376554367439
"CVOE updated",1,1,1,33,"D 63","","",TRUE,"CV","q",482,"cv","D",3,"c","c",TRUE,1,-0.731196894495008
"CVOE updated",1,1,1,34,"H 70","","",FALSE,"CV","q",795,"cv","H",0,"c","c",TRUE,1,-0.393699381470958
"CVOE updated",1,1,1,35,"D 48","","",FALSE,"CV","q",585,"cv","D",8,"c","c",TRUE,1,-0.620135412573356
"CVOE updated",1,1,1,36,"P 56","","",FALSE,"CV","p",520,"cv","P",6,"c","v",FALSE,0,-0.690222755533622
"CVOE updated",1,1,1,37,"O 77","","",FALSE,"CV","p",1241,"cv","O",7,"v","v",TRUE,1,0.0872076179179455
"CVOE updated",1,1,1,38,"P 42","","",FALSE,"CV","q",601,"cv","P",2,"c","c",TRUE,1,-0.602883143536983
"CVOE updated",1,1,1,39,"H 22","","",FALSE,"CV","q",808,"cv","H",2,"c","c",TRUE,1,-0.379681912878904
"CVOE updated",1,1,1,40,"E 42","","",TRUE,"CV","p",579,"cv","E",2,"v","v",TRUE,1,-0.626605013461996
"CVOE updated",1,1,1,41,"J 28","","",FALSE,"CV","q",537,"cv","J",8,"c","c",TRUE,1,-0.671892219682476
"CVOE updated",1,1,1,42,"E 95","","",FALSE,"CV","p",698,"cv","E",5,"v","v",TRUE,1,-0.49829126250397
"CVOE updated",1,1,1,43,"S 63","","",TRUE,"CV","q",1279,"cv","S",3,"c","c",TRUE,1,0.128181756879332
"CVOE updated",1,1,1,44,"H 50","","",FALSE,"CV","q",1077,"cv","H",0,"c","c",TRUE,1,-0.0896281397048798
"CVOE updated",1,1,1,45,"S 33","","",TRUE,"CV","q",619,"cv","S",3,"c","c",TRUE,1,-0.583474340871063
"CVOE updated",1,1,1,46,"P 57","","",TRUE,"CV","q",705,"cv","P",7,"c","c",TRUE,1,-0.490743394800557
"CVOE updated",1,1,1,47,"E 23","","",FALSE,"CV","p",568,"cv","E",3,"v","v",TRUE,1,-0.638465948424503
"CVOE updated",1,1,1,48,"S 61","","",TRUE,"CV","q",465,"cv","S",1,"c","c",TRUE,1,-0.749527430346155
"CVOE updated",1,1,1,49,"U 67","","",FALSE,"CV","p",564,"cv","U",7,"v","v",TRUE,1,-0.642779015683596
"CVOE updated",1,1,1,50,"H 32","","",FALSE,"CV","q",507,"cv","H",2,"c","c",TRUE,1,-0.704240224125675
"CVOE updated",1,1,1,51,"U 50","","",TRUE,"CV","p",635,"cv","U",0,"v","v",TRUE,1,-0.56622207183469
"CVOE updated",1,1,1,52,"O 49","","",FALSE,"CV","p",2704,"cv","O",9,"v","v",TRUE,1,1.66471196793132
"CVOE updated",1,1,1,53,"U 32","","",TRUE,"CV","p",865,"cv","U",2,"v","v",TRUE,1,-0.318220704436825
"CVOE updated",1,1,1,54,"J 78","","",FALSE,"CV","q",523,"cv","J",8,"c","c",TRUE,1,-0.686987955089302
"CVOE updated",1,1,1,55,"S 54","","",FALSE,"CV","q",577,"cv","S",4,"c","c",TRUE,1,-0.628761547091543
"CVOE updated",1,1,1,56,"J 27","","",TRUE,"CV","q",680,"cv","J",7,"c","c",TRUE,1,-0.51770006516989
"CVOE updated",1,1,1,57,"S 06","","",FALSE,"CV","q",387,"cv","S",6,"c","c",TRUE,1,-0.833632241898474
"CVOE updated",1,1,1,58,"D 67","","",TRUE,"CV","q",411,"cv","D",7,"c","c",TRUE,1,-0.807753838343915
"CVOE updated",1,1,1,59,"A 79","","",FALSE,"CV","p",500,"cv","A",9,"v","v",TRUE,1,-0.711788091829089
"CVOE updated",1,1,1,60,"S 52","","",FALSE,"CV","q",490,"cv","S",2,"c","c",TRUE,1,-0.722570759976822
"CVOE updated",1,1,1,61,"U 16","","",TRUE,"CV","p",1018,"cv","U",6,"v","v",TRUE,1,-0.153245881776506
"CVOE updated",1,1,1,62,"O 82","","",TRUE,"CV","p",609,"cv","O",2,"v","v",TRUE,1,-0.594257009018796
"CVOE updated",1,1,1,63,"H 87","","",TRUE,"CV","q",586,"cv","H",7,"c","c",TRUE,1,-0.619057145758583
"CVOE updated",1,1,1,64,"I 32","","",TRUE,"CV","p",397,"cv","I",2,"v","v",TRUE,1,-0.822849573750741
"CVOE updated",1,1,1,65,"U 37","","",FALSE,"CV","p",543,"cv","U",7,"v","v",TRUE,1,-0.665422618793836
"CVOE updated",1,1,1,66,"I 42","","",TRUE,"CV","p",455,"cv","I",2,"v","v",TRUE,1,-0.760310098493888
"CVOE updated",1,1,1,67,"D 65","","",TRUE,"CV","q",432,"cv","D",5,"c","c",TRUE,1,-0.785110235233675
"CVOE updated",1,1,1,68,"U 77","","",FALSE,"CV","p",619,"cv","U",7,"v","v",TRUE,1,-0.583474340871063
"CVOE updated",1,1,1,69,"E 12","","",TRUE,"CV","p",464,"cv","E",2,"v","v",TRUE,1,-0.750605697160928
"CVOE updated",1,1,1,70,"I 60","","",TRUE,"CV","p",490,"cv","I",0,"v","v",TRUE,1,-0.722570759976822
"CVOE updated",1,1,1,71,"J 36","","",FALSE,"CV","q",545,"cv","J",6,"c","c",TRUE,1,-0.663266085164289
"CVOE updated",1,1,1,72,"H 75","","",TRUE,"CV","q",2057,"cv","H",5,"c","c",TRUE,1,0.967073338772979
"CVOE updated",1,1,1,73,"I 50","","",TRUE,"CV","p",504,"cv","I",0,"v","v",TRUE,1,-0.707475024569995
"CVOE updated",1,1,1,74,"E 99","","",FALSE,"CV","p",771,"cv","E",9,"v","v",TRUE,1,-0.419577785025517
"CVOE updated",1,1,1,75,"A 86","","",TRUE,"CV","p",596,"cv","A",6,"v","v",TRUE,1,-0.608274477610849
"CVOE updated",1,1,1,76,"U 48","","",TRUE,"CV","p",514,"cv","U",8,"v","v",TRUE,1,-0.696692356422262
"CVOE updated",1,1,1,77,"E 01","","",FALSE,"CV","p",468,"cv","E",1,"v","v",TRUE,1,-0.746292629901835
"CVOE updated",1,1,1,78,"A 78","","",TRUE,"CV","p",356,"cv","A",8,"v","v",TRUE,1,-0.867058513156447
"CVOE updated",1,1,1,79,"P 60","","",FALSE,"CV","q",500,"cv","P",0,"c","c",TRUE,1,-0.711788091829089
"CVOE updated",1,1,1,80,"E 43","","",FALSE,"CV","p",662,"cv","E",3,"v","v",TRUE,1,-0.53710886783581
"CVOE updated",1,1,1,81,"D 69","","",TRUE,"CV","q",627,"cv","D",9,"c","c",TRUE,1,-0.574848206352876
"CVOE updated",1,1,1,82,"H 11","","",TRUE,"CV","q",634,"cv","H",1,"c","c",TRUE,1,-0.567300338649463
"CVOE updated",1,1,1,83,"P 43","","",TRUE,"CV","q",568,"cv","P",3,"c","c",TRUE,1,-0.638465948424503
"CVOE updated",1,1,1,84,"O 67","","",FALSE,"CV","p",433,"cv","O",7,"v","v",TRUE,1,-0.784031968418901
"CVOE updated",1,1,1,85,"S 91","","",FALSE,"CV","q",533,"cv","S",1,"c","c",TRUE,1,-0.676205286941569
"CVOE updated",1,1,1,86,"J 68","","",TRUE,"CV","q",674,"cv","J",8,"c","c",TRUE,1,-0.52416966605853
"CVOE updated",1,1,1,87,"S 47","","",FALSE,"CV","q",443,"cv","S",7,"c","c",TRUE,1,-0.773249300271168
"CVOE updated",1,1,1,88,"I 81","","",TRUE,"CV","p",478,"cv","I",1,"v","v",TRUE,1,-0.735509961754102
"CVOE updated",1,1,1,89,"J 39","","",FALSE,"CV","q",483,"cv","J",9,"c","c",TRUE,1,-0.730118627680235
"CVOE updated",1,1,1,90,"A 11","","",TRUE,"CV","p",454,"cv","A",1,"v","v",TRUE,1,-0.761388365308662
"CVOE updated",1,1,1,91,"O 76","","",FALSE,"CV","p",726,"cv","O",6,"v","v",TRUE,1,-0.468099791690317
"CVOE updated",1,1,1,92,"A 62","","",FALSE,"CV","p",563,"cv","A",2,"v","v",TRUE,1,-0.643857282498369
"CVOE updated",1,1,1,93,"O 27","","",TRUE,"CV","p",554,"cv","O",7,"v","v",TRUE,1,-0.653561683831329
"CVOE updated",1,1,1,94,"E 66","","",FALSE,"CV","p",653,"cv","E",6,"v","v",TRUE,1,-0.54681326916877
"CVOE updated",1,1,1,95,"J 62","","",TRUE,"CV","q",924,"cv","J",2,"c","c",TRUE,1,-0.254602962365199
"CVOE updated",1,1,1,96,"H 72","","",TRUE,"CV","q",541,"cv","H",2,"c","c",TRUE,1,-0.667579152423382
"CVOE updated",1,1,1,97,"E 49","","",TRUE,"CV","p",575,"cv","E",9,"v","v",TRUE,1,-0.630918080721089
"CVOE updated",1,1,1,98,"D 52","","",TRUE,"CV","q",754,"cv","D",2,"c","c",TRUE,1,-0.437908320876664
"CVOE updated",1,1,1,99,"H 62","","",TRUE,"CV","q",633,"cv","H",2,"c","c",TRUE,1,-0.568378605464236
"CVOE updated",1,1,1,100,"I 11","","",TRUE,"CV","p",544,"cv","I",1,"v","v",TRUE,1,-0.664344351979062
"CVOE updated",1,1,1,101,"A 98","","",FALSE,"CV","p",588,"cv","A",8,"v","v",TRUE,1,-0.616900612129036
"CVOE updated",1,1,1,102,"H 29","","",FALSE,"CV","q",516,"cv","H",9,"c","c",TRUE,1,-0.694535822792715
"CVOE updated",1,1,1,103,"E 83","","",TRUE,"CV","p",544,"cv","E",3,"v","v",TRUE,1,-0.664344351979062
"CVOE updated",1,1,1,104,"D 43","","",FALSE,"CV","q",919,"cv","D",3,"c","c",TRUE,1,-0.259994296439065
"CVOE updated",1,1,1,105,"P 45","","",TRUE,"CV","q",658,"cv","P",5,"c","c",TRUE,1,-0.541421935094903
"CVOE updated",1,1,1,106,"J 17","","",TRUE,"CV","q",504,"cv","J",7,"c","c",TRUE,1,-0.707475024569995
"CVOE updated",9,1,1,11,"A 71","","",FALSE,"CV","p",1803,"cv","A",1,"v","v",TRUE,1,0.693193567820554
"CVOE updated",9,1,1,12,"I 66","","",TRUE,"CV","p",612,"cv","I",6,"v","v",TRUE,1,-0.591022208574476
"CVOE updated",9,1,1,13,"S 30","","",FALSE,"CV","q",487,"cv","S",0,"c","c",TRUE,1,-0.725805560421142
"CVOE updated",9,1,1,14,"D 20","","",FALSE,"CV","q",571,"cv","D",0,"c","c",TRUE,1,-0.635231147980183
"CVOE updated",9,1,1,15,"I 31","","",FALSE,"CV","p",526,"cv","I",1,"v","v",TRUE,1,-0.683753154644982
"CVOE updated",9,1,1,16,"P 16","","",FALSE,"CV","q",590,"cv","P",6,"c","c",TRUE,1,-0.614744078499489
"CVOE updated",9,1,1,17,"A 49","","",FALSE,"CV","p",524,"cv","A",9,"v","v",TRUE,1,-0.685909688274529
"CVOE updated",9,1,1,18,"O 64","","",TRUE,"CV","p",612,"cv","O",4,"v","v",TRUE,1,-0.591022208574476
"CVOE updated",9,1,1,19,"D 02","","",FALSE,"CV","q",471,"cv","D",2,"c","c",TRUE,1,-0.743057829457515
"CVOE updated",9,1,1,20,"P 81","","",TRUE,"CV","q",765,"cv","P",1,"c","c",TRUE,1,-0.426047385914157
"CVOE updated",9,1,1,21,"J 58","","",FALSE,"CV","q",749,"cv","J",8,"c","c",TRUE,1,-0.443299654950531
"CVOE updated",9,1,1,22,"A 22","","",TRUE,"CV","p",475,"cv","A",2,"v","v",TRUE,1,-0.738744762198422
"CVOE updated",9,1,1,23,"J 72","","",FALSE,"CV","q",532,"cv","J",2,"c","c",TRUE,1,-0.677283553756342
"CVOE updated",9,1,1,24,"P 91","","",TRUE,"CV","q",535,"cv","P",1,"c","c",TRUE,1,-0.674048753312022
"CVOE updated",9,1,1,25,"E 19","","",FALSE,"CV","p",450,"cv","E",9,"v","v",TRUE,1,-0.765701432567755
"CVOE updated",9,1,1,26,"I 30","","",TRUE,"CV","p",453,"cv","I",0,"v","v",TRUE,1,-0.762466632123435
"CVOE updated",9,1,1,27,"D 91","","",TRUE,"CV","q",488,"cv","D",1,"c","c",TRUE,1,-0.724727293606369
"CVOE updated",9,1,1,28,"O 48","","",TRUE,"CV","p",531,"cv","O",8,"v","v",TRUE,1,-0.678361820571115
"CVOE updated",9,1,1,29,"A 89","","",FALSE,"CV","p",566,"cv","A",9,"v","v",TRUE,1,-0.640622482054049
"CVOE updated",9,1,1,30,"U 11","","",FALSE,"CV","p",542,"cv","U",1,"v","v",TRUE,1,-0.666500885608609
"CVOE updated",9,1,1,31,"I 76","","",TRUE,"CV","p",420,"cv","I",6,"v","v",TRUE,1,-0.798049437010955
"CVOE updated",9,1,1,32,"U 89","","",FALSE,"CV","p",450,"cv","U",9,"v","v",TRUE,1,-0.765701432567755
"CVOE updated",9,1,1,33,"D 63","","",TRUE,"CV","q",461,"cv","D",3,"c","c",TRUE,1,-0.753840497605248
"CVOE updated",9,1,1,34,"H 70","","",FALSE,"CV","q",475,"cv","H",0,"c","c",TRUE,1,-0.738744762198422
"CVOE updated",9,1,1,35,"D 48","","",FALSE,"CV","q",451,"cv","D",8,"c","c",TRUE,1,-0.764623165752982
"CVOE updated",9,1,1,36,"P 56","","",FALSE,"CV","q",502,"cv","P",6,"c","c",TRUE,1,-0.709631558199542
"CVOE updated",9,1,1,37,"O 77","","",FALSE,"CV","p",444,"cv","O",7,"v","v",TRUE,1,-0.772171033456395
"CVOE updated",9,1,1,38,"P 42","","",FALSE,"CV","q",756,"cv","P",2,"c","c",TRUE,1,-0.435751787247117
"CVOE updated",9,1,1,39,"H 22","","",FALSE,"CV","q",693,"cv","H",2,"c","c",TRUE,1,-0.503682596577837
"CVOE updated",9,1,1,40,"E 42","","",TRUE,"CV","p",344,"cv","E",2,"v","v",TRUE,1,-0.879997714933727
"CVOE updated",9,1,1,41,"J 28","","",FALSE,"CV","q",1029,"cv","J",8,"c","c",TRUE,1,-0.141384946813999
"CVOE updated",9,1,1,42,"E 95","","",FALSE,"CV","p",595,"cv","E",5,"v","v",TRUE,1,-0.609352744425623
"CVOE updated",9,1,1,43,"S 63","","",TRUE,"CV","q",508,"cv","S",3,"c","c",TRUE,1,-0.703161957310902
"CVOE updated",9,1,1,44,"H 50","","",FALSE,"CV","q",449,"cv","H",0,"c","c",TRUE,1,-0.766779699382528
"CVOE updated",9,1,1,45,"S 33","","",TRUE,"CV","q",476,"cv","S",3,"c","c",TRUE,1,-0.737666495383648
"CVOE updated",9,1,1,46,"P 57","","",TRUE,"CV","q",541,"cv","P",7,"c","c",TRUE,1,-0.667579152423382
"CVOE updated",9,1,1,47,"E 23","","",FALSE,"CV","p",459,"cv","E",3,"v","v",TRUE,1,-0.755997031234795
"CVOE updated",9,1,1,48,"S 61","","",TRUE,"CV","q",422,"cv","S",1,"c","c",TRUE,1,-0.795892903381408
"CVOE updated",9,1,1,49,"U 67","","",FALSE,"CV","p",515,"cv","U",7,"v","v",TRUE,1,-0.695614089607489
"CVOE updated",9,1,1,50,"H 32","","",FALSE,"CV","q",540,"cv","H",2,"c","c",TRUE,1,-0.668657419238156
"CVOE updated",9,1,1,51,"U 50","","",TRUE,"CV","p",575,"cv","U",0,"v","v",TRUE,1,-0.630918080721089
"CVOE updated",9,1,1,52,"O 49","","",FALSE,"CV","p",554,"cv","O",9,"v","v",TRUE,1,-0.653561683831329
"CVOE updated",9,1,1,53,"U 32","","",TRUE,"CV","p",530,"cv","U",2,"v","v",TRUE,1,-0.679440087385889
"CVOE updated",9,1,1,54,"J 78","","",FALSE,"CV","q",509,"cv","J",8,"c","c",TRUE,1,-0.702083690496129
"CVOE updated",9,1,1,55,"S 54","","",FALSE,"CV","q",571,"cv","S",4,"c","c",TRUE,1,-0.635231147980183
"CVOE updated",9,1,1,56,"J 27","","",TRUE,"CV","q",550,"cv","J",7,"c","c",TRUE,1,-0.657874751090422
"CVOE updated",9,1,1,57,"S 06","","",FALSE,"CV","q",612,"cv","S",6,"c","c",TRUE,1,-0.591022208574476
"CVOE updated",9,1,1,58,"D 67","","",TRUE,"CV","q",487,"cv","D",7,"c","c",TRUE,1,-0.725805560421142
"CVOE updated",9,1,1,59,"A 79","","",FALSE,"CV","p",482,"cv","A",9,"v","v",TRUE,1,-0.731196894495008
"CVOE updated",9,1,1,60,"S 52","","",FALSE,"CV","q",498,"cv","S",2,"c","c",TRUE,1,-0.713944625458635
"CVOE updated",9,1,1,61,"U 16","","",TRUE,"CV","p",526,"cv","U",6,"v","v",TRUE,1,-0.683753154644982
"CVOE updated",9,1,1,62,"O 82","","",TRUE,"CV","p",430,"cv","O",2,"v","v",TRUE,1,-0.787266768863221
"CVOE updated",9,1,1,63,"H 87","","",TRUE,"CV","q",516,"cv","H",7,"c","c",TRUE,1,-0.694535822792715
"CVOE updated",9,1,1,64,"I 32","","",TRUE,"CV","p",372,"cv","I",2,"v","v",TRUE,1,-0.849806244120074
"CVOE updated",9,1,1,65,"U 37","","",FALSE,"CV","p",455,"cv","U",7,"v","v",TRUE,1,-0.760310098493888
"CVOE updated",9,1,1,66,"I 42","","",TRUE,"CV","p",466,"cv","I",2,"v","v",TRUE,1,-0.748449163531382
"CVOE updated",9,1,1,67,"D 65","","",TRUE,"CV","q",400,"cv","D",5,"c","c",TRUE,1,-0.819614773306421
"CVOE updated",9,1,1,68,"U 77","","",FALSE,"CV","p",472,"cv","U",7,"v","v",TRUE,1,-0.741979562642742
"CVOE updated",9,1,1,69,"E 12","","",TRUE,"CV","p",462,"cv","E",2,"v","v",TRUE,1,-0.752762230790475
"CVOE updated",9,1,1,70,"I 60","","",TRUE,"CV","p",452,"cv","I",0,"v","v",TRUE,1,-0.763544898938208
"CVOE updated",9,1,1,71,"J 36","","",FALSE,"CV","q",423,"cv","J",6,"c","c",TRUE,1,-0.794814636566635
"CVOE updated",9,1,1,72,"H 75","","",TRUE,"CV","q",492,"cv","H",5,"c","c",TRUE,1,-0.720414226347275
"CVOE updated",9,1,1,73,"I 50","","",TRUE,"CV","p",535,"cv","I",0,"v","v",TRUE,1,-0.674048753312022
"CVOE updated",9,1,1,74,"E 99","","",FALSE,"CV","p",450,"cv","E",9,"v","v",TRUE,1,-0.765701432567755
"CVOE updated",9,1,1,75,"A 86","","",TRUE,"CV","p",437,"cv","A",6,"v","v",TRUE,1,-0.779718901159808
"CVOE updated",9,1,1,76,"U 48","","",TRUE,"CV","p",510,"cv","U",8,"v","v",TRUE,1,-0.701005423681355
"CVOE updated",9,1,1,77,"E 01","","",FALSE,"CV","p",484,"cv","E",1,"v","v",TRUE,1,-0.729040360865462
"CVOE updated",9,1,1,78,"A 78","","",TRUE,"CV","p",444,"cv","A",8,"v","v",TRUE,1,-0.772171033456395
"CVOE updated",9,1,1,79,"P 60","","",FALSE,"CV","q",468,"cv","P",0,"c","c",TRUE,1,-0.746292629901835
"CVOE updated",9,1,1,80,"E 43","","",FALSE,"CV","p",458,"cv","E",3,"v","v",TRUE,1,-0.757075298049568
"CVOE updated",9,1,1,81,"D 69","","",TRUE,"CV","q",413,"cv","D",9,"c","c",TRUE,1,-0.805597304714368
"CVOE updated",9,1,1,82,"H 11","","",TRUE,"CV","q",520,"cv","H",1,"c","c",TRUE,1,-0.690222755533622
"CVOE updated",9,1,1,83,"P 43","","",TRUE,"CV","q",1016,"cv","P",3,"c","c",TRUE,1,-0.155402415406053
"CVOE updated",9,1,1,84,"O 67","","",FALSE,"CV","p",484,"cv","O",7,"v","v",TRUE,1,-0.729040360865462
"CVOE updated",9,1,1,85,"S 91","","",FALSE,"CV","q",476,"cv","S",1,"c","c",TRUE,1,-0.737666495383648
"CVOE updated",9,1,1,86,"J 68","","",TRUE,"CV","q",444,"cv","J",8,"c","c",TRUE,1,-0.772171033456395
"CVOE updated",9,1,1,87,"S 47","","",FALSE,"CV","q",501,"cv","S",7,"c","c",TRUE,1,-0.710709825014315
"CVOE updated",9,1,1,88,"I 81","","",TRUE,"CV","p",499,"cv","I",1,"v","v",TRUE,1,-0.712866358643862
"CVOE updated",9,1,1,89,"J 39","","",FALSE,"CV","q",438,"cv","J",9,"c","c",TRUE,1,-0.778640634345035
"CVOE updated",9,1,1,90,"A 11","","",TRUE,"CV","p",526,"cv","A",1,"v","v",TRUE,1,-0.683753154644982
"CVOE updated",9,1,1,91,"O 76","","",FALSE,"CV","p",398,"cv","O",6,"v","v",TRUE,1,-0.821771306935968
"CVOE updated",9,1,1,92,"A 62","","",FALSE,"CV","p",415,"cv","A",2,"v","v",TRUE,1,-0.803440771084821
"CVOE updated",9,1,1,93,"O 27","","",TRUE,"CV","p",394,"cv","O",7,"v","v",TRUE,1,-0.826084374195061
"CVOE updated",9,1,1,94,"E 66","","",FALSE,"CV","p",466,"cv","E",6,"v","v",TRUE,1,-0.748449163531382
"CVOE updated",9,1,1,95,"J 62","","",TRUE,"CV","q",448,"cv","J",2,"c","c",TRUE,1,-0.767857966197302
"CVOE updated",9,1,1,96,"H 72","","",TRUE,"CV","q",507,"cv","H",2,"c","c",TRUE,1,-0.704240224125675
"CVOE updated",9,1,1,97,"E 49","","",TRUE,"CV","p",417,"cv","E",9,"v","v",TRUE,1,-0.801284237455275
"CVOE updated",9,1,1,98,"D 52","","",TRUE,"CV","q",460,"cv","D",2,"c","c",TRUE,1,-0.754918764420022
"CVOE updated",9,1,1,99,"H 62","","",TRUE,"CV","q",383,"cv","H",2,"c","c",TRUE,1,-0.837945309157568
"CVOE updated",9,1,1,100,"I 11","","",TRUE,"CV","p",372,"cv","I",1,"v","v",TRUE,1,-0.849806244120074
"CVOE updated",9,1,1,101,"A 98","","",FALSE,"CV","p",367,"cv","A",8,"v","v",TRUE,1,-0.855197578193941
"CVOE updated",9,1,1,102,"H 29","","",FALSE,"CV","q",426,"cv","H",9,"c","c",TRUE,1,-0.791579836122315
"CVOE updated",9,1,1,103,"E 83","","",TRUE,"CV","p",488,"cv","E",3,"v","v",TRUE,1,-0.724727293606369
"CVOE updated",9,1,1,104,"D 43","","",FALSE,"CV","q",459,"cv","D",3,"c","c",TRUE,1,-0.755997031234795
"CVOE updated",9,1,1,105,"P 45","","",TRUE,"CV","q",502,"cv","P",5,"c","c",TRUE,1,-0.709631558199542
"CVOE updated",9,1,1,106,"J 17","","",TRUE,"CV","q",420,"cv","J",7,"c","c",TRUE,1,-0.798049437010955
"CVOE_B",2,1,2,11,"A 71","","",FALSE,"CV","p",1063,"cv","A",1,"v","v",TRUE,1,-0.104723875111706
"CVOE_B",2,1,2,12,"I 66","","",TRUE,"CV","p",574,"cv","I",6,"v","v",TRUE,1,-0.631996347535863
"CVOE_B",2,1,2,13,"S 30","","",FALSE,"CV","q",481,"cv","S",0,"c","c",TRUE,1,-0.732275161309782
"CVOE_B",2,1,2,14,"D 20","","",FALSE,"CV","q",577,"cv","D",0,"c","c",TRUE,1,-0.628761547091543
"CVOE_B",2,1,2,15,"I 31","","",FALSE,"CV","p",621,"cv","I",1,"v","v",TRUE,1,-0.581317807241516
"CVOE_B",2,1,2,16,"P 16","","",FALSE,"CV","q",706,"cv","P",6,"c","c",TRUE,1,-0.489665127985784
"CVOE_B",2,1,2,17,"A 49","","",FALSE,"CV","p",583,"cv","A",9,"v","v",TRUE,1,-0.622291946202903
"CVOE_B",2,1,2,18,"O 64","","",TRUE,"CV","p",1661,"cv","O",4,"v","v",TRUE,1,0.540079680122742
"CVOE_B",2,1,2,19,"D 02","","",FALSE,"CV","q",580,"cv","D",2,"c","c",TRUE,1,-0.625526746647223
"CVOE_B",2,1,2,20,"P 81","","",TRUE,"CV","q",1006,"cv","P",1,"c","c",TRUE,1,-0.166185083553786
"CVOE_B",2,1,2,21,"J 58","","",FALSE,"CV","q",537,"cv","J",8,"c","c",TRUE,1,-0.671892219682476
"CVOE_B",2,1,2,22,"A 22","","",TRUE,"CV","p",572,"cv","A",2,"v","v",TRUE,1,-0.634152881165409
"CVOE_B",2,1,2,23,"J 72","","",FALSE,"CV","q",505,"cv","J",2,"c","c",TRUE,1,-0.706396757755222
"CVOE_B",2,1,2,24,"P 91","","",TRUE,"CV","q",485,"cv","P",1,"c","c",TRUE,1,-0.727962094050688
"CVOE_B",2,1,2,25,"E 19","","",FALSE,"CV","p",414,"cv","E",9,"v","v",TRUE,1,-0.804519037899595
"CVOE_B",2,1,2,26,"I 30","","",TRUE,"CV","p",585,"cv","I",0,"v","v",TRUE,1,-0.620135412573356
"CVOE_B",2,1,2,27,"D 91","","",TRUE,"CV","q",414,"cv","D",1,"c","c",TRUE,1,-0.804519037899595
"CVOE_B",2,1,2,28,"O 48","","",TRUE,"CV","p",401,"cv","O",8,"v","v",TRUE,1,-0.818536506491648
"CVOE_B",2,1,2,29,"A 89","","",FALSE,"CV","p",578,"cv","A",9,"v","v",TRUE,1,-0.627683280276769
"CVOE_B",2,1,2,30,"U 11","","",FALSE,"CV","p",606,"cv","U",1,"v","v",TRUE,1,-0.597491809463116
"CVOE_B",2,1,2,31,"I 76","","",TRUE,"CV","p",485,"cv","I",6,"v","v",TRUE,1,-0.727962094050688
"CVOE_B",2,1,2,32,"U 89","","",FALSE,"CV","p",431,"cv","U",9,"v","v",TRUE,1,-0.786188502048448
"CVOE_B",2,1,2,33,"D 63","","",TRUE,"CV","q",443,"cv","D",3,"c","c",TRUE,1,-0.773249300271168
"CVOE_B",2,1,2,34,"H 70","","",FALSE,"CV","q",564,"cv","H",0,"c","c",TRUE,1,-0.642779015683596
"CVOE_B",2,1,2,35,"D 48","","",FALSE,"CV","q",508,"cv","D",8,"c","c",TRUE,1,-0.703161957310902
"CVOE_B",2,1,2,36,"P 56","","",FALSE,"CV","q",498,"cv","P",6,"c","c",TRUE,1,-0.713944625458635
"CVOE_B",2,1,2,37,"O 77","","",FALSE,"CV","p",445,"cv","O",7,"v","v",TRUE,1,-0.771092766641622
"CVOE_B",2,1,2,38,"P 42","","",FALSE,"CV","q",461,"cv","P",2,"c","c",TRUE,1,-0.753840497605248
"CVOE_B",2,1,2,39,"H 22","","",FALSE,"CV","q",443,"cv","H",2,"c","c",TRUE,1,-0.773249300271168
"CVOE_B",2,1,2,40,"E 42","","",TRUE,"CV","p",491,"cv","E",2,"v","v",TRUE,1,-0.721492493162049
"CVOE_B",2,1,2,41,"J 28","","",FALSE,"CV","q",663,"cv","J",8,"c","c",TRUE,1,-0.536030601021037
"CVOE_B",2,1,2,42,"E 95","","",FALSE,"CV","p",692,"cv","E",5,"v","v",TRUE,1,-0.50476086339261
"CVOE_B",2,1,2,43,"S 63","","",TRUE,"CV","q",559,"cv","S",3,"c","c",TRUE,1,-0.648170349757462
"CVOE_B",2,1,2,44,"H 50","","",FALSE,"CV","q",480,"cv","H",0,"c","c",TRUE,1,-0.733353428124555
"CVOE_B",2,1,2,45,"S 33","","",TRUE,"CV","q",408,"cv","S",3,"c","c",TRUE,1,-0.810988638788235
"CVOE_B",2,1,2,46,"P 57","","",TRUE,"CV","q",459,"cv","P",7,"c","c",TRUE,1,-0.755997031234795
"CVOE_B",2,1,2,47,"E 23","","",FALSE,"CV","p",543,"cv","E",3,"v","v",TRUE,1,-0.665422618793836
"CVOE_B",2,1,2,48,"S 61","","",TRUE,"CV","q",549,"cv","S",1,"c","c",TRUE,1,-0.658953017905196
"CVOE_B",2,1,2,49,"U 67","","",FALSE,"CV","p",602,"cv","U",7,"v","v",TRUE,1,-0.601804876722209
"CVOE_B",2,1,2,50,"H 32","","",FALSE,"CV","q",467,"cv","H",2,"c","c",TRUE,1,-0.747370896716608
"CVOE_B",2,1,2,51,"U 50","","",TRUE,"CV","p",593,"cv","U",0,"v","v",TRUE,1,-0.611509278055169
"CVOE_B",2,1,2,52,"O 49","","",FALSE,"CV","p",542,"cv","O",9,"v","v",TRUE,1,-0.666500885608609
"CVOE_B",2,1,2,53,"U 32","","",TRUE,"CV","p",516,"cv","U",2,"v","v",TRUE,1,-0.694535822792715
"CVOE_B",2,1,2,54,"J 78","","",FALSE,"CV","q",477,"cv","J",8,"c","c",TRUE,1,-0.736588228568875
"CVOE_B",2,1,2,55,"S 54","","",FALSE,"CV","q",500,"cv","S",4,"c","c",TRUE,1,-0.711788091829089
"CVOE_B",2,1,2,56,"J 27","","",TRUE,"CV","q",491,"cv","J",7,"c","c",TRUE,1,-0.721492493162049
"CVOE_B",2,1,2,57,"S 06","","",FALSE,"CV","q",437,"cv","S",6,"c","c",TRUE,1,-0.779718901159808
"CVOE_B",2,1,2,58,"D 67","","",TRUE,"CV","q",421,"cv","D",7,"c","c",TRUE,1,-0.796971170196181
"CVOE_B",2,1,2,59,"A 79","","",FALSE,"CV","p",563,"cv","A",9,"v","v",TRUE,1,-0.643857282498369
"CVOE_B",2,1,2,60,"S 52","","",FALSE,"CV","q",556,"cv","S",2,"c","c",TRUE,1,-0.651405150201782
"CVOE_B",2,1,2,61,"U 16","","",TRUE,"CV","p",581,"cv","U",6,"v","v",TRUE,1,-0.624448479832449
"CVOE_B",2,1,2,62,"O 82","","",TRUE,"CV","p",577,"cv","O",2,"v","v",TRUE,1,-0.628761547091543
"CVOE_B",2,1,2,63,"H 87","","",TRUE,"CV","q",582,"cv","H",7,"c","c",TRUE,1,-0.623370213017676
"CVOE_B",2,1,2,64,"I 32","","",TRUE,"CV","p",610,"cv","I",2,"v","v",TRUE,1,-0.593178742204023
"CVOE_B",2,1,2,65,"U 37","","",FALSE,"CV","q",598,"cv","U",7,"v","c",FALSE,0,-0.606117943981303
"CVOE_B",2,1,2,66,"I 42","","",TRUE,"CV","p",743,"cv","I",2,"v","v",TRUE,1,-0.449769255839171
"CVOE_B",2,1,2,67,"D 65","","",TRUE,"CV","q",517,"cv","D",5,"c","c",TRUE,1,-0.693457555977942
"CVOE_B",2,1,2,68,"U 77","","",FALSE,"CV","q",549,"cv","U",7,"v","c",FALSE,0,-0.658953017905196
"CVOE_B",2,1,2,69,"E 12","","",TRUE,"CV","p",530,"cv","E",2,"v","v",TRUE,1,-0.679440087385889
"CVOE_B",2,1,2,70,"I 60","","",TRUE,"CV","p",605,"cv","I",0,"v","v",TRUE,1,-0.598570076277889
"CVOE_B",2,1,2,71,"J 36","","",FALSE,"CV","q",542,"cv","J",6,"c","c",TRUE,1,-0.666500885608609
"CVOE_B",2,1,2,72,"H 75","","",TRUE,"CV","q",724,"cv","H",5,"c","c",TRUE,1,-0.470256325319864
"CVOE_B",2,1,2,73,"I 50","","",TRUE,"CV","p",588,"cv","I",0,"v","v",TRUE,1,-0.616900612129036
"CVOE_B",2,1,2,74,"E 99","","",FALSE,"CV","p",706,"cv","E",9,"v","v",TRUE,1,-0.489665127985784
"CVOE_B",2,1,2,75,"A 86","","",TRUE,"CV","p",527,"cv","A",6,"v","v",TRUE,1,-0.682674887830209
"CVOE_B",2,1,2,76,"U 48","","",TRUE,"CV","p",522,"cv","U",8,"v","v",TRUE,1,-0.688066221904076
"CVOE_B",2,1,2,77,"E 01","","",FALSE,"CV","p",468,"cv","E",1,"v","v",TRUE,1,-0.746292629901835
"CVOE_B",2,1,2,78,"A 78","","",TRUE,"CV","p",449,"cv","A",8,"v","v",TRUE,1,-0.766779699382528
"CVOE_B",2,1,2,79,"P 60","","",FALSE,"CV","q",476,"cv","P",0,"c","c",TRUE,1,-0.737666495383648
"CVOE_B",2,1,2,80,"E 43","","",FALSE,"CV","p",780,"cv","E",3,"v","v",TRUE,1,-0.409873383692557
"CVOE_B",2,1,2,81,"D 69","","",TRUE,"CV","q",538,"cv","D",9,"c","c",TRUE,1,-0.670813952867702
"CVOE_B",2,1,2,82,"H 11","","",TRUE,"CV","q",605,"cv","H",1,"c","c",TRUE,1,-0.598570076277889
"CVOE_B",2,1,2,83,"P 43","","",TRUE,"CV","q",830,"cv","P",3,"c","c",TRUE,1,-0.355960042953891
"CVOE_B",2,1,2,84,"O 67","","",FALSE,"CV","p",508,"cv","O",7,"v","v",TRUE,1,-0.703161957310902
"CVOE_B",2,1,2,85,"S 91","","",FALSE,"CV","q",497,"cv","S",1,"c","c",TRUE,1,-0.715022892273409
"CVOE_B",2,1,2,86,"J 68","","",TRUE,"CV","q",588,"cv","J",8,"c","c",TRUE,1,-0.616900612129036
"CVOE_B",2,1,2,87,"S 47","","",FALSE,"CV","q",497,"cv","S",7,"c","c",TRUE,1,-0.715022892273409
"CVOE_B",2,1,2,88,"I 81","","",TRUE,"CV","p",548,"cv","I",1,"v","v",TRUE,1,-0.660031284719969
"CVOE_B",2,1,2,89,"J 39","","",FALSE,"CV","q",443,"cv","J",9,"c","c",TRUE,1,-0.773249300271168
"CVOE_B",2,1,2,90,"A 11","","",TRUE,"CV","p",564,"cv","A",1,"v","v",TRUE,1,-0.642779015683596
"CVOE_B",2,1,2,91,"O 76","","",FALSE,"CV","p",540,"cv","O",6,"v","v",TRUE,1,-0.668657419238156
"CVOE_B",2,1,2,92,"A 62","","",FALSE,"CV","p",543,"cv","A",2,"v","v",TRUE,1,-0.665422618793836
"CVOE_B",2,1,2,93,"O 27","","",TRUE,"CV","p",541,"cv","O",7,"v","v",TRUE,1,-0.667579152423382
"CVOE_B",2,1,2,94,"E 66","","",FALSE,"CV","p",481,"cv","E",6,"v","v",TRUE,1,-0.732275161309782
"CVOE_B",2,1,2,95,"J 62","","",TRUE,"CV","q",459,"cv","J",2,"c","c",TRUE,1,-0.755997031234795
"CVOE_B",2,1,2,96,"H 72","","",TRUE,"CV","q",565,"cv","H",2,"c","c",TRUE,1,-0.641700748868822
"CVOE_B",2,1,2,97,"E 49","","",TRUE,"CV","p",750,"cv","E",9,"v","v",TRUE,1,-0.442221388135757
"CVOE_B",2,1,2,98,"D 52","","",TRUE,"CV","q",1780,"cv","D",2,"c","c",TRUE,1,0.668393431080768
"CVOE_B",2,1,2,99,"H 62","","",TRUE,"CV","q",482,"cv","H",2,"c","c",TRUE,1,-0.731196894495008
"CVOE_B",2,1,2,100,"I 11","","",TRUE,"CV","p",507,"cv","I",1,"v","v",TRUE,1,-0.704240224125675
"CVOE_B",2,1,2,101,"A 98","","",FALSE,"CV","p",472,"cv","A",8,"v","v",TRUE,1,-0.741979562642742
"CVOE_B",2,1,2,102,"H 29","","",FALSE,"CV","q",557,"cv","H",9,"c","c",TRUE,1,-0.650326883387009
"CVOE_B",2,1,2,103,"E 83","","",TRUE,"CV","p",502,"cv","E",3,"v","v",TRUE,1,-0.709631558199542
"CVOE_B",2,1,2,104,"D 43","","",FALSE,"CV","q",548,"cv","D",3,"c","c",TRUE,1,-0.660031284719969
"CVOE_B",2,1,2,105,"P 45","","",TRUE,"CV","q",634,"cv","P",5,"c","c",TRUE,1,-0.567300338649463
"CVOE_B",2,1,2,106,"J 17","","",TRUE,"CV","q",481,"cv","J",7,"c","c",TRUE,1,-0.732275161309782
"CVOE_B",10,1,2,11,"A 71","","",FALSE,"CV","p",1228,"cv","A",1,"v","v",TRUE,1,0.0731901493258923
"CVOE_B",10,1,2,12,"I 66","","",TRUE,"CV","p",930,"cv","I",6,"v","v",TRUE,1,-0.248133361476559
"CVOE_B",10,1,2,13,"S 30","","",FALSE,"CV","q",950,"cv","S",0,"c","c",TRUE,1,-0.226568025181092
"CVOE_B",10,1,2,14,"D 20","","",FALSE,"CV","q",643,"cv","D",0,"c","c",TRUE,1,-0.557595937316503
"CVOE_B",10,1,2,15,"I 31","","",FALSE,"CV","p",732,"cv","I",1,"v","v",TRUE,1,-0.461630190801677
"CVOE_B",10,1,2,16,"P 16","","",FALSE,"CV","q",1455,"cv","P",6,"c","c",TRUE,1,0.317956716279437
"CVOE_B",10,1,2,17,"A 49","","",FALSE,"CV","p",658,"cv","A",9,"v","v",TRUE,1,-0.541421935094903
"CVOE_B",10,1,2,18,"O 64","","",TRUE,"CV","p",758,"cv","O",4,"v","v",TRUE,1,-0.433595253617571
"CVOE_B",10,1,2,19,"D 02","","",FALSE,"CV","q",694,"cv","D",2,"c","c",TRUE,1,-0.502604329763063
"CVOE_B",10,1,2,20,"P 81","","",TRUE,"CV","p",577,"cv","P",1,"c","v",FALSE,0,-0.628761547091543
"CVOE_B",10,1,2,21,"J 58","","",FALSE,"CV","q",1428,"cv","J",8,"c","c",TRUE,1,0.288843512280557
"CVOE_B",10,1,2,22,"A 22","","",TRUE,"CV","p",610,"cv","A",2,"v","v",TRUE,1,-0.593178742204023
"CVOE_B",10,1,2,23,"J 72","","",FALSE,"CV","q",533,"cv","J",2,"c","c",TRUE,1,-0.676205286941569
"CVOE_B",10,1,2,24,"P 91","","",TRUE,"CV","q",696,"cv","P",1,"c","c",TRUE,1,-0.500447796133517
"CVOE_B",10,1,2,25,"E 19","","",FALSE,"CV","p",780,"cv","E",9,"v","v",TRUE,1,-0.409873383692557
"CVOE_B",10,1,2,26,"I 30","","",TRUE,"CV","p",1223,"cv","I",0,"v","v",TRUE,1,0.0677988152520257
"CVOE_B",10,1,2,27,"D 91","","",TRUE,"CV","q",557,"cv","D",1,"c","c",TRUE,1,-0.650326883387009
"CVOE_B",10,1,2,28,"O 48","","",TRUE,"CV","p",1861,"cv","O",8,"v","v",TRUE,1,0.755733043077407
"CVOE_B",10,1,2,29,"A 89","","",FALSE,"CV","p",651,"cv","A",9,"v","v",TRUE,1,-0.548969802798317
"CVOE_B",10,1,2,30,"U 11","","",FALSE,"CV","p",822,"cv","U",1,"v","v",TRUE,1,-0.364586177472078
"CVOE_B",10,1,2,31,"I 76","","",TRUE,"CV","p",652,"cv","I",6,"v","v",TRUE,1,-0.547891535983543
"CVOE_B",10,1,2,32,"U 89","","",FALSE,"CV","p",815,"cv","U",9,"v","v",TRUE,1,-0.372134045175491
"CVOE_B",10,1,2,33,"D 63","","",TRUE,"CV","q",603,"cv","D",3,"c","c",TRUE,1,-0.600726609907436
"CVOE_B",10,1,2,34,"H 70","","",FALSE,"CV","q",731,"cv","H",0,"c","c",TRUE,1,-0.46270845761645
"CVOE_B",10,1,2,35,"D 48","","",FALSE,"CV","q",630,"cv","D",8,"c","c",TRUE,1,-0.571613405908556
"CVOE_B",10,1,2,36,"P 56","","",FALSE,"CV","q",404,"cv","P",6,"c","c",TRUE,1,-0.815301706047328
"CVOE_B",10,1,2,37,"O 77","","",FALSE,"CV","p",948,"cv","O",7,"v","v",TRUE,1,-0.228724558810639
"CVOE_B",10,1,2,38,"P 42","","",FALSE,"CV","q",674,"cv","P",2,"c","c",TRUE,1,-0.52416966605853
"CVOE_B",10,1,2,39,"H 22","","",FALSE,"CV","q",1475,"cv","H",2,"c","c",TRUE,1,0.339522052574904
"CVOE_B",10,1,2,40,"E 42","","",TRUE,"CV","p",555,"cv","E",2,"v","v",TRUE,1,-0.652483417016556
"CVOE_B",10,1,2,41,"J 28","","",FALSE,"CV","q",460,"cv","J",8,"c","c",TRUE,1,-0.754918764420022
"CVOE_B",10,1,2,42,"E 95","","",FALSE,"CV","p",679,"cv","E",5,"v","v",TRUE,1,-0.518778331984663
"CVOE_B",10,1,2,43,"S 63","","",TRUE,"CV","q",335,"cv","S",3,"c","c",TRUE,1,-0.889702116266687
"CVOE_B",10,1,2,44,"H 50","","",FALSE,"CV","q",554,"cv","H",0,"c","c",TRUE,1,-0.653561683831329
"CVOE_B",10,1,2,45,"S 33","","",TRUE,"CV","q",579,"cv","S",3,"c","c",TRUE,1,-0.626605013461996
"CVOE_B",10,1,2,46,"P 57","","",TRUE,"CV","q",574,"cv","P",7,"c","c",TRUE,1,-0.631996347535863
"CVOE_B",10,1,2,47,"E 23","","",FALSE,"CV","p",601,"cv","E",3,"v","v",TRUE,1,-0.602883143536983
"CVOE_B",10,1,2,48,"S 61","","",TRUE,"CV","q",697,"cv","S",1,"c","c",TRUE,1,-0.499369529318744
"CVOE_B",10,1,2,49,"U 67","","",FALSE,"CV","p",700,"cv","U",7,"v","v",TRUE,1,-0.496134728874424
"CVOE_B",10,1,2,50,"H 32","","",FALSE,"CV","q",600,"cv","H",2,"c","c",TRUE,1,-0.603961410351756
"CVOE_B",10,1,2,51,"U 50","","",TRUE,"CV","p",336,"cv","U",0,"v","v",TRUE,1,-0.888623849451914
"CVOE_B",10,1,2,52,"O 49","","",FALSE,"CV","p",1555,"cv","O",9,"v","v",TRUE,1,0.42578339775677
"CVOE_B",10,1,2,53,"U 32","","",TRUE,"CV","p",580,"cv","U",2,"v","v",TRUE,1,-0.625526746647223
"CVOE_B",10,1,2,54,"J 78","","",FALSE,"CV","q",623,"cv","J",8,"c","c",TRUE,1,-0.57916127361197
"CVOE_B",10,1,2,55,"S 54","","",FALSE,"CV","q",613,"cv","S",4,"c","c",TRUE,1,-0.589943941759703
"CVOE_B",10,1,2,56,"J 27","","",TRUE,"CV","q",608,"cv","J",7,"c","c",TRUE,1,-0.595335275833569
"CVOE_B",10,1,2,57,"S 06","","",FALSE,"CV","q",1251,"cv","S",6,"c","c",TRUE,1,0.0979902860656788
"CVOE_B",10,1,2,58,"D 67","","",TRUE,"CV","q",1094,"cv","D",7,"c","c",TRUE,1,-0.0712976038537333
"CVOE_B",10,1,2,59,"A 79","","",FALSE,"CV","p",513,"cv","A",9,"v","v",TRUE,1,-0.697770623237035
"CVOE_B",10,1,2,60,"S 52","","",FALSE,"CV","q",535,"cv","S",2,"c","c",TRUE,1,-0.674048753312022
"CVOE_B",10,1,2,61,"U 16","","",TRUE,"CV","p",1610,"cv","U",6,"v","v",TRUE,1,0.485088072569303
"CVOE_B",10,1,2,62,"O 82","","",TRUE,"CV","p",1174,"cv","O",2,"v","v",TRUE,1,0.0149637413281327
"CVOE_B",10,1,2,63,"H 87","","",TRUE,"CV","q",801,"cv","H",7,"c","c",TRUE,1,-0.387229780582318
"CVOE_B",10,1,2,64,"I 32","","",TRUE,"CV","p",489,"cv","I",2,"v","v",TRUE,1,-0.723649026791595
"CVOE_B",10,1,2,65,"U 37","","",FALSE,"CV","p",541,"cv","U",7,"v","v",TRUE,1,-0.667579152423382
"CVOE_B",10,1,2,66,"I 42","","",TRUE,"CV","p",522,"cv","I",2,"v","v",TRUE,1,-0.688066221904076
"CVOE_B",10,1,2,67,"D 65","","",TRUE,"CV","q",939,"cv","D",5,"c","c",TRUE,1,-0.238428960143599
"CVOE_B",10,1,2,68,"U 77","","",FALSE,"CV","p",2078,"cv","U",7,"v","v",TRUE,1,0.989716941883219
"CVOE_B",10,1,2,69,"E 12","","",TRUE,"CV","p",439,"cv","E",2,"v","v",TRUE,1,-0.777562367530262
"CVOE_B",10,1,2,70,"I 60","","",TRUE,"CV","p",375,"cv","I",0,"v","v",TRUE,1,-0.846571443675754
"CVOE_B",10,1,2,71,"J 36","","",FALSE,"CV","q",586,"cv","J",6,"c","c",TRUE,1,-0.619057145758583
"CVOE_B",10,1,2,72,"H 75","","",TRUE,"CV","q",640,"cv","H",5,"c","c",TRUE,1,-0.560830737760823
"CVOE_B",10,1,2,73,"I 50","","",TRUE,"CV","p",664,"cv","I",0,"v","v",TRUE,1,-0.534952334206263
"CVOE_B",10,1,2,74,"E 99","","",FALSE,"CV","p",2926,"cv","E",9,"v","v",TRUE,1,1.904087200811
"CVOE_B",10,1,2,75,"A 86","","",TRUE,"CV","p",720,"cv","A",6,"v","v",TRUE,1,-0.474569392578957
"CVOE_B",10,1,2,76,"U 48","","",TRUE,"CV","p",752,"cv","U",8,"v","v",TRUE,1,-0.440064854506211
"CVOE_B",10,1,2,77,"E 01","","",FALSE,"CV","p",574,"cv","E",1,"v","v",TRUE,1,-0.631996347535863
"CVOE_B",10,1,2,78,"A 78","","",TRUE,"CV","p",409,"cv","A",8,"v","v",TRUE,1,-0.809910371973461
"CVOE_B",10,1,2,79,"P 60","","",FALSE,"CV","q",588,"cv","P",0,"c","c",TRUE,1,-0.616900612129036
"CVOE_B",10,1,2,80,"E 43","","",FALSE,"CV","p",538,"cv","E",3,"v","v",TRUE,1,-0.670813952867702
"CVOE_B",10,1,2,81,"D 69","","",TRUE,"CV","q",1317,"cv","D",9,"c","c",TRUE,1,0.169155895840718
"CVOE_B",10,1,2,82,"H 11","","",TRUE,"CV","q",637,"cv","H",1,"c","c",TRUE,1,-0.564065538205143
"CVOE_B",10,1,2,83,"P 43","","",TRUE,"CV","q",534,"cv","P",3,"c","c",TRUE,1,-0.675127020126796
"CVOE_B",10,1,2,84,"O 67","","",FALSE,"CV","p",433,"cv","O",7,"v","v",TRUE,1,-0.784031968418901
"CVOE_B",10,1,2,85,"S 91","","",FALSE,"CV","q",599,"cv","S",1,"c","c",TRUE,1,-0.605039677166529
"CVOE_B",10,1,2,86,"J 68","","",TRUE,"CV","q",647,"cv","J",8,"c","c",TRUE,1,-0.55328287005741
"CVOE_B",10,1,2,87,"S 47","","",FALSE,"CV","q",903,"cv","S",7,"c","c",TRUE,1,-0.277246565475438
"CVOE_B",10,1,2,88,"I 81","","",TRUE,"CV","p",629,"cv","I",1,"v","v",TRUE,1,-0.57269167272333
"CVOE_B",10,1,2,89,"J 39","","",FALSE,"CV","q",2691,"cv","J",9,"c","c",TRUE,1,1.65069449933927
"CVOE_B",10,1,2,90,"A 11","","",TRUE,"CV","p",359,"cv","A",1,"v","v",TRUE,1,-0.863823712712128
"CVOE_B",10,1,2,91,"O 76","","",FALSE,"CV","p",343,"cv","O",6,"v","v",TRUE,1,-0.881075981748501
"CVOE_B",10,1,2,92,"A 62","","",FALSE,"CV","p",629,"cv","A",2,"v","v",TRUE,1,-0.57269167272333
"CVOE_B",10,1,2,93,"O 27","","",TRUE,"CV","p",1347,"cv","O",7,"v","v",TRUE,1,0.201503900283918
"CVOE_B",10,1,2,94,"E 66","","",FALSE,"CV","p",1249,"cv","E",6,"v","v",TRUE,1,0.0958337524361321
"CVOE_B",10,1,2,95,"J 62","","",TRUE,"CV","q",476,"cv","J",2,"c","c",TRUE,1,-0.737666495383648
"CVOE_B",10,1,2,96,"H 72","","",TRUE,"CV","q",549,"cv","H",2,"c","c",TRUE,1,-0.658953017905196
"CVOE_B",10,1,2,97,"E 49","","",TRUE,"CV","p",762,"cv","E",9,"v","v",TRUE,1,-0.429282186358477
"CVOE_B",10,1,2,98,"D 52","","",TRUE,"CV","q",747,"cv","D",2,"c","c",TRUE,1,-0.445456188580077
"CVOE_B",10,1,2,99,"H 62","","",TRUE,"CV","q",673,"cv","H",2,"c","c",TRUE,1,-0.525247932873303
"CVOE_B",10,1,2,100,"I 11","","",TRUE,"CV","p",1182,"cv","I",1,"v","v",TRUE,1,0.0235898758463193
"CVOE_B",10,1,2,101,"A 98","","",FALSE,"CV","p",580,"cv","A",8,"v","v",TRUE,1,-0.625526746647223
"CVOE_B",10,1,2,102,"H 29","","",FALSE,"CV","q",631,"cv","H",9,"c","c",TRUE,1,-0.570535139093783
"CVOE_B",10,1,2,103,"E 83","","",TRUE,"CV","p",437,"cv","E",3,"v","v",TRUE,1,-0.779718901159808
"CVOE_B",10,1,2,104,"D 43","","",FALSE,"CV","q",694,"cv","D",3,"c","c",TRUE,1,-0.502604329763063
"CVOE_B",10,1,2,105,"P 45","","",TRUE,"CV","q",2057,"cv","P",5,"c","c",TRUE,1,0.967073338772979
"CVOE_B",10,1,2,106,"J 17","","",TRUE,"CV","q",524,"cv","J",7,"c","c",TRUE,1,-0.685909688274529
"CVOE_B",6,1,2,12,"I 66","","",TRUE,"CV","p",1477,"cv","I",6,"v","v",TRUE,1,0.34167858620445
"CVOE_B",6,1,2,13,"S 30","","",FALSE,"CV","q",894,"cv","S",0,"c","c",TRUE,1,-0.286950966808398
"CVOE_B",6,1,2,14,"D 20","","",FALSE,"CV","q",1961,"cv","D",0,"c","c",TRUE,1,0.86355972455474
"CVOE_B",6,1,2,15,"I 31","","",FALSE,"CV","p",978,"cv","I",1,"v","v",TRUE,1,-0.196376554367439
"CVOE_B",6,1,2,16,"P 16","","",FALSE,"CV","q",885,"cv","P",6,"c","c",TRUE,1,-0.296655368141358
"CVOE_B",6,1,2,17,"A 49","","",FALSE,"CV","p",934,"cv","A",9,"v","v",TRUE,1,-0.243820294217465
"CVOE_B",6,1,2,18,"O 64","","",TRUE,"CV","p",721,"cv","O",4,"v","v",TRUE,1,-0.473491125764184
"CVOE_B",6,1,2,19,"D 02","","",FALSE,"CV","q",770,"cv","D",2,"c","c",TRUE,1,-0.420656051840291
"CVOE_B",6,1,2,20,"P 81","","",TRUE,"CV","q",805,"cv","P",1,"c","c",TRUE,1,-0.382916713323224
"CVOE_B",6,1,2,21,"J 58","","",FALSE,"CV","q",749,"cv","J",8,"c","c",TRUE,1,-0.443299654950531
"CVOE_B",6,1,2,22,"A 22","","",TRUE,"CV","p",763,"cv","A",2,"v","v",TRUE,1,-0.428203919543704
"CVOE_B",6,1,2,23,"J 72","","",FALSE,"CV","q",972,"cv","J",2,"c","c",TRUE,1,-0.202846155256079
"CVOE_B",6,1,2,24,"P 91","","",TRUE,"CV","q",1671,"cv","P",1,"c","c",TRUE,1,0.550862348270475
"CVOE_B",6,1,2,25,"E 19","","",FALSE,"CV","p",773,"cv","E",9,"v","v",TRUE,1,-0.417421251395971
"CVOE_B",6,1,2,26,"I 30","","",TRUE,"CV","p",936,"cv","I",0,"v","v",TRUE,1,-0.241663760587919
"CVOE_B",6,1,2,27,"D 91","","",TRUE,"CV","q",675,"cv","D",1,"c","c",TRUE,1,-0.523091399243757
"CVOE_B",6,1,2,28,"O 48","","",TRUE,"CV","p",892,"cv","O",8,"v","v",TRUE,1,-0.289107500437945
"CVOE_B",6,1,2,29,"A 89","","",FALSE,"CV","p",807,"cv","A",9,"v","v",TRUE,1,-0.380760179693678
"CVOE_B",6,1,2,30,"U 11","","",FALSE,"CV","p",882,"cv","U",1,"v","v",TRUE,1,-0.299890168585678
"CVOE_B",6,1,2,31,"I 76","","",TRUE,"CV","p",715,"cv","I",6,"v","v",TRUE,1,-0.479960726652824
"CVOE_B",6,1,2,32,"U 89","","",FALSE,"CV","p",859,"cv","U",9,"v","v",TRUE,1,-0.324690305325465
"CVOE_B",6,1,2,33,"D 63","","",TRUE,"CV","q",654,"cv","D",3,"c","c",TRUE,1,-0.545735002353997
"CVOE_B",6,1,2,34,"H 70","","",FALSE,"CV","q",1257,"cv","H",0,"c","c",TRUE,1,0.104459886954319
"CVOE_B",6,1,2,35,"D 48","","",FALSE,"CV","q",1205,"cv","D",8,"c","c",TRUE,1,0.0483900125861058
"CVOE_B",6,1,2,36,"P 56","","",FALSE,"CV","q",1117,"cv","P",6,"c","c",TRUE,1,-0.0464974671139468
"CVOE_B",6,1,2,37,"O 77","","",FALSE,"CV","p",606,"cv","O",7,"v","v",TRUE,1,-0.597491809463116
"CVOE_B",6,1,2,38,"P 42","","",FALSE,"CV","q",1230,"cv","P",2,"c","c",TRUE,1,0.0753466829554389
"CVOE_B",6,1,2,39,"H 22","","",FALSE,"CV","q",2244,"cv","H",2,"c","c",TRUE,1,1.16870923313559
"CVOE_B",6,1,2,40,"E 42","","",TRUE,"CV","p",654,"cv","E",2,"v","v",TRUE,1,-0.545735002353997
"CVOE_B",6,1,2,41,"J 28","","",FALSE,"CV","q",657,"cv","J",8,"c","c",TRUE,1,-0.542500201909677
"CVOE_B",6,1,2,42,"E 95","","",FALSE,"CV","p",604,"cv","E",5,"v","v",TRUE,1,-0.599648343092663
"CVOE_B",6,1,2,43,"S 63","","",TRUE,"CV","q",668,"cv","S",3,"c","c",TRUE,1,-0.53063926694717
"CVOE_B",6,1,2,44,"H 50","","",FALSE,"CV","q",746,"cv","H",0,"c","c",TRUE,1,-0.446534455394851
"CVOE_B",6,1,2,45,"S 33","","",TRUE,"CV","p",696,"cv","S",3,"c","v",FALSE,0,-0.500447796133517
"CVOE_B",6,1,2,46,"P 57","","",TRUE,"CV","q",3707,"cv","P",7,"c","c",TRUE,1,2.74621358314897
"CVOE_B",6,1,2,47,"E 23","","",FALSE,"CV","p",850,"cv","E",3,"v","v",TRUE,1,-0.334394706658425
"CVOE_B",6,1,2,48,"S 61","","",TRUE,"CV","q",2413,"cv","S",1,"c","c",TRUE,1,1.35093632483228
"CVOE_B",6,1,2,49,"U 67","","",FALSE,"CV","p",761,"cv","U",7,"v","v",TRUE,1,-0.430360453173251
"CVOE_B",6,1,2,50,"H 32","","",FALSE,"CV","q",913,"cv","H",2,"c","c",TRUE,1,-0.266463897327705
"CVOE_B",6,1,2,51,"U 50","","",TRUE,"CV","p",679,"cv","U",0,"v","v",TRUE,1,-0.518778331984663
"CVOE_B",6,1,2,52,"O 49","","",FALSE,"CV","p",920,"cv","O",9,"v","v",TRUE,1,-0.258916029624292
"CVOE_B",6,1,2,53,"U 32","","",TRUE,"CV","p",688,"cv","U",2,"v","v",TRUE,1,-0.509073930651703
"CVOE_B",6,1,2,54,"J 78","","",FALSE,"CV","q",747,"cv","J",8,"c","c",TRUE,1,-0.445456188580077
"CVOE_B",6,1,2,55,"S 54","","",FALSE,"CV","q",881,"cv","S",4,"c","c",TRUE,1,-0.300968435400452
"CVOE_B",6,1,2,56,"J 27","","",TRUE,"CV","q",762,"cv","J",7,"c","c",TRUE,1,-0.429282186358477
"CVOE_B",6,1,2,57,"S 06","","",FALSE,"CV","q",906,"cv","S",6,"c","c",TRUE,1,-0.274011765031119
"CVOE_B",6,1,2,58,"D 67","","",TRUE,"CV","q",744,"cv","D",7,"c","c",TRUE,1,-0.448690989024397
"CVOE_B",6,1,2,59,"A 79","","",FALSE,"CV","p",766,"cv","A",9,"v","v",TRUE,1,-0.424969119099384
"CVOE_B",6,1,2,60,"S 52","","",FALSE,"CV","q",894,"cv","S",2,"c","c",TRUE,1,-0.286950966808398
"CVOE_B",6,1,2,61,"U 16","","",TRUE,"CV","p",874,"cv","U",6,"v","v",TRUE,1,-0.308516303103865
"CVOE_B",6,1,2,62,"O 82","","",TRUE,"CV","p",1402,"cv","O",2,"v","v",TRUE,1,0.260808575096451
"CVOE_B",6,1,2,63,"H 87","","",TRUE,"CV","q",779,"cv","H",7,"c","c",TRUE,1,-0.410951650507331
"CVOE_B",6,1,2,64,"I 32","","",TRUE,"CV","p",894,"cv","I",2,"v","v",TRUE,1,-0.286950966808398
"CVOE_B",6,1,2,65,"U 37","","",FALSE,"CV","p",752,"cv","U",7,"v","v",TRUE,1,-0.440064854506211
"CVOE_B",6,1,2,66,"I 42","","",TRUE,"CV","p",2095,"cv","I",2,"v","v",TRUE,1,1.00804747773437
"CVOE_B",6,1,2,67,"D 65","","",TRUE,"CV","q",875,"cv","D",5,"c","c",TRUE,1,-0.307438036289092
"CVOE_B",6,1,2,68,"U 77","","",FALSE,"CV","p",691,"cv","U",7,"v","v",TRUE,1,-0.505839130207383
"CVOE_B",6,1,2,69,"E 12","","",TRUE,"CV","p",758,"cv","E",2,"v","v",TRUE,1,-0.433595253617571
"CVOE_B",6,1,2,70,"I 60","","",TRUE,"CV","p",783,"cv","I",0,"v","v",TRUE,1,-0.406638583248238
"CVOE_B",6,1,2,71,"J 36","","",FALSE,"CV","q",741,"cv","J",6,"c","c",TRUE,1,-0.451925789468717
"CVOE_B",6,1,2,72,"H 75","","",TRUE,"CV","q",802,"cv","H",5,"c","c",TRUE,1,-0.386151513767544
"CVOE_B",6,1,2,73,"I 50","","",TRUE,"CV","p",675,"cv","I",0,"v","v",TRUE,1,-0.523091399243757
"CVOE_B",6,1,2,74,"E 99","","",FALSE,"CV","p",907,"cv","E",9,"v","v",TRUE,1,-0.272933498216345
"CVOE_B",6,1,2,75,"A 86","","",TRUE,"CV","p",873,"cv","A",6,"v","v",TRUE,1,-0.309594569918638
"CVOE_B",6,1,2,76,"U 48","","",TRUE,"CV","p",791,"cv","U",8,"v","v",TRUE,1,-0.398012448730051
"CVOE_B",6,1,2,77,"E 01","","",FALSE,"CV","p",693,"cv","E",1,"v","v",TRUE,1,-0.503682596577837
"CVOE_B",6,1,2,78,"A 78","","",TRUE,"CV","p",752,"cv","A",8,"v","v",TRUE,1,-0.440064854506211
"CVOE_B",6,1,2,79,"P 60","","",FALSE,"CV","q",814,"cv","P",0,"c","c",TRUE,1,-0.373212311990264
"CVOE_B",6,1,2,80,"E 43","","",FALSE,"CV","p",673,"cv","E",3,"v","v",TRUE,1,-0.525247932873303
"CVOE_B",6,1,2,81,"D 69","","",TRUE,"CV","q",1798,"cv","D",9,"c","c",TRUE,1,0.687802233746688
"CVOE_B",6,1,2,82,"H 11","","",TRUE,"CV","q",935,"cv","H",1,"c","c",TRUE,1,-0.242742027402692
"CVOE_B",6,1,2,83,"P 43","","",TRUE,"CV","q",955,"cv","P",3,"c","c",TRUE,1,-0.221176691107226
"CVOE_B",6,1,2,84,"O 67","","",FALSE,"CV","p",660,"cv","O",7,"v","v",TRUE,1,-0.539265401465357
"CVOE_B",6,1,2,85,"S 91","","",FALSE,"CV","q",678,"cv","S",1,"c","c",TRUE,1,-0.519856598799437
"CVOE_B",6,1,2,86,"J 68","","",TRUE,"CV","q",1574,"cv","J",8,"c","c",TRUE,1,0.446270467237463
"CVOE_B",6,1,2,87,"S 47","","",FALSE,"CV","q",499,"cv","S",7,"c","c",TRUE,1,-0.712866358643862
"CVOE_B",6,1,2,88,"I 81","","",TRUE,"CV","p",678,"cv","I",1,"v","v",TRUE,1,-0.519856598799437
"CVOE_B",6,1,2,89,"J 39","","",FALSE,"CV","q",806,"cv","J",9,"c","c",TRUE,1,-0.381838446508451
"CVOE_B",6,1,2,90,"A 11","","",TRUE,"CV","p",663,"cv","A",1,"v","v",TRUE,1,-0.536030601021037
"CVOE_B",6,1,2,91,"O 76","","",FALSE,"CV","p",1491,"cv","O",6,"v","v",TRUE,1,0.356774321611277
"CVOE_B",6,1,2,92,"A 62","","",FALSE,"CV","p",720,"cv","A",2,"v","v",TRUE,1,-0.474569392578957
"CVOE_B",6,1,2,93,"O 27","","",TRUE,"CV","p",920,"cv","O",7,"v","v",TRUE,1,-0.258916029624292
"CVOE_B",6,1,2,94,"E 66","","",FALSE,"CV","p",641,"cv","E",6,"v","v",TRUE,1,-0.55975247094605
"CVOE_B",6,1,2,95,"J 62","","",TRUE,"CV","q",769,"cv","J",2,"c","c",TRUE,1,-0.421734318655064
"CVOE_B",6,1,2,96,"H 72","","",TRUE,"CV","q",620,"cv","H",2,"c","c",TRUE,1,-0.58239607405629
"CVOE_B",6,1,2,97,"E 49","","",TRUE,"CV","p",530,"cv","E",9,"v","v",TRUE,1,-0.679440087385889
"CVOE_B",6,1,2,98,"D 52","","",TRUE,"CV","q",653,"cv","D",2,"c","c",TRUE,1,-0.54681326916877
"CVOE_B",6,1,2,99,"H 62","","",TRUE,"CV","q",568,"cv","H",2,"c","c",TRUE,1,-0.638465948424503
"CVOE_B",6,1,2,100,"I 11","","",TRUE,"CV","p",660,"cv","I",1,"v","v",TRUE,1,-0.539265401465357
"CVOE_B",6,1,2,101,"A 98","","",FALSE,"CV","p",1054,"cv","A",8,"v","v",TRUE,1,-0.114428276444666
"CVOE_B",6,1,2,102,"H 29","","",FALSE,"CV","q",890,"cv","H",9,"c","c",TRUE,1,-0.291264034067492
"CVOE_B",6,1,2,103,"E 83","","",TRUE,"CV","p",789,"cv","E",3,"v","v",TRUE,1,-0.400168982359598
"CVOE_B",6,1,2,104,"D 43","","",FALSE,"CV","q",1587,"cv","D",3,"c","c",TRUE,1,0.460287935829516
"CVOE_B",6,1,2,105,"P 45","","",TRUE,"CV","q",681,"cv","P",5,"c","c",TRUE,1,-0.516621798355117
"CVOE_B",6,1,2,106,"J 17","","",TRUE,"CV","q",546,"cv","J",7,"c","c",TRUE,1,-0.662187818349516
"CVOE_C",3,1,2,12,"I 66","","",TRUE,"CV","p",678,"cv","I",6,"v","v",TRUE,1,-0.519856598799437
"CVOE_C",3,1,2,13,"S 30","","",FALSE,"CV","q",743,"cv","S",0,"c","c",TRUE,1,-0.449769255839171
"CVOE_C",3,1,2,14,"D 20","","",FALSE,"CV","q",765,"cv","D",0,"c","c",TRUE,1,-0.426047385914157
"CVOE_C",3,1,2,15,"I 31","","",FALSE,"CV","p",533,"cv","I",1,"v","v",TRUE,1,-0.676205286941569
"CVOE_C",3,1,2,16,"P 16","","",FALSE,"CV","q",568,"cv","P",6,"c","c",TRUE,1,-0.638465948424503
"CVOE_C",3,1,2,17,"A 49","","",FALSE,"CV","p",643,"cv","A",9,"v","v",TRUE,1,-0.557595937316503
"CVOE_C",3,1,2,18,"O 64","","",TRUE,"CV","p",524,"cv","O",4,"v","v",TRUE,1,-0.685909688274529
"CVOE_C",3,1,2,19,"D 02","","",FALSE,"CV","q",532,"cv","D",2,"c","c",TRUE,1,-0.677283553756342
"CVOE_C",3,1,2,20,"P 81","","",TRUE,"CV","q",871,"cv","P",1,"c","c",TRUE,1,-0.311751103548185
"CVOE_C",3,1,2,21,"J 58","","",FALSE,"CV","q",797,"cv","J",8,"c","c",TRUE,1,-0.391542847841411
"CVOE_C",3,1,2,22,"A 22","","",TRUE,"CV","p",557,"cv","A",2,"v","v",TRUE,1,-0.650326883387009
"CVOE_C",3,1,2,23,"J 72","","",FALSE,"CV","q",678,"cv","J",2,"c","c",TRUE,1,-0.519856598799437
"CVOE_C",3,1,2,24,"P 91","","",TRUE,"CV","q",454,"cv","P",1,"c","c",TRUE,1,-0.761388365308662
"CVOE_C",3,1,2,25,"E 19","","",FALSE,"CV","p",513,"cv","E",9,"v","v",TRUE,1,-0.697770623237035
"CVOE_C",3,1,2,26,"I 30","","",TRUE,"CV","p",482,"cv","I",0,"v","v",TRUE,1,-0.731196894495008
"CVOE_C",3,1,2,27,"D 91","","",TRUE,"CV","q",378,"cv","D",1,"c","c",TRUE,1,-0.843336643231434
"CVOE_C",3,1,2,28,"O 48","","",TRUE,"CV","p",589,"cv","O",8,"v","v",TRUE,1,-0.615822345314263
"CVOE_C",3,1,2,29,"A 89","","",FALSE,"CV","p",531,"cv","A",9,"v","v",TRUE,1,-0.678361820571115
"CVOE_C",3,1,2,30,"U 11","","",FALSE,"CV","q",382,"cv","U",1,"v","c",FALSE,0,-0.839023575972341
"CVOE_C",3,1,2,31,"I 76","","",TRUE,"CV","p",684,"cv","I",6,"v","v",TRUE,1,-0.513386997910797
"CVOE_C",3,1,2,32,"U 89","","",FALSE,"CV","p",380,"cv","U",9,"v","v",TRUE,1,-0.841180109601888
"CVOE_C",3,1,2,33,"D 63","","",TRUE,"CV","q",562,"cv","D",3,"c","c",TRUE,1,-0.644935549313142
"CVOE_C",3,1,2,34,"H 70","","",FALSE,"CV","q",874,"cv","H",0,"c","c",TRUE,1,-0.308516303103865
"CVOE_C",3,1,2,35,"D 48","","",FALSE,"CV","q",475,"cv","D",8,"c","c",TRUE,1,-0.738744762198422
"CVOE_C",3,1,2,36,"P 56","","",FALSE,"CV","q",475,"cv","P",6,"c","c",TRUE,1,-0.738744762198422
"CVOE_C",3,1,2,37,"O 77","","",FALSE,"CV","p",643,"cv","O",7,"v","v",TRUE,1,-0.557595937316503
"CVOE_C",3,1,2,38,"P 42","","",FALSE,"CV","q",804,"cv","P",2,"c","c",TRUE,1,-0.383994980137998
"CVOE_C",3,1,2,39,"H 22","","",FALSE,"CV","q",484,"cv","H",2,"c","c",TRUE,1,-0.729040360865462
"CVOE_C",3,1,2,40,"E 42","","",TRUE,"CV","p",485,"cv","E",2,"v","v",TRUE,1,-0.727962094050688
"CVOE_C",3,1,2,41,"J 28","","",FALSE,"CV","q",389,"cv","J",8,"c","c",TRUE,1,-0.831475708268928
"CVOE_C",3,1,2,42,"E 95","","",FALSE,"CV","q",491,"cv","E",5,"v","c",FALSE,0,-0.721492493162049
"CVOE_C",3,1,2,43,"S 63","","",TRUE,"CV","q",814,"cv","S",3,"c","c",TRUE,1,-0.373212311990264
"CVOE_C",3,1,2,44,"H 50","","",FALSE,"CV","q",521,"cv","H",0,"c","c",TRUE,1,-0.689144488718849
"CVOE_C",3,1,2,45,"S 33","","",TRUE,"CV","q",985,"cv","S",3,"c","c",TRUE,1,-0.188828686664026
"CVOE_C",3,1,2,46,"P 57","","",TRUE,"CV","q",543,"cv","P",7,"c","c",TRUE,1,-0.665422618793836
"CVOE_C",3,1,2,47,"E 23","","",FALSE,"CV","p",901,"cv","E",3,"v","v",TRUE,1,-0.279403099104985
"CVOE_C",3,1,2,48,"S 61","","",TRUE,"CV","q",763,"cv","S",1,"c","c",TRUE,1,-0.428203919543704
"CVOE_C",3,1,2,49,"U 67","","",FALSE,"CV","p",771,"cv","U",7,"v","v",TRUE,1,-0.419577785025517
"CVOE_C",3,1,2,50,"H 32","","",FALSE,"CV","q",607,"cv","H",2,"c","c",TRUE,1,-0.596413542648343
"CVOE_C",3,1,2,51,"U 50","","",TRUE,"CV","p",498,"cv","U",0,"v","v",TRUE,1,-0.713944625458635
"CVOE_C",3,1,2,52,"O 49","","",FALSE,"CV","p",469,"cv","O",9,"v","v",TRUE,1,-0.745214363087062
"CVOE_C",3,1,2,53,"U 32","","",TRUE,"CV","p",434,"cv","U",2,"v","v",TRUE,1,-0.782953701604128
"CVOE_C",3,1,2,54,"J 78","","",FALSE,"CV","q",667,"cv","J",8,"c","c",TRUE,1,-0.531717533761943
"CVOE_C",3,1,2,55,"S 54","","",FALSE,"CV","q",849,"cv","S",4,"c","c",TRUE,1,-0.335472973473198
"CVOE_C",3,1,2,56,"J 27","","",TRUE,"CV","q",612,"cv","J",7,"c","c",TRUE,1,-0.591022208574476
"CVOE_C",3,1,2,57,"S 06","","",FALSE,"CV","q",759,"cv","S",6,"c","c",TRUE,1,-0.432516986802797
"CVOE_C",3,1,2,58,"D 67","","",TRUE,"CV","q",1023,"cv","D",7,"c","c",TRUE,1,-0.147854547702639
"CVOE_C",3,1,2,59,"A 79","","",FALSE,"CV","p",701,"cv","A",9,"v","v",TRUE,1,-0.49505646205965
"CVOE_C",3,1,2,60,"S 52","","",FALSE,"CV","q",1147,"cv","S",2,"c","c",TRUE,1,-0.0141494626707471
"CVOE_C",3,1,2,61,"U 16","","",TRUE,"CV","p",593,"cv","U",6,"v","v",TRUE,1,-0.611509278055169
"CVOE_C",3,1,2,62,"O 82","","",TRUE,"CV","p",434,"cv","O",2,"v","v",TRUE,1,-0.782953701604128
"CVOE_C",3,1,2,63,"H 87","","",TRUE,"CV","q",474,"cv","H",7,"c","c",TRUE,1,-0.739823029013195
"CVOE_C",3,1,2,64,"I 32","","",TRUE,"CV","p",586,"cv","I",2,"v","v",TRUE,1,-0.619057145758583
"CVOE_C",3,1,2,65,"U 37","","",FALSE,"CV","p",496,"cv","U",7,"v","v",TRUE,1,-0.716101159088182
"CVOE_C",3,1,2,66,"I 42","","",TRUE,"CV","p",483,"cv","I",2,"v","v",TRUE,1,-0.730118627680235
"CVOE_C",3,1,2,67,"D 65","","",TRUE,"CV","q",603,"cv","D",5,"c","c",TRUE,1,-0.600726609907436
"CVOE_C",3,1,2,68,"U 77","","",FALSE,"CV","p",604,"cv","U",7,"v","v",TRUE,1,-0.599648343092663
"CVOE_C",3,1,2,69,"E 12","","",TRUE,"CV","p",492,"cv","E",2,"v","v",TRUE,1,-0.720414226347275
"CVOE_C",3,1,2,70,"I 60","","",TRUE,"CV","p",383,"cv","I",0,"v","v",TRUE,1,-0.837945309157568
"CVOE_C",3,1,2,71,"J 36","","",FALSE,"CV","q",541,"cv","J",6,"c","c",TRUE,1,-0.667579152423382
"CVOE_C",3,1,2,72,"H 75","","",TRUE,"CV","q",555,"cv","H",5,"c","c",TRUE,1,-0.652483417016556
"CVOE_C",3,1,2,73,"I 50","","",TRUE,"CV","p",459,"cv","I",0,"v","v",TRUE,1,-0.755997031234795
"CVOE_C",3,1,2,74,"E 99","","",FALSE,"CV","q",446,"cv","E",9,"v","c",FALSE,0,-0.770014499826848
"CVOE_C",3,1,2,75,"A 86","","",TRUE,"CV","p",519,"cv","A",6,"v","v",TRUE,1,-0.691301022348395
"CVOE_C",3,1,2,76,"U 48","","",TRUE,"CV","p",367,"cv","U",8,"v","v",TRUE,1,-0.855197578193941
"CVOE_C",3,1,2,77,"E 01","","",FALSE,"CV","p",370,"cv","E",1,"v","v",TRUE,1,-0.851962777749621
"CVOE_C",3,1,2,78,"A 78","","",TRUE,"CV","p",1013,"cv","A",8,"v","v",TRUE,1,-0.158637215850373
"CVOE_C",3,1,2,79,"P 60","","",FALSE,"CV","q",728,"cv","P",0,"c","c",TRUE,1,-0.46594325806077
"CVOE_C",3,1,2,80,"E 43","","",FALSE,"CV","p",619,"cv","E",3,"v","v",TRUE,1,-0.583474340871063
"CVOE_C",3,1,2,81,"D 69","","",TRUE,"CV","q",646,"cv","D",9,"c","c",TRUE,1,-0.554361136872183
"CVOE_C",3,1,2,82,"H 11","","",TRUE,"CV","q",634,"cv","H",1,"c","c",TRUE,1,-0.567300338649463
"CVOE_C",3,1,2,83,"P 43","","",TRUE,"CV","q",586,"cv","P",3,"c","c",TRUE,1,-0.619057145758583
"CVOE_C",3,1,2,84,"O 67","","",FALSE,"CV","p",536,"cv","O",7,"v","v",TRUE,1,-0.672970486497249
"CVOE_C",3,1,2,85,"S 91","","",FALSE,"CV","q",467,"cv","S",1,"c","c",TRUE,1,-0.747370896716608
"CVOE_C",3,1,2,86,"J 68","","",TRUE,"CV","q",441,"cv","J",8,"c","c",TRUE,1,-0.775405833900715
"CVOE_C",3,1,2,87,"S 47","","",FALSE,"CV","q",353,"cv","S",7,"c","c",TRUE,1,-0.870293313600767
"CVOE_C",3,1,2,88,"I 81","","",TRUE,"CV","p",511,"cv","I",1,"v","v",TRUE,1,-0.699927156866582
"CVOE_C",3,1,2,89,"J 39","","",FALSE,"CV","q",484,"cv","J",9,"c","c",TRUE,1,-0.729040360865462
"CVOE_C",3,1,2,90,"A 11","","",TRUE,"CV","p",509,"cv","A",1,"v","v",TRUE,1,-0.702083690496129
"CVOE_C",3,1,2,91,"O 76","","",FALSE,"CV","p",490,"cv","O",6,"v","v",TRUE,1,-0.722570759976822
"CVOE_C",3,1,2,92,"A 62","","",FALSE,"CV","p",406,"cv","A",2,"v","v",TRUE,1,-0.813145172417781
"CVOE_C",3,1,2,93,"O 27","","",TRUE,"CV","p",342,"cv","O",7,"v","v",TRUE,1,-0.882154248563274
"CVOE_C",3,1,2,94,"E 66","","",FALSE,"CV","p",420,"cv","E",6,"v","v",TRUE,1,-0.798049437010955
"CVOE_C",3,1,2,95,"J 62","","",TRUE,"CV","q",647,"cv","J",2,"c","c",TRUE,1,-0.55328287005741
"CVOE_C",3,1,2,96,"H 72","","",TRUE,"CV","p",530,"cv","H",2,"c","v",FALSE,0,-0.679440087385889
"CVOE_C",3,1,2,97,"E 49","","",TRUE,"CV","p",973,"cv","E",9,"v","v",TRUE,1,-0.201767888441306
"CVOE_C",3,1,2,98,"D 52","","",TRUE,"CV","q",648,"cv","D",2,"c","c",TRUE,1,-0.552204603242636
"CVOE_C",3,1,2,99,"H 62","","",TRUE,"CV","q",451,"cv","H",2,"c","c",TRUE,1,-0.764623165752982
"CVOE_C",3,1,2,100,"I 11","","",TRUE,"CV","p",694,"cv","I",1,"v","v",TRUE,1,-0.502604329763063
"CVOE_C",3,1,2,101,"A 98","","",FALSE,"CV","p",425,"cv","A",8,"v","v",TRUE,1,-0.792658102937088
"CVOE_C",3,1,2,102,"H 29","","",FALSE,"CV","q",559,"cv","H",9,"c","c",TRUE,1,-0.648170349757462
"CVOE_C",3,1,2,103,"E 83","","",TRUE,"CV","q",479,"cv","E",3,"v","c",FALSE,0,-0.734431694939328
"CVOE_C",3,1,2,104,"D 43","","",FALSE,"CV","q",1089,"cv","D",3,"c","c",TRUE,1,-0.0766889379275999
"CVOE_C",3,1,2,105,"P 45","","",TRUE,"CV","q",555,"cv","P",5,"c","c",TRUE,1,-0.652483417016556
"CVOE_C",3,1,2,106,"J 17","","",TRUE,"CV","q",459,"cv","J",7,"c","c",TRUE,1,-0.755997031234795
"CVOE_C",11,1,2,11,"A 71","","",FALSE,"CV","p",2185,"cv","A",1,"v","v",TRUE,1,1.10509149106396
"CVOE_C",11,1,2,12,"I 66","","",TRUE,"CV","p",727,"cv","I",6,"v","v",TRUE,1,-0.467021524875544
"CVOE_C",11,1,2,13,"S 30","","",FALSE,"CV","q",575,"cv","S",0,"c","c",TRUE,1,-0.630918080721089
"CVOE_C",11,1,2,14,"D 20","","",FALSE,"CV","q",1930,"cv","D",0,"c","c",TRUE,1,0.830133453296767
"CVOE_C",11,1,2,15,"I 31","","",FALSE,"CV","p",574,"cv","I",1,"v","v",TRUE,1,-0.631996347535863
"CVOE_C",11,1,2,16,"P 16","","",FALSE,"CV","q",705,"cv","P",6,"c","c",TRUE,1,-0.490743394800557
"CVOE_C",11,1,2,17,"A 49","","",FALSE,"CV","p",775,"cv","A",9,"v","v",TRUE,1,-0.415264717766424
"CVOE_C",11,1,2,18,"O 64","","",TRUE,"CV","p",466,"cv","O",4,"v","v",TRUE,1,-0.748449163531382
"CVOE_C",11,1,2,19,"D 02","","",FALSE,"CV","q",544,"cv","D",2,"c","c",TRUE,1,-0.664344351979062
"CVOE_C",11,1,2,20,"P 81","","",TRUE,"CV","q",870,"cv","P",1,"c","c",TRUE,1,-0.312829370362958
"CVOE_C",11,1,2,21,"J 58","","",FALSE,"CV","q",499,"cv","J",8,"c","c",TRUE,1,-0.712866358643862
"CVOE_C",11,1,2,22,"A 22","","",TRUE,"CV","p",598,"cv","A",2,"v","v",TRUE,1,-0.606117943981303
"CVOE_C",11,1,2,23,"J 72","","",FALSE,"CV","q",559,"cv","J",2,"c","c",TRUE,1,-0.648170349757462
"CVOE_C",11,1,2,24,"P 91","","",TRUE,"CV","q",903,"cv","P",1,"c","c",TRUE,1,-0.277246565475438
"CVOE_C",11,1,2,25,"E 19","","",FALSE,"CV","p",765,"cv","E",9,"v","v",TRUE,1,-0.426047385914157
"CVOE_C",11,1,2,26,"I 30","","",TRUE,"CV","p",398,"cv","I",0,"v","v",TRUE,1,-0.821771306935968
"CVOE_C",11,1,2,27,"D 91","","",TRUE,"CV","q",486,"cv","D",1,"c","c",TRUE,1,-0.726883827235915
"CVOE_C",11,1,2,28,"O 48","","",TRUE,"CV","p",550,"cv","O",8,"v","v",TRUE,1,-0.657874751090422
"CVOE_C",11,1,2,29,"A 89","","",FALSE,"CV","q",556,"cv","A",9,"v","c",FALSE,0,-0.651405150201782
"CVOE_C",11,1,2,30,"U 11","","",FALSE,"CV","p",1045,"cv","U",1,"v","v",TRUE,1,-0.124132677777626
"CVOE_C",11,1,2,31,"I 76","","",TRUE,"CV","p",1189,"cv","I",6,"v","v",TRUE,1,0.0311377435497326
"CVOE_C",11,1,2,32,"U 89","","",FALSE,"CV","p",483,"cv","U",9,"v","v",TRUE,1,-0.730118627680235
"CVOE_C",11,1,2,33,"D 63","","",TRUE,"CV","q",892,"cv","D",3,"c","c",TRUE,1,-0.289107500437945
"CVOE_C",11,1,2,34,"H 70","","",FALSE,"CV","q",495,"cv","H",0,"c","c",TRUE,1,-0.717179425902955
"CVOE_C",11,1,2,35,"D 48","","",FALSE,"CV","q",858,"cv","D",8,"c","c",TRUE,1,-0.325768572140238
"CVOE_C",11,1,2,36,"P 56","","",FALSE,"CV","q",429,"cv","P",6,"c","c",TRUE,1,-0.788345035677995
"CVOE_C",11,1,2,37,"O 77","","",FALSE,"CV","p",859,"cv","O",7,"v","v",TRUE,1,-0.324690305325465
"CVOE_C",11,1,2,38,"P 42","","",FALSE,"CV","q",654,"cv","P",2,"c","c",TRUE,1,-0.545735002353997
"CVOE_C",11,1,2,39,"H 22","","",FALSE,"CV","q",897,"cv","H",2,"c","c",TRUE,1,-0.283716166364078
"CVOE_C",11,1,2,40,"E 42","","",TRUE,"CV","p",564,"cv","E",2,"v","v",TRUE,1,-0.642779015683596
"CVOE_C",11,1,2,41,"J 28","","",FALSE,"CV","q",485,"cv","J",8,"c","c",TRUE,1,-0.727962094050688
"CVOE_C",11,1,2,42,"E 95","","",FALSE,"CV","p",509,"cv","E",5,"v","v",TRUE,1,-0.702083690496129
"CVOE_C",11,1,2,43,"S 63","","",TRUE,"CV","q",387,"cv","S",3,"c","c",TRUE,1,-0.833632241898474
"CVOE_C",11,1,2,44,"H 50","","",FALSE,"CV","q",496,"cv","H",0,"c","c",TRUE,1,-0.716101159088182
"CVOE_C",11,1,2,45,"S 33","","",TRUE,"CV","q",595,"cv","S",3,"c","c",TRUE,1,-0.609352744425623
"CVOE_C",11,1,2,46,"P 57","","",TRUE,"CV","q",460,"cv","P",7,"c","c",TRUE,1,-0.754918764420022
"CVOE_C",11,1,2,47,"E 23","","",FALSE,"CV","p",567,"cv","E",3,"v","v",TRUE,1,-0.639544215239276
"CVOE_C",11,1,2,48,"S 61","","",TRUE,"CV","q",695,"cv","S",1,"c","c",TRUE,1,-0.50152606294829
"CVOE_C",11,1,2,49,"U 67","","",FALSE,"CV","p",490,"cv","U",7,"v","v",TRUE,1,-0.722570759976822
"CVOE_C",11,1,2,50,"H 32","","",FALSE,"CV","q",397,"cv","H",2,"c","c",TRUE,1,-0.822849573750741
"CVOE_C",11,1,2,51,"U 50","","",TRUE,"CV","p",502,"cv","U",0,"v","v",TRUE,1,-0.709631558199542
"CVOE_C",11,1,2,52,"O 49","","",FALSE,"CV","p",619,"cv","O",9,"v","v",TRUE,1,-0.583474340871063
"CVOE_C",11,1,2,53,"U 32","","",TRUE,"CV","p",799,"cv","U",2,"v","v",TRUE,1,-0.389386314211864
"CVOE_C",11,1,2,54,"J 78","","",FALSE,"CV","q",527,"cv","J",8,"c","c",TRUE,1,-0.682674887830209
"CVOE_C",11,1,2,55,"S 54","","",FALSE,"CV","q",831,"cv","S",4,"c","c",TRUE,1,-0.354881776139118
"CVOE_C",11,1,2,56,"J 27","","",TRUE,"CV","q",421,"cv","J",7,"c","c",TRUE,1,-0.796971170196181
"CVOE_C",11,1,2,57,"S 06","","",FALSE,"CV","q",491,"cv","S",6,"c","c",TRUE,1,-0.721492493162049
"CVOE_C",11,1,2,58,"D 67","","",TRUE,"CV","q",446,"cv","D",7,"c","c",TRUE,1,-0.770014499826848
"CVOE_C",11,1,2,59,"A 79","","",FALSE,"CV","p",398,"cv","A",9,"v","v",TRUE,1,-0.821771306935968
"CVOE_C",11,1,2,60,"S 52","","",FALSE,"CV","q",479,"cv","S",2,"c","c",TRUE,1,-0.734431694939328
"CVOE_C",11,1,2,61,"U 16","","",TRUE,"CV","p",503,"cv","U",6,"v","v",TRUE,1,-0.708553291384769
"CVOE_C",11,1,2,62,"O 82","","",TRUE,"CV","p",837,"cv","O",2,"v","v",TRUE,1,-0.348412175250478
"CVOE_C",11,1,2,63,"H 87","","",TRUE,"CV","q",509,"cv","H",7,"c","c",TRUE,1,-0.702083690496129
"CVOE_C",11,1,2,64,"I 32","","",TRUE,"CV","p",451,"cv","I",2,"v","v",TRUE,1,-0.764623165752982
"CVOE_C",11,1,2,65,"U 37","","",FALSE,"CV","p",574,"cv","U",7,"v","v",TRUE,1,-0.631996347535863
"CVOE_C",11,1,2,66,"I 42","","",TRUE,"CV","p",409,"cv","I",2,"v","v",TRUE,1,-0.809910371973461
"CVOE_C",11,1,2,67,"D 65","","",TRUE,"CV","q",420,"cv","D",5,"c","c",TRUE,1,-0.798049437010955
"CVOE_C",11,1,2,68,"U 77","","",FALSE,"CV","p",447,"cv","U",7,"v","v",TRUE,1,-0.768936233012075
"CVOE_C",11,1,2,69,"E 12","","",TRUE,"CV","q",368,"cv","E",2,"v","c",FALSE,0,-0.854119311379168
"CVOE_C",11,1,2,70,"I 60","","",TRUE,"CV","p",544,"cv","I",0,"v","v",TRUE,1,-0.664344351979062
"CVOE_C",11,1,2,71,"J 36","","",FALSE,"CV","q",646,"cv","J",6,"c","c",TRUE,1,-0.554361136872183
"CVOE_C",11,1,2,72,"H 75","","",TRUE,"CV","q",646,"cv","H",5,"c","c",TRUE,1,-0.554361136872183
"CVOE_C",11,1,2,73,"I 50","","",TRUE,"CV","p",1543,"cv","I",0,"v","v",TRUE,1,0.41284419597949
"CVOE_C",11,1,2,74,"E 99","","",FALSE,"CV","p",381,"cv","E",9,"v","v",TRUE,1,-0.840101842787114
"CVOE_C",11,1,2,75,"A 86","","",TRUE,"CV","p",520,"cv","A",6,"v","v",TRUE,1,-0.690222755533622
"CVOE_C",11,1,2,76,"U 48","","",TRUE,"CV","p",408,"cv","U",8,"v","v",TRUE,1,-0.810988638788235
"CVOE_C",11,1,2,77,"E 01","","",FALSE,"CV","p",763,"cv","E",1,"v","v",TRUE,1,-0.428203919543704
"CVOE_C",11,1,2,78,"A 78","","",TRUE,"CV","p",460,"cv","A",8,"v","v",TRUE,1,-0.754918764420022
"CVOE_C",11,1,2,79,"P 60","","",FALSE,"CV","q",471,"cv","P",0,"c","c",TRUE,1,-0.743057829457515
"CVOE_C",11,1,2,80,"E 43","","",FALSE,"CV","p",428,"cv","E",3,"v","v",TRUE,1,-0.789423302492768
"CVOE_C",11,1,2,81,"D 69","","",TRUE,"CV","q",578,"cv","D",9,"c","c",TRUE,1,-0.627683280276769
"CVOE_C",11,1,2,82,"H 11","","",TRUE,"CV","q",1333,"cv","H",1,"c","c",TRUE,1,0.186408164877091
"CVOE_C",11,1,2,83,"P 43","","",TRUE,"CV","q",696,"cv","P",3,"c","c",TRUE,1,-0.500447796133517
"CVOE_C",11,1,2,84,"O 67","","",FALSE,"CV","p",460,"cv","O",7,"v","v",TRUE,1,-0.754918764420022
"CVOE_C",11,1,2,85,"S 91","","",FALSE,"CV","q",559,"cv","S",1,"c","c",TRUE,1,-0.648170349757462
"CVOE_C",11,1,2,86,"J 68","","",TRUE,"CV","q",407,"cv","J",8,"c","c",TRUE,1,-0.812066905603008
"CVOE_C",11,1,2,87,"S 47","","",FALSE,"CV","q",367,"cv","S",7,"c","c",TRUE,1,-0.855197578193941
"CVOE_C",11,1,2,88,"I 81","","",TRUE,"CV","p",568,"cv","I",1,"v","v",TRUE,1,-0.638465948424503
"CVOE_C",11,1,2,89,"J 39","","",FALSE,"CV","q",459,"cv","J",9,"c","c",TRUE,1,-0.755997031234795
"CVOE_C",11,1,2,90,"A 11","","",TRUE,"CV","p",502,"cv","A",1,"v","v",TRUE,1,-0.709631558199542
"CVOE_C",11,1,2,91,"O 76","","",FALSE,"CV","p",436,"cv","O",6,"v","v",TRUE,1,-0.780797167974581
"CVOE_C",11,1,2,92,"A 62","","",FALSE,"CV","p",372,"cv","A",2,"v","v",TRUE,1,-0.849806244120074
"CVOE_C",11,1,2,93,"O 27","","",TRUE,"CV","p",407,"cv","O",7,"v","v",TRUE,1,-0.812066905603008
"CVOE_C",11,1,2,94,"E 66","","",FALSE,"CV","p",439,"cv","E",6,"v","v",TRUE,1,-0.777562367530262
"CVOE_C",11,1,2,95,"J 62","","",TRUE,"CV","q",536,"cv","J",2,"c","c",TRUE,1,-0.672970486497249
"CVOE_C",11,1,2,96,"H 72","","",TRUE,"CV","q",483,"cv","H",2,"c","c",TRUE,1,-0.730118627680235
"CVOE_C",11,1,2,97,"E 49","","",TRUE,"CV","p",403,"cv","E",9,"v","v",TRUE,1,-0.816379972862101
"CVOE_C",11,1,2,98,"D 52","","",TRUE,"CV","q",467,"cv","D",2,"c","c",TRUE,1,-0.747370896716608
"CVOE_C",11,1,2,99,"H 62","","",TRUE,"CV","q",809,"cv","H",2,"c","c",TRUE,1,-0.378603646064131
"CVOE_C",11,1,2,100,"I 11","","",TRUE,"CV","p",516,"cv","I",1,"v","v",TRUE,1,-0.694535822792715
"CVOE_C",11,1,2,101,"A 98","","",FALSE,"CV","p",789,"cv","A",8,"v","v",TRUE,1,-0.400168982359598
"CVOE_C",11,1,2,102,"H 29","","",FALSE,"CV","q",507,"cv","H",9,"c","c",TRUE,1,-0.704240224125675
"CVOE_C",11,1,2,103,"E 83","","",TRUE,"CV","p",400,"cv","E",3,"v","v",TRUE,1,-0.819614773306421
"CVOE_C",11,1,2,104,"D 43","","",FALSE,"CV","q",537,"cv","D",3,"c","c",TRUE,1,-0.671892219682476
"CVOE_C",11,1,2,105,"P 45","","",TRUE,"CV","q",572,"cv","P",5,"c","c",TRUE,1,-0.634152881165409
"CVOE_C",11,1,2,106,"J 17","","",TRUE,"CV","q",375,"cv","J",7,"c","c",TRUE,1,-0.846571443675754
"CVOE_C",15,1,2,11,"A 71","","",FALSE,"CV","p",1555,"cv","A",1,"v","v",TRUE,1,0.42578339775677
"CVOE_C",15,1,2,12,"I 66","","",TRUE,"CV","p",1180,"cv","I",6,"v","v",TRUE,1,0.0214333422167727
"CVOE_C",15,1,2,13,"S 30","","",FALSE,"CV","q",442,"cv","S",0,"c","c",TRUE,1,-0.774327567085942
"CVOE_C",15,1,2,14,"D 20","","",FALSE,"CV","q",450,"cv","D",0,"c","c",TRUE,1,-0.765701432567755
"CVOE_C",15,1,2,15,"I 31","","",FALSE,"CV","p",430,"cv","I",1,"v","v",TRUE,1,-0.787266768863221
"CVOE_C",15,1,2,16,"P 16","","",FALSE,"CV","q",603,"cv","P",6,"c","c",TRUE,1,-0.600726609907436
"CVOE_C",15,1,2,17,"A 49","","",FALSE,"CV","p",500,"cv","A",9,"v","v",TRUE,1,-0.711788091829089
"CVOE_C",15,1,2,18,"O 64","","",TRUE,"CV","p",415,"cv","O",4,"v","v",TRUE,1,-0.803440771084821
"CVOE_C",15,1,2,19,"D 02","","",FALSE,"CV","q",1338,"cv","D",2,"c","c",TRUE,1,0.191799498950958
"CVOE_C",15,1,2,20,"P 81","","",TRUE,"CV","q",437,"cv","P",1,"c","c",TRUE,1,-0.779718901159808
"CVOE_C",15,1,2,21,"J 58","","",FALSE,"CV","q",429,"cv","J",8,"c","c",TRUE,1,-0.788345035677995
"CVOE_C",15,1,2,22,"A 22","","",TRUE,"CV","p",419,"cv","A",2,"v","v",TRUE,1,-0.799127703825728
"CVOE_C",15,1,2,23,"J 72","","",FALSE,"CV","q",414,"cv","J",2,"c","c",TRUE,1,-0.804519037899595
"CVOE_C",15,1,2,24,"P 91","","",TRUE,"CV","q",377,"cv","P",1,"c","c",TRUE,1,-0.844414910046208
"CVOE_C",15,1,2,25,"E 19","","",FALSE,"CV","p",404,"cv","E",9,"v","v",TRUE,1,-0.815301706047328
"CVOE_C",15,1,2,26,"I 30","","",TRUE,"CV","p",413,"cv","I",0,"v","v",TRUE,1,-0.805597304714368
"CVOE_C",15,1,2,27,"D 91","","",TRUE,"CV","q",512,"cv","D",1,"c","c",TRUE,1,-0.698848890051809
"CVOE_C",15,1,2,28,"O 48","","",TRUE,"CV","p",381,"cv","O",8,"v","v",TRUE,1,-0.840101842787114
"CVOE_C",15,1,2,29,"A 89","","",FALSE,"CV","q",339,"cv","A",9,"v","c",FALSE,0,-0.885389049007594
"CVOE_C",15,1,2,30,"U 11","","",FALSE,"CV","q",614,"cv","U",1,"v","c",FALSE,0,-0.588865674944929
"CVOE_C",15,1,2,31,"I 76","","",TRUE,"CV","p",481,"cv","I",6,"v","v",TRUE,1,-0.732275161309782
"CVOE_C",15,1,2,32,"U 89","","",FALSE,"CV","p",497,"cv","U",9,"v","v",TRUE,1,-0.715022892273409
"CVOE_C",15,1,2,33,"D 63","","",TRUE,"CV","q",628,"cv","D",3,"c","c",TRUE,1,-0.573769939538103
"CVOE_C",15,1,2,34,"H 70","","",FALSE,"CV","q",674,"cv","H",0,"c","c",TRUE,1,-0.52416966605853
"CVOE_C",15,1,2,35,"D 48","","",FALSE,"CV","q",467,"cv","D",8,"c","c",TRUE,1,-0.747370896716608
"CVOE_C",15,1,2,36,"P 56","","",FALSE,"CV","q",368,"cv","P",6,"c","c",TRUE,1,-0.854119311379168
"CVOE_C",15,1,2,37,"O 77","","",FALSE,"CV","p",379,"cv","O",7,"v","v",TRUE,1,-0.842258376416661
"CVOE_C",15,1,2,38,"P 42","","",FALSE,"CV","q",350,"cv","P",2,"c","c",TRUE,1,-0.873528114045087
"CVOE_C",15,1,2,39,"H 22","","",FALSE,"CV","q",404,"cv","H",2,"c","c",TRUE,1,-0.815301706047328
"CVOE_C",15,1,2,40,"E 42","","",TRUE,"CV","p",436,"cv","E",2,"v","v",TRUE,1,-0.780797167974581
"CVOE_C",15,1,2,41,"J 28","","",FALSE,"CV","q",405,"cv","J",8,"c","c",TRUE,1,-0.814223439232555
"CVOE_C",15,1,2,42,"E 95","","",FALSE,"CV","q",301,"cv","E",5,"v","c",FALSE,0,-0.92636318796898
"CVOE_C",15,1,2,43,"S 63","","",TRUE,"CV","q",523,"cv","S",3,"c","c",TRUE,1,-0.686987955089302
"CVOE_C",15,1,2,44,"H 50","","",FALSE,"CV","q",363,"cv","H",0,"c","c",TRUE,1,-0.859510645453034
"CVOE_C",15,1,2,45,"S 33","","",TRUE,"CV","q",467,"cv","S",3,"c","c",TRUE,1,-0.747370896716608
"CVOE_C",15,1,2,46,"P 57","","",TRUE,"CV","q",329,"cv","P",7,"c","c",TRUE,1,-0.896171717155327
"CVOE_C",15,1,2,47,"E 23","","",FALSE,"CV","p",348,"cv","E",3,"v","v",TRUE,1,-0.875684647674634
"CVOE_C",15,1,2,48,"S 61","","",TRUE,"CV","q",578,"cv","S",1,"c","c",TRUE,1,-0.627683280276769
"CVOE_C",15,1,2,49,"U 67","","",FALSE,"CV","p",669,"cv","U",7,"v","v",TRUE,1,-0.529561000132397
"CVOE_C",15,1,2,50,"H 32","","",FALSE,"CV","q",547,"cv","H",2,"c","c",TRUE,1,-0.661109551534742
"CVOE_C",15,1,2,51,"U 50","","",TRUE,"CV","p",312,"cv","U",0,"v","v",TRUE,1,-0.914502253006474
"CVOE_C",15,1,2,52,"O 49","","",FALSE,"CV","p",462,"cv","O",9,"v","v",TRUE,1,-0.752762230790475
"CVOE_C",15,1,2,53,"U 32","","",TRUE,"CV","p",388,"cv","U",2,"v","v",TRUE,1,-0.832553975083701
"CVOE_C",15,1,2,54,"J 78","","",FALSE,"CV","q",345,"cv","J",8,"c","c",TRUE,1,-0.878919448118954
"CVOE_C",15,1,2,55,"S 54","","",FALSE,"CV","q",367,"cv","S",4,"c","c",TRUE,1,-0.855197578193941
"CVOE_C",15,1,2,56,"J 27","","",TRUE,"CV","q",354,"cv","J",7,"c","c",TRUE,1,-0.869215046785994
"CVOE_C",15,1,2,57,"S 06","","",FALSE,"CV","q",1354,"cv","S",6,"c","c",TRUE,1,0.209051767987331
"CVOE_C",15,1,2,58,"D 67","","",TRUE,"CV","q",379,"cv","D",7,"c","c",TRUE,1,-0.842258376416661
"CVOE_C",15,1,2,59,"A 79","","",FALSE,"CV","p",462,"cv","A",9,"v","v",TRUE,1,-0.752762230790475
"CVOE_C",15,1,2,60,"S 52","","",FALSE,"CV","q",460,"cv","S",2,"c","c",TRUE,1,-0.754918764420022
"CVOE_C",15,1,2,61,"U 16","","",TRUE,"CV","p",431,"cv","U",6,"v","v",TRUE,1,-0.786188502048448
"CVOE_C",15,1,2,62,"O 82","","",TRUE,"CV","p",357,"cv","O",2,"v","v",TRUE,1,-0.865980246341674
"CVOE_C",15,1,2,63,"H 87","","",TRUE,"CV","q",349,"cv","H",7,"c","c",TRUE,1,-0.874606380859861
"CVOE_C",15,1,2,64,"I 32","","",TRUE,"CV","p",403,"cv","I",2,"v","v",TRUE,1,-0.816379972862101
"CVOE_C",15,1,2,65,"U 37","","",FALSE,"CV","p",803,"cv","U",7,"v","v",TRUE,1,-0.385073246952771
"CVOE_C",15,1,2,66,"I 42","","",TRUE,"CV","p",355,"cv","I",2,"v","v",TRUE,1,-0.868136779971221
"CVOE_C",15,1,2,67,"D 65","","",TRUE,"CV","q",300,"cv","D",5,"c","c",TRUE,1,-0.927441454783754
"CVOE_C",15,1,2,68,"U 77","","",FALSE,"CV","p",343,"cv","U",7,"v","v",TRUE,1,-0.881075981748501
"CVOE_C",15,1,2,69,"E 12","","",TRUE,"CV","p",396,"cv","E",2,"v","v",TRUE,1,-0.823927840565514
"CVOE_C",15,1,2,70,"I 60","","",TRUE,"CV","p",365,"cv","I",0,"v","v",TRUE,1,-0.857354111823488
"CVOE_C",15,1,2,71,"J 36","","",FALSE,"CV","p",333,"cv","J",6,"c","v",FALSE,0,-0.891858649896234
"CVOE_C",15,1,2,72,"H 75","","",TRUE,"CV","q",392,"cv","H",5,"c","c",TRUE,1,-0.828240907824608
"CVOE_C",15,1,2,73,"I 50","","",TRUE,"CV","p",366,"cv","I",0,"v","v",TRUE,1,-0.856275845008714
"CVOE_C",15,1,2,74,"E 99","","",FALSE,"CV","q",350,"cv","E",9,"v","c",FALSE,0,-0.873528114045087
"CVOE_C",15,1,2,75,"A 86","","",TRUE,"CV","q",340,"cv","A",6,"v","c",FALSE,0,-0.884310782192821
"CVOE_C",15,1,2,76,"U 48","","",TRUE,"CV","p",591,"cv","U",8,"v","v",TRUE,1,-0.613665811684716
"CVOE_C",15,1,2,77,"E 01","","",FALSE,"CV","p",405,"cv","E",1,"v","v",TRUE,1,-0.814223439232555
"CVOE_C",15,1,2,78,"A 78","","",TRUE,"CV","p",429,"cv","A",8,"v","v",TRUE,1,-0.788345035677995
"CVOE_C",15,1,2,79,"P 60","","",FALSE,"CV","q",307,"cv","P",0,"c","c",TRUE,1,-0.91989358708034
"CVOE_C",15,1,2,80,"E 43","","",FALSE,"CV","p",344,"cv","E",3,"v","v",TRUE,1,-0.879997714933727
"CVOE_C",15,1,2,81,"D 69","","",TRUE,"CV","q",278,"cv","D",9,"c","c",TRUE,1,-0.951163324708767
"CVOE_C",15,1,2,82,"H 11","","",TRUE,"CV","q",382,"cv","H",1,"c","c",TRUE,1,-0.839023575972341
"CVOE_C",15,1,2,83,"P 43","","",TRUE,"CV","q",380,"cv","P",3,"c","c",TRUE,1,-0.841180109601888
"CVOE_C",15,1,2,84,"O 67","","",FALSE,"CV","p",431,"cv","O",7,"v","v",TRUE,1,-0.786188502048448
"CVOE_C",15,1,2,85,"S 91","","",FALSE,"CV","p",357,"cv","S",1,"c","v",FALSE,0,-0.865980246341674
"CVOE_C",15,1,2,86,"J 68","","",TRUE,"CV","q",469,"cv","J",8,"c","c",TRUE,1,-0.745214363087062
"CVOE_C",15,1,2,87,"S 47","","",FALSE,"CV","q",371,"cv","S",7,"c","c",TRUE,1,-0.850884510934848
"CVOE_C",15,1,2,88,"I 81","","",TRUE,"CV","p",478,"cv","I",1,"v","v",TRUE,1,-0.735509961754102
"CVOE_C",15,1,2,89,"J 39","","",FALSE,"CV","q",462,"cv","J",9,"c","c",TRUE,1,-0.752762230790475
"CVOE_C",15,1,2,90,"A 11","","",TRUE,"CV","q",380,"cv","A",1,"v","c",FALSE,0,-0.841180109601888
"CVOE_C",15,1,2,91,"O 76","","",FALSE,"CV","p",457,"cv","O",6,"v","v",TRUE,1,-0.758153564864342
"CVOE_C",15,1,2,92,"A 62","","",FALSE,"CV","p",620,"cv","A",2,"v","v",TRUE,1,-0.58239607405629
"CVOE_C",15,1,2,93,"O 27","","",TRUE,"CV","p",354,"cv","O",7,"v","v",TRUE,1,-0.869215046785994
"CVOE_C",15,1,2,94,"E 66","","",FALSE,"CV","p",411,"cv","E",6,"v","v",TRUE,1,-0.807753838343915
"CVOE_C",15,1,2,95,"J 62","","",TRUE,"CV","q",494,"cv","J",2,"c","c",TRUE,1,-0.718257692717729
"CVOE_C",15,1,2,96,"H 72","","",TRUE,"CV","q",521,"cv","H",2,"c","c",TRUE,1,-0.689144488718849
"CVOE_C",15,1,2,97,"E 49","","",TRUE,"CV","p",361,"cv","E",9,"v","v",TRUE,1,-0.861667179082581
"CVOE_C",15,1,2,98,"D 52","","",TRUE,"CV","q",329,"cv","D",2,"c","c",TRUE,1,-0.896171717155327
"CVOE_C",15,1,2,99,"H 62","","",TRUE,"CV","q",396,"cv","H",2,"c","c",TRUE,1,-0.823927840565514
"CVOE_C",15,1,2,100,"I 11","","",TRUE,"CV","p",397,"cv","I",1,"v","v",TRUE,1,-0.822849573750741
"CVOE_C",15,1,2,101,"A 98","","",FALSE,"CV","p",501,"cv","A",8,"v","v",TRUE,1,-0.710709825014315
"CVOE_C",15,1,2,102,"H 29","","",FALSE,"CV","p",363,"cv","H",9,"c","v",FALSE,0,-0.859510645453034
"CVOE_C",15,1,2,103,"E 83","","",TRUE,"CV","q",299,"cv","E",3,"v","c",FALSE,0,-0.928519721598527
"CVOE_C",15,1,2,104,"D 43","","",FALSE,"CV","q",518,"cv","D",3,"c","c",TRUE,1,-0.692379289163169
"CVOE_C",15,1,2,105,"P 45","","",TRUE,"CV","q",430,"cv","P",5,"c","c",TRUE,1,-0.787266768863221
"CVOE_C",15,1,2,106,"J 17","","",TRUE,"CV","q",316,"cv","J",7,"c","c",TRUE,1,-0.910189185747381
"CVOE_C",7,1,2,11,"A 71","","",FALSE,"CV","p",3005,"cv","A",1,"v","v",TRUE,1,1.98927027917809
"CVOE_C",7,1,2,12,"I 66","","",TRUE,"CV","p",830,"cv","I",6,"v","v",TRUE,1,-0.355960042953891
"CVOE_C",7,1,2,13,"S 30","","",FALSE,"CV","q",668,"cv","S",0,"c","c",TRUE,1,-0.53063926694717
"CVOE_C",7,1,2,14,"D 20","","",FALSE,"CV","q",754,"cv","D",0,"c","c",TRUE,1,-0.437908320876664
"CVOE_C",7,1,2,15,"I 31","","",FALSE,"CV","p",874,"cv","I",1,"v","v",TRUE,1,-0.308516303103865
"CVOE_C",7,1,2,16,"P 16","","",FALSE,"CV","q",859,"cv","P",6,"c","c",TRUE,1,-0.324690305325465
"CVOE_C",7,1,2,17,"A 49","","",FALSE,"CV","p",902,"cv","A",9,"v","v",TRUE,1,-0.278324832290212
"CVOE_C",7,1,2,18,"O 64","","",TRUE,"CV","p",1076,"cv","O",4,"v","v",TRUE,1,-0.0907064065196532
"CVOE_C",7,1,2,19,"D 02","","",FALSE,"CV","q",581,"cv","D",2,"c","c",TRUE,1,-0.624448479832449
"CVOE_C",7,1,2,20,"P 81","","",TRUE,"CV","q",1338,"cv","P",1,"c","c",TRUE,1,0.191799498950958
"CVOE_C",7,1,2,21,"J 58","","",FALSE,"CV","q",646,"cv","J",8,"c","c",TRUE,1,-0.554361136872183
"CVOE_C",7,1,2,22,"A 22","","",TRUE,"CV","p",606,"cv","A",2,"v","v",TRUE,1,-0.597491809463116
"CVOE_C",7,1,2,23,"J 72","","",FALSE,"CV","q",601,"cv","J",2,"c","c",TRUE,1,-0.602883143536983
"CVOE_C",7,1,2,24,"P 91","","",TRUE,"CV","q",986,"cv","P",1,"c","c",TRUE,1,-0.187750419849252
"CVOE_C",7,1,2,25,"E 19","","",FALSE,"CV","p",1024,"cv","E",9,"v","v",TRUE,1,-0.146776280887866
"CVOE_C",7,1,2,26,"I 30","","",TRUE,"CV","p",694,"cv","I",0,"v","v",TRUE,1,-0.502604329763063
"CVOE_C",7,1,2,27,"D 91","","",TRUE,"CV","q",697,"cv","D",1,"c","c",TRUE,1,-0.499369529318744
"CVOE_C",7,1,2,28,"O 48","","",TRUE,"CV","p",636,"cv","O",8,"v","v",TRUE,1,-0.565143805019916
"CVOE_C",7,1,2,29,"A 89","","",FALSE,"CV","p",764,"cv","A",9,"v","v",TRUE,1,-0.427125652728931
"CVOE_C",7,1,2,30,"U 11","","",FALSE,"CV","p",789,"cv","U",1,"v","v",TRUE,1,-0.400168982359598
"CVOE_C",7,1,2,31,"I 76","","",TRUE,"CV","p",787,"cv","I",6,"v","v",TRUE,1,-0.402325515989144
"CVOE_C",7,1,2,32,"U 89","","",FALSE,"CV","p",672,"cv","U",9,"v","v",TRUE,1,-0.526326199688077
"CVOE_C",7,1,2,33,"D 63","","",TRUE,"CV","q",614,"cv","D",3,"c","c",TRUE,1,-0.588865674944929
"CVOE_C",7,1,2,34,"H 70","","",FALSE,"CV","q",857,"cv","H",0,"c","c",TRUE,1,-0.326846838955011
"CVOE_C",7,1,2,35,"D 48","","",FALSE,"CV","q",597,"cv","D",8,"c","c",TRUE,1,-0.607196210796076
"CVOE_C",7,1,2,36,"P 56","","",FALSE,"CV","q",861,"cv","P",6,"c","c",TRUE,1,-0.322533771695918
"CVOE_C",7,1,2,37,"O 77","","",FALSE,"CV","p",699,"cv","O",7,"v","v",TRUE,1,-0.497212995689197
"CVOE_C",7,1,2,38,"P 42","","",FALSE,"CV","q",598,"cv","P",2,"c","c",TRUE,1,-0.606117943981303
"CVOE_C",7,1,2,39,"H 22","","",FALSE,"CV","q",1014,"cv","H",2,"c","c",TRUE,1,-0.157558949035599
"CVOE_C",7,1,2,40,"E 42","","",TRUE,"CV","p",954,"cv","E",2,"v","v",TRUE,1,-0.222254957921999
"CVOE_C",7,1,2,41,"J 28","","",FALSE,"CV","q",1394,"cv","J",8,"c","c",TRUE,1,0.252182440578264
"CVOE_C",7,1,2,42,"E 95","","",FALSE,"CV","p",595,"cv","E",5,"v","v",TRUE,1,-0.609352744425623
"CVOE_C",7,1,2,43,"S 63","","",TRUE,"CV","q",587,"cv","S",3,"c","c",TRUE,1,-0.617978878943809
"CVOE_C",7,1,2,44,"H 50","","",FALSE,"CV","q",1201,"cv","H",0,"c","c",TRUE,1,0.0440769453270125
"CVOE_C",7,1,2,45,"S 33","","",TRUE,"CV","q",642,"cv","S",3,"c","c",TRUE,1,-0.558674204131276
"CVOE_C",7,1,2,46,"P 57","","",TRUE,"CV","q",1034,"cv","P",7,"c","c",TRUE,1,-0.135993612740133
"CVOE_C",7,1,2,47,"E 23","","",FALSE,"CV","p",923,"cv","E",3,"v","v",TRUE,1,-0.255681229179972
"CVOE_C",7,1,2,48,"S 61","","",TRUE,"CV","q",587,"cv","S",1,"c","c",TRUE,1,-0.617978878943809
"CVOE_C",7,1,2,49,"U 67","","",FALSE,"CV","p",697,"cv","U",7,"v","v",TRUE,1,-0.499369529318744
"CVOE_C",7,1,2,50,"H 32","","",FALSE,"CV","q",516,"cv","H",2,"c","c",TRUE,1,-0.694535822792715
"CVOE_C",7,1,2,51,"U 50","","",TRUE,"CV","p",653,"cv","U",0,"v","v",TRUE,1,-0.54681326916877
"CVOE_C",7,1,2,52,"O 49","","",FALSE,"CV","p",776,"cv","O",9,"v","v",TRUE,1,-0.414186450951651
"CVOE_C",7,1,2,53,"U 32","","",TRUE,"CV","p",675,"cv","U",2,"v","v",TRUE,1,-0.523091399243757
"CVOE_C",7,1,2,54,"J 78","","",FALSE,"CV","q",539,"cv","J",8,"c","c",TRUE,1,-0.669735686052929
"CVOE_C",7,1,2,55,"S 54","","",FALSE,"CV","q",942,"cv","S",4,"c","c",TRUE,1,-0.235194159699279
"CVOE_C",7,1,2,56,"J 27","","",TRUE,"CV","q",572,"cv","J",7,"c","c",TRUE,1,-0.634152881165409
"CVOE_C",7,1,2,57,"S 06","","",FALSE,"CV","q",647,"cv","S",6,"c","c",TRUE,1,-0.55328287005741
"CVOE_C",7,1,2,58,"D 67","","",TRUE,"CV","q",691,"cv","D",7,"c","c",TRUE,1,-0.505839130207383
"CVOE_C",7,1,2,59,"A 79","","",FALSE,"CV","p",598,"cv","A",9,"v","v",TRUE,1,-0.606117943981303
"CVOE_C",7,1,2,60,"S 52","","",FALSE,"CV","q",494,"cv","S",2,"c","c",TRUE,1,-0.718257692717729
"CVOE_C",7,1,2,61,"U 16","","",TRUE,"CV","p",465,"cv","U",6,"v","v",TRUE,1,-0.749527430346155
"CVOE_C",7,1,2,62,"O 82","","",TRUE,"CV","p",511,"cv","O",2,"v","v",TRUE,1,-0.699927156866582
"CVOE_C",7,1,2,63,"H 87","","",TRUE,"CV","q",573,"cv","H",7,"c","c",TRUE,1,-0.633074614350636
"CVOE_C",7,1,2,64,"I 32","","",TRUE,"CV","p",592,"cv","I",2,"v","v",TRUE,1,-0.612587544869943
"CVOE_C",7,1,2,65,"U 37","","",FALSE,"CV","p",549,"cv","U",7,"v","v",TRUE,1,-0.658953017905196
"CVOE_C",7,1,2,66,"I 42","","",TRUE,"CV","p",515,"cv","I",2,"v","v",TRUE,1,-0.695614089607489
"CVOE_C",7,1,2,67,"D 65","","",TRUE,"CV","q",652,"cv","D",5,"c","c",TRUE,1,-0.547891535983543
"CVOE_C",7,1,2,68,"U 77","","",FALSE,"CV","p",599,"cv","U",7,"v","v",TRUE,1,-0.605039677166529
"CVOE_C",7,1,2,69,"E 12","","",TRUE,"CV","p",999,"cv","E",2,"v","v",TRUE,1,-0.173732951257199
"CVOE_C",7,1,2,70,"I 60","","",TRUE,"CV","p",784,"cv","I",0,"v","v",TRUE,1,-0.405560316433464
"CVOE_C",7,1,2,71,"J 36","","",FALSE,"CV","q",582,"cv","J",6,"c","c",TRUE,1,-0.623370213017676
"CVOE_C",7,1,2,72,"H 75","","",TRUE,"CV","q",579,"cv","H",5,"c","c",TRUE,1,-0.626605013461996
"CVOE_C",7,1,2,73,"I 50","","",TRUE,"CV","p",1022,"cv","I",0,"v","v",TRUE,1,-0.148932814517413
"CVOE_C",7,1,2,74,"E 99","","",FALSE,"CV","p",956,"cv","E",9,"v","v",TRUE,1,-0.220098424292452
"CVOE_C",7,1,2,75,"A 86","","",TRUE,"CV","p",805,"cv","A",6,"v","v",TRUE,1,-0.382916713323224
"CVOE_C",7,1,2,76,"U 48","","",TRUE,"CV","p",1085,"cv","U",8,"v","v",TRUE,1,-0.0810020051866932
"CVOE_C",7,1,2,77,"E 01","","",FALSE,"CV","p",574,"cv","E",1,"v","v",TRUE,1,-0.631996347535863
"CVOE_C",7,1,2,78,"A 78","","",TRUE,"CV","p",497,"cv","A",8,"v","v",TRUE,1,-0.715022892273409
"CVOE_C",7,1,2,79,"P 60","","",FALSE,"CV","q",548,"cv","P",0,"c","c",TRUE,1,-0.660031284719969
"CVOE_C",7,1,2,80,"E 43","","",FALSE,"CV","p",562,"cv","E",3,"v","v",TRUE,1,-0.644935549313142
"CVOE_C",7,1,2,81,"D 69","","",TRUE,"CV","q",570,"cv","D",9,"c","c",TRUE,1,-0.636309414794956
"CVOE_C",7,1,2,82,"H 11","","",TRUE,"CV","q",981,"cv","H",1,"c","c",TRUE,1,-0.193141753923119
"CVOE_C",7,1,2,83,"P 43","","",TRUE,"CV","q",1235,"cv","P",3,"c","c",TRUE,1,0.0807380170293056
"CVOE_C",7,1,2,84,"O 67","","",FALSE,"CV","p",628,"cv","O",7,"v","v",TRUE,1,-0.573769939538103
"CVOE_C",7,1,2,85,"S 91","","",FALSE,"CV","q",922,"cv","S",1,"c","c",TRUE,1,-0.256759495994745
"CVOE_C",7,1,2,86,"J 68","","",TRUE,"CV","q",1162,"cv","J",8,"c","c",TRUE,1,0.00202453955085281
"CVOE_C",7,1,2,87,"S 47","","",FALSE,"CV","q",467,"cv","S",7,"c","c",TRUE,1,-0.747370896716608
"CVOE_C",7,1,2,88,"I 81","","",TRUE,"CV","p",721,"cv","I",1,"v","v",TRUE,1,-0.473491125764184
"CVOE_C",7,1,2,89,"J 39","","",FALSE,"CV","q",537,"cv","J",9,"c","c",TRUE,1,-0.671892219682476
"CVOE_C",7,1,2,90,"A 11","","",TRUE,"CV","p",556,"cv","A",1,"v","v",TRUE,1,-0.651405150201782
"CVOE_C",7,1,2,91,"O 76","","",FALSE,"CV","p",445,"cv","O",6,"v","v",TRUE,1,-0.771092766641622
"CVOE_C",7,1,2,92,"A 62","","",FALSE,"CV","p",573,"cv","A",2,"v","v",TRUE,1,-0.633074614350636
"CVOE_C",7,1,2,93,"O 27","","",TRUE,"CV","p",800,"cv","O",7,"v","v",TRUE,1,-0.388308047397091
"CVOE_C",7,1,2,94,"E 66","","",FALSE,"CV","p",832,"cv","E",6,"v","v",TRUE,1,-0.353803509324345
"CVOE_C",7,1,2,95,"J 62","","",TRUE,"CV","q",494,"cv","J",2,"c","c",TRUE,1,-0.718257692717729
"CVOE_C",7,1,2,96,"H 72","","",TRUE,"CV","q",441,"cv","H",2,"c","c",TRUE,1,-0.775405833900715
"CVOE_C",7,1,2,97,"E 49","","",TRUE,"CV","p",602,"cv","E",9,"v","v",TRUE,1,-0.601804876722209
"CVOE_C",7,1,2,98,"D 52","","",TRUE,"CV","q",682,"cv","D",2,"c","c",TRUE,1,-0.515543531540343
"CVOE_C",7,1,2,99,"H 62","","",TRUE,"CV","q",579,"cv","H",2,"c","c",TRUE,1,-0.626605013461996
"CVOE_C",7,1,2,100,"I 11","","",TRUE,"CV","p",494,"cv","I",1,"v","v",TRUE,1,-0.718257692717729
"CVOE_C",7,1,2,101,"A 98","","",FALSE,"CV","p",825,"cv","A",8,"v","v",TRUE,1,-0.361351377027758
"CVOE_C",7,1,2,102,"H 29","","",FALSE,"CV","q",687,"cv","H",9,"c","c",TRUE,1,-0.510152197466477
"CVOE_C",7,1,2,103,"E 83","","",TRUE,"CV","p",554,"cv","E",3,"v","v",TRUE,1,-0.653561683831329
"CVOE_C",7,1,2,104,"D 43","","",FALSE,"CV","q",562,"cv","D",3,"c","c",TRUE,1,-0.644935549313142
"CVOE_C",7,1,2,105,"P 45","","",TRUE,"CV","q",491,"cv","P",5,"c","c",TRUE,1,-0.721492493162049
"CVOE_C",7,1,2,106,"J 17","","",TRUE,"CV","q",518,"cv","J",7,"c","c",TRUE,1,-0.692379289163169
"CVOE_D",4,1,1,11,"A 71","","",FALSE,"CV","p",1212,"cv","A",1,"v","v",TRUE,1,0.0559378802895191
"CVOE_D",4,1,1,12,"I 66","","",TRUE,"CV","p",840,"cv","I",6,"v","v",TRUE,1,-0.345177374806158
"CVOE_D",4,1,1,13,"S 30","","",FALSE,"CV","q",728,"cv","S",0,"c","c",TRUE,1,-0.46594325806077
"CVOE_D",4,1,1,14,"D 20","","",FALSE,"CV","q",1075,"cv","D",0,"c","c",TRUE,1,-0.0917846733344265
"CVOE_D",4,1,1,15,"I 31","","",FALSE,"CV","p",708,"cv","I",1,"v","v",TRUE,1,-0.487508594356237
"CVOE_D",4,1,1,16,"P 16","","",FALSE,"CV","q",802,"cv","P",6,"c","c",TRUE,1,-0.386151513767544
"CVOE_D",4,1,1,17,"A 49","","",FALSE,"CV","p",706,"cv","A",9,"v","v",TRUE,1,-0.489665127985784
"CVOE_D",4,1,1,18,"O 64","","",TRUE,"CV","p",776,"cv","O",4,"v","v",TRUE,1,-0.414186450951651
"CVOE_D",4,1,1,19,"D 02","","",FALSE,"CV","q",851,"cv","D",2,"c","c",TRUE,1,-0.333316439843651
"CVOE_D",4,1,1,20,"P 81","","",TRUE,"CV","q",1006,"cv","P",1,"c","c",TRUE,1,-0.166185083553786
"CVOE_D",4,1,1,21,"J 58","","",FALSE,"CV","q",687,"cv","J",8,"c","c",TRUE,1,-0.510152197466477
"CVOE_D",4,1,1,22,"A 22","","",TRUE,"CV","p",959,"cv","A",2,"v","v",TRUE,1,-0.216863623848132
"CVOE_D",4,1,1,23,"J 72","","",FALSE,"CV","q",1439,"cv","J",2,"c","c",TRUE,1,0.300704447243064
"CVOE_D",4,1,1,24,"P 91","","",TRUE,"CV","q",889,"cv","P",1,"c","c",TRUE,1,-0.292342300882265
"CVOE_D",4,1,1,25,"E 19","","",FALSE,"CV","p",860,"cv","E",9,"v","v",TRUE,1,-0.323612038510691
"CVOE_D",4,1,1,26,"I 30","","",TRUE,"CV","p",743,"cv","I",0,"v","v",TRUE,1,-0.449769255839171
"CVOE_D",4,1,1,27,"D 91","","",TRUE,"CV","q",1597,"cv","D",1,"c","c",TRUE,1,0.471070603977249
"CVOE_D",4,1,1,28,"O 48","","",TRUE,"CV","p",3798,"cv","O",8,"v","v",TRUE,1,2.84433586329334
"CVOE_D",4,1,1,29,"A 89","","",FALSE,"CV","p",663,"cv","A",9,"v","v",TRUE,1,-0.536030601021037
"CVOE_D",4,1,1,30,"U 11","","",FALSE,"CV","p",1909,"cv","U",1,"v","v",TRUE,1,0.807489850186527
"CVOE_D",4,1,1,31,"I 76","","",TRUE,"CV","p",651,"cv","I",6,"v","v",TRUE,1,-0.548969802798317
"CVOE_D",4,1,1,32,"U 89","","",FALSE,"CV","p",950,"cv","U",9,"v","v",TRUE,1,-0.226568025181092
"CVOE_D",4,1,1,33,"D 63","","",TRUE,"CV","q",1036,"cv","D",3,"c","c",TRUE,1,-0.133837079110586
"CVOE_D",4,1,1,34,"H 70","","",FALSE,"CV","q",1157,"cv","H",0,"c","c",TRUE,1,-0.00336679452301381
"CVOE_D",4,1,1,35,"D 48","","",FALSE,"CV","q",734,"cv","D",8,"c","c",TRUE,1,-0.45947365717213
"CVOE_D",4,1,1,36,"P 56","","",FALSE,"CV","q",689,"cv","P",6,"c","c",TRUE,1,-0.50799566383693
"CVOE_D",4,1,1,37,"O 77","","",FALSE,"CV","p",924,"cv","O",7,"v","v",TRUE,1,-0.254602962365199
"CVOE_D",4,1,1,38,"P 42","","",FALSE,"CV","q",756,"cv","P",2,"c","c",TRUE,1,-0.435751787247117
"CVOE_D",4,1,1,39,"H 22","","",FALSE,"CV","q",1901,"cv","H",2,"c","c",TRUE,1,0.79886371566834
"CVOE_D",4,1,1,40,"E 42","","",TRUE,"CV","p",667,"cv","E",2,"v","v",TRUE,1,-0.531717533761943
"CVOE_D",4,1,1,41,"J 28","","",FALSE,"CV","q",897,"cv","J",8,"c","c",TRUE,1,-0.283716166364078
"CVOE_D",4,1,1,42,"E 95","","",FALSE,"CV","p",908,"cv","E",5,"v","v",TRUE,1,-0.271855231401572
"CVOE_D",4,1,1,43,"S 63","","",TRUE,"CV","q",738,"cv","S",3,"c","c",TRUE,1,-0.455160589913037
"CVOE_D",4,1,1,44,"H 50","","",FALSE,"CV","q",1133,"cv","H",0,"c","c",TRUE,1,-0.0292451980775736
"CVOE_D",4,1,1,45,"S 33","","",TRUE,"CV","q",712,"cv","S",3,"c","c",TRUE,1,-0.483195527097144
"CVOE_D",4,1,1,46,"P 57","","",TRUE,"CV","q",926,"cv","P",7,"c","c",TRUE,1,-0.252446428735652
"CVOE_D",4,1,1,47,"E 23","","",FALSE,"CV","p",1031,"cv","E",3,"v","v",TRUE,1,-0.139228413184453
"CVOE_D",4,1,1,48,"S 61","","",TRUE,"CV","q",677,"cv","S",1,"c","c",TRUE,1,-0.52093486561421
"CVOE_D",4,1,1,49,"U 67","","",FALSE,"CV","p",805,"cv","U",7,"v","v",TRUE,1,-0.382916713323224
"CVOE_D",4,1,1,50,"H 32","","",FALSE,"CV","q",1102,"cv","H",2,"c","c",TRUE,1,-0.0626714693355467
"CVOE_D",4,1,1,51,"U 50","","",TRUE,"CV","p",836,"cv","U",0,"v","v",TRUE,1,-0.349490442065251
"CVOE_D",4,1,1,52,"O 49","","",FALSE,"CV","p",820,"cv","O",9,"v","v",TRUE,1,-0.366742711101624
"CVOE_D",4,1,1,53,"U 32","","",TRUE,"CV","p",711,"cv","U",2,"v","v",TRUE,1,-0.484273793911917
"CVOE_D",4,1,1,54,"J 78","","",FALSE,"CV","q",749,"cv","J",8,"c","c",TRUE,1,-0.443299654950531
"CVOE_D",4,1,1,55,"S 54","","",FALSE,"CV","q",723,"cv","S",4,"c","c",TRUE,1,-0.471334592134637
"CVOE_D",4,1,1,56,"J 27","","",TRUE,"CV","q",707,"cv","J",7,"c","c",TRUE,1,-0.48858686117101
"CVOE_D",4,1,1,57,"S 06","","",FALSE,"CV","q",569,"cv","S",6,"c","c",TRUE,1,-0.637387681609729
"CVOE_D",4,1,1,58,"D 67","","",TRUE,"CV","q",1188,"cv","D",7,"c","c",TRUE,1,0.0300594767349593
"CVOE_D",4,1,1,59,"A 79","","",FALSE,"CV","p",642,"cv","A",9,"v","v",TRUE,1,-0.558674204131276
"CVOE_D",4,1,1,60,"S 52","","",FALSE,"CV","q",819,"cv","S",2,"c","c",TRUE,1,-0.367820977916398
"CVOE_D",4,1,1,61,"U 16","","",TRUE,"CV","p",709,"cv","U",6,"v","v",TRUE,1,-0.486430327541464
"CVOE_D",4,1,1,62,"O 82","","",TRUE,"CV","p",756,"cv","O",2,"v","v",TRUE,1,-0.435751787247117
"CVOE_D",4,1,1,63,"H 87","","",TRUE,"CV","q",788,"cv","H",7,"c","c",TRUE,1,-0.401247249174371
"CVOE_D",4,1,1,64,"I 32","","",TRUE,"CV","p",778,"cv","I",2,"v","v",TRUE,1,-0.412029917322104
"CVOE_D",4,1,1,65,"U 37","","",FALSE,"CV","p",1237,"cv","U",7,"v","v",TRUE,1,0.0828945506588522
"CVOE_D",4,1,1,66,"I 42","","",TRUE,"CV","p",750,"cv","I",2,"v","v",TRUE,1,-0.442221388135757
"CVOE_D",4,1,1,67,"D 65","","",TRUE,"CV","q",628,"cv","D",5,"c","c",TRUE,1,-0.573769939538103
"CVOE_D",4,1,1,68,"U 77","","",FALSE,"CV","p",785,"cv","U",7,"v","v",TRUE,1,-0.404482049618691
"CVOE_D",4,1,1,69,"E 12","","",TRUE,"CV","p",1191,"cv","E",2,"v","v",TRUE,1,0.0332942771792793
"CVOE_D",4,1,1,70,"I 60","","",TRUE,"CV","p",781,"cv","I",0,"v","v",TRUE,1,-0.408795116877784
"CVOE_D",4,1,1,71,"J 36","","",FALSE,"CV","q",699,"cv","J",6,"c","c",TRUE,1,-0.497212995689197
"CVOE_D",4,1,1,72,"H 75","","",TRUE,"CV","q",598,"cv","H",5,"c","c",TRUE,1,-0.606117943981303
"CVOE_D",4,1,1,73,"I 50","","",TRUE,"CV","p",759,"cv","I",0,"v","v",TRUE,1,-0.432516986802797
"CVOE_D",4,1,1,74,"E 99","","",FALSE,"CV","p",1423,"cv","E",9,"v","v",TRUE,1,0.283452178206691
"CVOE_D",4,1,1,75,"A 86","","",TRUE,"CV","p",669,"cv","A",6,"v","v",TRUE,1,-0.529561000132397
"CVOE_D",4,1,1,76,"U 48","","",TRUE,"CV","p",771,"cv","U",8,"v","v",TRUE,1,-0.419577785025517
"CVOE_D",4,1,1,77,"E 01","","",FALSE,"CV","p",694,"cv","E",1,"v","v",TRUE,1,-0.502604329763063
"CVOE_D",4,1,1,78,"A 78","","",TRUE,"CV","p",721,"cv","A",8,"v","v",TRUE,1,-0.473491125764184
"CVOE_D",4,1,1,79,"P 60","","",FALSE,"CV","q",698,"cv","P",0,"c","c",TRUE,1,-0.49829126250397
"CVOE_D",4,1,1,80,"E 43","","",FALSE,"CV","p",693,"cv","E",3,"v","v",TRUE,1,-0.503682596577837
"CVOE_D",4,1,1,81,"D 69","","",TRUE,"CV","q",768,"cv","D",9,"c","c",TRUE,1,-0.422812585469837
"CVOE_D",4,1,1,82,"H 11","","",TRUE,"CV","q",603,"cv","H",1,"c","c",TRUE,1,-0.600726609907436
"CVOE_D",4,1,1,83,"P 43","","",TRUE,"CV","q",820,"cv","P",3,"c","c",TRUE,1,-0.366742711101624
"CVOE_D",4,1,1,84,"O 67","","",FALSE,"CV","p",719,"cv","O",7,"v","v",TRUE,1,-0.47564765939373
"CVOE_D",4,1,1,85,"S 91","","",FALSE,"CV","q",743,"cv","S",1,"c","c",TRUE,1,-0.449769255839171
