ExperimentName,Subject,Group,Block,Trial,STIM,TASK,Switch,Congruent,CVOE,Response,RT
CVOE updated,5,1,1,11,A 71,,,FALSE,CV,p,2144
CVOE updated,5,1,1,12,I 66,,,TRUE,CV,q,783
CVOE updated,5,1,1,13,S 30,,,FALSE,CV,q,636
CVOE updated,5,1,1,14,D 20,,,FALSE,CV,q,1261
CVOE updated,5,1,1,15,I 31,,,FALSE,CV,p,611
CVOE updated,5,1,1,16,P 16,,,FALSE,CV,q,574
CVOE updated,5,1,1,17,A 49,,,FALSE,CV,p,777
CVOE updated,5,1,1,18,O 64,,,TRUE,CV,p,420
CVOE updated,5,1,1,19,D 02,,,FALSE,CV,q,466
CVOE updated,5,1,1,20,P 81,,,TRUE,CV,q,904
CVOE updated,5,1,1,21,J 58,,,FALSE,CV,q,693
CVOE updated,5,1,1,22,A 22,,,TRUE,CV,p,633
CVOE updated,5,1,1,23,J 72,,,FALSE,CV,q,582
CVOE updated,5,1,1,24,P 91,,,TRUE,CV,q,868
CVOE updated,5,1,1,25,E 19,,,FALSE,CV,p,642
CVOE updated,5,1,1,26,I 30,,,TRUE,CV,q,602
CVOE updated,5,1,1,27,D 91,,,TRUE,CV,q,587
CVOE updated,5,1,1,28,O 48,,,TRUE,CV,p,441
CVOE updated,5,1,1,29,A 89,,,FALSE,CV,p,921
CVOE updated,5,1,1,30,U 11,,,FALSE,CV,p,826
CVOE updated,5,1,1,31,I 76,,,TRUE,CV,q,1015
CVOE updated,5,1,1,32,U 89,,,FALSE,CV,p,827
CVOE updated,5,1,1,33,D 63,,,TRUE,CV,q,960
CVOE updated,5,1,1,34,H 70,,,FALSE,CV,q,689
CVOE updated,5,1,1,35,D 48,,,FALSE,CV,q,732
CVOE updated,5,1,1,36,P 56,,,FALSE,CV,q,895
CVOE updated,5,1,1,37,O 77,,,FALSE,CV,p,658
CVOE updated,5,1,1,38,P 42,,,FALSE,CV,q,766
CVOE updated,5,1,1,39,H 22,,,FALSE,CV,q,870
CVOE updated,5,1,1,40,E 42,,,TRUE,CV,p,716
CVOE updated,5,1,1,41,J 28,,,FALSE,CV,q,588
CVOE updated,5,1,1,42,E 95,,,FALSE,CV,p,506
CVOE updated,5,1,1,43,S 63,,,TRUE,CV,q,640
CVOE updated,5,1,1,44,H 50,,,FALSE,CV,q,1032
CVOE updated,5,1,1,45,S 33,,,TRUE,CV,q,470
CVOE updated,5,1,1,46,P 57,,,TRUE,CV,q,836
CVOE updated,5,1,1,47,E 23,,,FALSE,CV,p,828
CVOE updated,5,1,1,48,S 61,,,TRUE,CV,q,1066
CVOE updated,5,1,1,49,U 67,,,FALSE,CV,p,528
CVOE updated,5,1,1,50,H 32,,,FALSE,CV,q,547
CVOE updated,5,1,1,51,U 50,,,TRUE,CV,p,609
CVOE updated,5,1,1,52,O 49,,,FALSE,CV,p,452
CVOE updated,5,1,1,53,U 32,,,TRUE,CV,p,479
CVOE updated,5,1,1,54,J 78,,,FALSE,CV,q,560
CVOE updated,5,1,1,55,S 54,,,FALSE,CV,q,504
CVOE updated,5,1,1,56,J 27,,,TRUE,CV,q,638
CVOE updated,5,1,1,57,S 06,,,FALSE,CV,q,470
CVOE updated,5,1,1,58,D 67,,,TRUE,CV,q,644
CVOE updated,5,1,1,59,A 79,,,FALSE,CV,p,580
CVOE updated,5,1,1,60,S 52,,,FALSE,CV,q,466
CVOE updated,5,1,1,61,U 16,,,TRUE,CV,p,912
CVOE updated,5,1,1,62,O 82,,,TRUE,CV,p,670
CVOE updated,5,1,1,63,H 87,,,TRUE,CV,q,547
CVOE updated,5,1,1,64,I 32,,,TRUE,CV,p,881
CVOE updated,5,1,1,65,U 37,,,FALSE,CV,p,562
CVOE updated,5,1,1,66,I 42,,,TRUE,CV,p,946
CVOE updated,5,1,1,67,D 65,,,TRUE,CV,q,416
CVOE updated,5,1,1,68,U 77,,,FALSE,CV,p,491
CVOE updated,5,1,1,69,E 12,,,TRUE,CV,q,590
CVOE updated,5,1,1,70,I 60,,,TRUE,CV,p,964
CVOE updated,5,1,1,71,J 36,,,FALSE,CV,q,1332
CVOE updated,5,1,1,72,H 75,,,TRUE,CV,q,1288
CVOE updated,5,1,1,73,I 50,,,TRUE,CV,q,555
CVOE updated,5,1,1,74,E 99,,,FALSE,CV,p,956
CVOE updated,5,1,1,75,A 86,,,TRUE,CV,q,716
CVOE updated,5,1,1,76,U 48,,,TRUE,CV,p,533
CVOE updated,5,1,1,77,E 01,,,FALSE,CV,p,656
CVOE updated,5,1,1,78,A 78,,,TRUE,CV,q,731
CVOE updated,5,1,1,79,P 60,,,FALSE,CV,q,598
CVOE updated,5,1,1,80,E 43,,,FALSE,CV,p,958
CVOE updated,5,1,1,81,D 69,,,TRUE,CV,q,559
CVOE updated,5,1,1,82,H 11,,,TRUE,CV,q,895
CVOE updated,5,1,1,83,P 43,,,TRUE,CV,q,619
CVOE updated,5,1,1,84,O 67,,,FALSE,CV,p,1134
CVOE updated,5,1,1,85,S 91,,,FALSE,CV,q,505
CVOE updated,5,1,1,86,J 68,,,TRUE,CV,q,647
CVOE updated,5,1,1,87,S 47,,,FALSE,CV,q,762
CVOE updated,5,1,1,88,I 81,,,TRUE,CV,p,690
CVOE updated,5,1,1,89,J 39,,,FALSE,CV,q,621
CVOE updated,5,1,1,90,A 11,,,TRUE,CV,p,811
CVOE updated,5,1,1,91,O 76,,,FALSE,CV,p,510
CVOE updated,5,1,1,92,A 62,,,FALSE,CV,p,1260
CVOE updated,5,1,1,93,O 27,,,TRUE,CV,p,466
CVOE updated,5,1,1,94,E 66,,,FALSE,CV,q,552
CVOE updated,5,1,1,95,J 62,,,TRUE,CV,q,774
CVOE updated,5,1,1,96,H 72,,,TRUE,CV,q,609
CVOE updated,5,1,1,97,E 49,,,TRUE,CV,p,948
CVOE updated,5,1,1,98,D 52,,,TRUE,CV,q,466
CVOE updated,5,1,1,99,H 62,,,TRUE,CV,q,551
CVOE updated,5,1,1,100,I 11,,,TRUE,CV,p,637
CVOE updated,5,1,1,101,A 98,,,FALSE,CV,p,1494
CVOE updated,5,1,1,102,H 29,,,FALSE,CV,q,1457
CVOE updated,5,1,1,103,E 83,,,TRUE,CV,p,596
CVOE updated,5,1,1,104,D 43,,,FALSE,CV,q,501
CVOE updated,5,1,1,105,P 45,,,TRUE,CV,q,491
CVOE updated,5,1,1,106,J 17,,,TRUE,CV,q,462
CVOE updated,5,1,2,11,A 24,,,TRUE,OE,p,879
CVOE updated,5,1,2,12,O 83,,,FALSE,OE,q,495
CVOE updated,5,1,2,13,H 55,,,TRUE,OE,q,626
CVOE updated,5,1,2,14,P 10,,,FALSE,OE,p,960
CVOE updated,5,1,2,15,D 30,,,FALSE,OE,p,872
CVOE updated,5,1,2,16,U 62,,,TRUE,OE,p,1646
CVOE updated,5,1,2,17,P 95,,,TRUE,OE,q,626
CVOE updated,5,1,2,18,U 06,,,TRUE,OE,p,592
CVOE updated,5,1,2,19,E 75,,,FALSE,OE,q,533
CVOE updated,5,1,2,20,I 67,,,FALSE,OE,q,1128
CVOE updated,5,1,2,21,S 13,,,TRUE,OE,q,1620
CVOE updated,5,1,2,22,P 78,,,FALSE,OE,p,578
CVOE updated,5,1,2,23,I 15,,,FALSE,OE,q,1461
CVOE updated,5,1,2,24,D 27,,,TRUE,OE,q,659
CVOE updated,5,1,2,25,O 94,,,TRUE,OE,p,838
CVOE updated,5,1,2,26,A 65,,,FALSE,OE,q,519
CVOE updated,5,1,2,27,I 42,,,TRUE,OE,p,607
CVOE updated,5,1,2,28,E 25,,,FALSE,OE,q,530
CVOE updated,5,1,2,29,H 49,,,TRUE,OE,q,557
CVOE updated,5,1,2,30,S 18,,,FALSE,OE,p,558
CVOE updated,5,1,2,31,H 51,,,TRUE,OE,q,678
CVOE updated,5,1,2,32,U 14,,,TRUE,OE,p,815
CVOE updated,5,1,2,33,E 02,,,TRUE,OE,p,602
CVOE updated,5,1,2,34,J 26,,,FALSE,OE,p,586
CVOE updated,5,1,2,35,D 24,,,FALSE,OE,p,505
CVOE updated,5,1,2,36,O 50,,,TRUE,OE,q,1918
CVOE updated,5,1,2,37,U 16,,,TRUE,OE,p,695
CVOE updated,5,1,2,38,O 15,,,FALSE,OE,q,610
CVOE updated,5,1,2,39,D 32,,,FALSE,OE,p,773
CVOE updated,5,1,2,40,S 67,,,TRUE,OE,q,912
CVOE updated,5,1,2,41,J 74,,,FALSE,OE,p,1486
CVOE updated,5,1,2,42,D 92,,,FALSE,OE,p,687
CVOE updated,5,1,2,43,A 65,,,FALSE,OE,q,794
CVOE updated,5,1,2,44,I 87,,,FALSE,OE,q,1066
CVOE updated,5,1,2,45,H 61,,,TRUE,OE,q,896
CVOE updated,5,1,2,46,E 59,,,FALSE,OE,q,635
CVOE updated,5,1,2,47,I 33,,,FALSE,OE,q,612
CVOE updated,5,1,2,48,O 90,,,TRUE,OE,p,1191
CVOE updated,5,1,2,49,U 51,,,FALSE,OE,q,1093
CVOE updated,5,1,2,50,A 10,,,TRUE,OE,p,872
CVOE updated,5,1,2,51,E 50,,,TRUE,OE,p,558
CVOE updated,5,1,2,52,D 92,,,FALSE,OE,p,678
CVOE updated,5,1,2,53,E 60,,,TRUE,OE,p,639
CVOE updated,5,1,2,54,A 95,,,FALSE,OE,q,1423
CVOE updated,5,1,2,55,E 64,,,TRUE,OE,p,909
CVOE updated,5,1,2,56,P 20,,,FALSE,OE,p,691
CVOE updated,5,1,2,57,S 06,,,FALSE,OE,p,782
CVOE updated,5,1,2,58,P 64,,,FALSE,OE,p,596
CVOE updated,5,1,2,59,U 70,,,TRUE,OE,p,565
CVOE updated,5,1,2,60,S 16,,,FALSE,OE,p,541
CVOE updated,5,1,2,61,E 35,,,FALSE,OE,q,564
CVOE updated,5,1,2,62,I 93,,,FALSE,OE,q,555
CVOE updated,5,1,2,63,D 63,,,TRUE,OE,q,588
CVOE updated,5,1,2,64,U 89,,,FALSE,OE,q,625
CVOE updated,5,1,2,65,E 91,,,FALSE,OE,q,639
CVOE updated,5,1,2,66,A 12,,,TRUE,OE,p,448
CVOE updated,5,1,2,67,P 56,,,FALSE,OE,p,563
CVOE updated,5,1,2,68,S 65,,,TRUE,OE,q,579
CVOE updated,5,1,2,69,P 07,,,TRUE,OE,q,894
CVOE updated,5,1,2,70,I 77,,,FALSE,OE,q,593
CVOE updated,5,1,2,71,J 19,,,TRUE,OE,q,651
CVOE updated,5,1,2,72,O 59,,,FALSE,OE,q,469
CVOE updated,5,1,2,73,J 15,,,TRUE,OE,q,700
CVOE updated,5,1,2,74,I 89,,,FALSE,OE,q,1254
CVOE updated,5,1,2,75,O 97,,,FALSE,OE,q,785
CVOE updated,5,1,2,76,A 92,,,TRUE,OE,p,623
CVOE updated,5,1,2,77,J 90,,,FALSE,OE,p,493
CVOE updated,5,1,2,78,H 65,,,TRUE,OE,q,936
CVOE updated,5,1,2,79,H 17,,,TRUE,OE,q,651
CVOE updated,5,1,2,80,S 26,,,FALSE,OE,p,470
CVOE updated,5,1,2,81,D 56,,,FALSE,OE,p,468
CVOE updated,5,1,2,82,I 91,,,FALSE,OE,q,489
CVOE updated,5,1,2,83,J 11,,,TRUE,OE,q,453
CVOE updated,5,1,2,84,O 28,,,TRUE,OE,p,456
CVOE updated,5,1,2,85,H 29,,,TRUE,OE,q,499
CVOE updated,5,1,2,86,J 25,,,TRUE,OE,q,582
CVOE updated,5,1,2,87,A 73,,,FALSE,OE,q,483
CVOE updated,5,1,2,88,J 63,,,TRUE,OE,q,556
CVOE updated,5,1,2,89,U 84,,,TRUE,OE,p,516
CVOE updated,5,1,2,90,A 58,,,TRUE,OE,p,533
CVOE updated,5,1,2,91,S 43,,,TRUE,OE,q,536
CVOE updated,5,1,2,92,H 54,,,FALSE,OE,p,611
CVOE updated,5,1,2,93,D 4,,,FALSE,OE,p,590
CVOE updated,5,1,2,94,J 75,,,TRUE,OE,q,532
CVOE updated,5,1,2,95,D 19,,,TRUE,OE,q,584
CVOE updated,5,1,2,96,J 38,,,FALSE,OE,p,660
CVOE updated,5,1,2,97,I 56,,,TRUE,OE,q,498
CVOE updated,5,1,2,98,P 87,,,TRUE,OE,q,605
CVOE updated,5,1,2,99,O 80,,,TRUE,OE,p,534
CVOE updated,5,1,2,100,U 60,,,TRUE,OE,p,649
CVOE updated,5,1,2,101,P 48,,,FALSE,OE,p,564
CVOE updated,5,1,2,102,H 64,,,FALSE,OE,p,652
CVOE updated,5,1,2,103,A 13,,,FALSE,OE,q,464
CVOE updated,5,1,2,104,H 68,,,FALSE,OE,p,581
CVOE updated,5,1,2,105,E 16,,,TRUE,OE,p,555
CVOE updated,5,1,2,106,S 71,,,TRUE,OE,q,452
CVOE updated,5,1,3,11,A 44,Letter,N,TRUE,CV,p,3610
CVOE updated,5,1,3,12,D 94,Letter,N,FALSE,CV,q,743
CVOE updated,5,1,3,13,E 75,Number,Y,FALSE,OE,p,780
CVOE updated,5,1,3,14,H 81,Number,N,TRUE,OE,q,1378
CVOE updated,5,1,3,15,I 64,Letter,Y,TRUE,CV,p,862
CVOE updated,5,1,3,16,J 54,Letter,N,FALSE,CV,q,4885
CVOE updated,5,1,3,17,O 23,Number,Y,FALSE,OE,q,1150
CVOE updated,5,1,3,18,P 05,Number,N,TRUE,OE,q,988
CVOE updated,5,1,3,19,S 34,Letter,Y,FALSE,CV,q,1905
CVOE updated,5,1,3,20,U 88,Letter,N,TRUE,CV,p,2680
CVOE updated,5,1,3,21,A 70,Number,Y,TRUE,OE,q,1585
CVOE updated,5,1,3,22,D 12,Number,N,FALSE,OE,p,1407
CVOE updated,5,1,3,23,E 79,Letter,Y,FALSE,CV,p,1562
CVOE updated,5,1,3,24,H 72,Letter,N,FALSE,CV,q,2299
CVOE updated,5,1,3,25,I 41,Number,Y,FALSE,OE,q,1370
CVOE updated,5,1,3,26,J 63,Number,N,TRUE,OE,q,862
CVOE updated,5,1,3,27,O 03,Letter,Y,FALSE,CV,p,1467
CVOE updated,5,1,3,28,P 75,Letter,N,TRUE,CV,q,1409
CVOE updated,5,1,3,29,S 61,Number,Y,TRUE,OE,q,1092
CVOE updated,5,1,3,30,U 28,Number,N,TRUE,OE,p,817
CVOE updated,5,1,3,31,A 21,Letter,Y,FALSE,CV,p,1635
CVOE updated,5,1,3,32,D 18,Letter,N,FALSE,CV,q,876
CVOE updated,5,1,3,33,E 35,Number,Y,FALSE,OE,q,1076
CVOE updated,5,1,3,34,H 62,Number,N,FALSE,OE,p,1006
CVOE updated,5,1,3,35,I 82,Letter,Y,TRUE,CV,p,1093
CVOE updated,5,1,3,36,J 78,Letter,N,FALSE,CV,q,1034
CVOE updated,5,1,3,37,O 12,Number,Y,TRUE,OE,p,921
CVOE updated,5,1,3,38,P 13,Number,N,TRUE,OE,q,699
CVOE updated,5,1,3,39,S 07,Letter,Y,TRUE,CV,q,846
CVOE updated,5,1,3,40,U 36,Letter,N,TRUE,CV,q,1197
CVOE updated,5,1,3,41,A 96,Number,Y,TRUE,OE,q,782
CVOE updated,5,1,3,42,D 04,Number,N,FALSE,OE,p,1292
CVOE updated,5,1,3,43,E 60,Letter,Y,TRUE,CV,p,2008
CVOE updated,5,1,3,44,H 83,Letter,N,TRUE,CV,q,1483
CVOE updated,5,1,3,45,I 64,Number,Y,TRUE,OE,p,1900
CVOE updated,5,1,3,46,J 76,Number,N,FALSE,OE,p,930
CVOE updated,5,1,3,47,O 78,Letter,Y,TRUE,CV,p,1454
CVOE updated,5,1,3,48,P 09,Letter,N,TRUE,CV,q,978
CVOE updated,5,1,3,49,S 72,Number,Y,FALSE,OE,p,1012
CVOE updated,5,1,3,50,U 47,Number,N,FALSE,OE,q,1455
CVOE updated,5,1,3,51,A 31,Letter,Y,FALSE,CV,p,1010
CVOE updated,5,1,3,52,D 96,Letter,N,FALSE,CV,q,766
CVOE updated,5,1,3,53,E 40,Number,Y,TRUE,OE,p,1703
CVOE updated,5,1,3,54,H 79,Number,N,TRUE,OE,q,1332
CVOE updated,5,1,3,55,I 15,Letter,Y,FALSE,CV,p,1816
CVOE updated,5,1,3,56,J 07,Letter,N,TRUE,CV,q,2123
CVOE updated,5,1,3,57,O 61,Number,Y,FALSE,OE,q,1108
CVOE updated,5,1,3,58,P 58,Number,N,FALSE,OE,p,2770
CVOE updated,5,1,3,59,S 37,Letter,Y,TRUE,CV,q,2887
CVOE updated,5,1,3,60,U 61,Letter,N,FALSE,CV,p,850
CVOE updated,5,1,3,61,A 17,Number,Y,FALSE,OE,q,1349
CVOE updated,5,1,3,62,D 85,Number,N,TRUE,OE,q,1891
CVOE updated,5,1,3,63,E 20,Letter,Y,TRUE,CV,p,1279
CVOE updated,5,1,3,64,H 86,Letter,N,FALSE,CV,q,1864
CVOE updated,5,1,3,65,I 21,Number,Y,FALSE,OE,q,879
CVOE updated,5,1,3,66,J 29,Number,N,TRUE,OE,q,1470
CVOE updated,5,1,3,67,O 13,Letter,Y,FALSE,CV,p,1118
CVOE updated,5,1,3,68,P 82,Letter,N,FALSE,CV,q,629
CVOE updated,5,1,3,69,S 72,Number,Y,FALSE,OE,p,1572
CVOE updated,5,1,3,70,U 84,Number,N,TRUE,OE,p,1062
CVOE updated,5,1,3,71,A 49,Letter,Y,FALSE,CV,p,1077
CVOE updated,5,1,3,72,D 91,Letter,N,TRUE,CV,q,901
CVOE updated,5,1,3,73,E 99,Number,Y,FALSE,OE,q,1131
CVOE updated,5,1,3,74,H 16,Number,N,FALSE,OE,p,887
CVOE updated,5,1,3,75,I 45,Letter,Y,FALSE,CV,q,1553
CVOE updated,5,1,3,76,J 70,Letter,N,FALSE,CV,q,2099
CVOE updated,5,1,3,77,O 22,Number,Y,TRUE,OE,p,1815
CVOE updated,5,1,3,78,P 41,Number,N,TRUE,OE,p,937
CVOE updated,5,1,3,79,S 93,Letter,Y,TRUE,CV,q,1941
CVOE updated,5,1,3,80,U 70,Letter,N,TRUE,CV,p,2859
CVOE updated,5,1,3,81,A 42,Number,Y,TRUE,OE,p,1401
CVOE updated,5,1,3,82,D 85,Number,N,TRUE,OE,q,3706
CVOE updated,5,1,3,83,E 68,Letter,Y,TRUE,CV,p,1017
CVOE updated,5,1,3,84,H 17,Letter,N,TRUE,CV,q,892
CVOE updated,5,1,3,85,I 70,Number,Y,TRUE,OE,q,1624
CVOE updated,5,1,3,86,J 88,Number,N,FALSE,OE,p,1310
CVOE updated,5,1,3,87,O 32,Letter,Y,TRUE,CV,p,996
CVOE updated,5,1,3,88,P 95,Letter,N,TRUE,CV,q,780
CVOE updated,5,1,3,89,S 98,Number,Y,FALSE,OE,p,738
CVOE updated,5,1,3,90,U 37,Number,N,FALSE,OE,q,1141
CVOE updated,5,1,3,91,A 56,Letter,Y,TRUE,CV,p,667
CVOE updated,5,1,3,92,D 57,Letter,N,TRUE,CV,q,993
CVOE updated,5,1,3,93,E 93,Number,Y,FALSE,OE,q,1194
CVOE updated,5,1,3,94,H 27,Number,N,TRUE,OE,p,578
CVOE updated,5,1,3,95,I 35,Letter,Y,FALSE,CV,p,1077
CVOE updated,5,1,3,96,J 03,Letter,N,TRUE,CV,q,670
CVOE updated,5,1,3,97,O 28,Number,Y,TRUE,OE,p,668
CVOE updated,5,1,3,98,P 59,Number,N,TRUE,OE,q,562
CVOE updated,5,1,3,99,S 77,Letter,Y,TRUE,CV,q,730
CVOE updated,5,1,3,100,U 05,Letter,N,FALSE,CV,p,613
CVOE updated,5,1,3,101,A 56,Number,Y,TRUE,OE,p,1048
CVOE updated,5,1,3,102,D 01,Number,N,TRUE,OE,q,764
CVOE updated,5,1,3,103,E 02,Letter,Y,TRUE,CV,p,1236
CVOE updated,5,1,3,104,H 68,Letter,N,FALSE,CV,q,1198
CVOE updated,5,1,3,105,I 05,Number,Y,FALSE,OE,q,861
CVOE updated,5,1,3,106,J 55,Number,N,TRUE,OE,q,675
CVOE updated,5,1,3,107,O 73,Letter,Y,FALSE,CV,p,1060
CVOE updated,5,1,3,108,P 41,Letter,N,TRUE,CV,q,738
CVOE updated,5,1,3,109,S 92,Number,Y,FALSE,OE,p,1589
CVOE updated,5,1,3,110,U 34,Number,N,TRUE,OE,p,603
CVOE updated,5,1,3,111,A 09,Letter,Y,FALSE,CV,p,1124
CVOE updated,5,1,3,112,D 92,Letter,N,FALSE,CV,q,1244
CVOE updated,5,1,3,113,E 48,Number,Y,TRUE,OE,p,789
CVOE updated,5,1,3,114,H 76,Number,N,FALSE,OE,q,626
CVOE updated,5,1,3,115,I 44,Letter,Y,TRUE,CV,q,2473
CVOE updated,5,1,3,116,J 67,Letter,N,TRUE,CV,q,1041
CVOE updated,5,1,3,117,O 48,Number,Y,TRUE,OE,p,1106
CVOE updated,5,1,3,118,P 22,Number,N,FALSE,OE,p,584
CVOE updated,5,1,3,119,S 86,Letter,Y,FALSE,CV,q,2470
CVOE updated,5,1,3,120,U 35,Letter,N,FALSE,CV,p,812
CVOE updated,5,1,3,121,A 91,Number,Y,FALSE,OE,q,703
CVOE updated,5,1,3,122,D 78,Number,N,FALSE,OE,p,517
CVOE updated,5,1,3,123,E 91,Letter,Y,FALSE,CV,p,1109
CVOE updated,5,1,3,124,H 54,Letter,N,FALSE,CV,q,515
CVOE updated,5,1,3,125,I 65,Number,Y,FALSE,OE,q,653
CVOE updated,5,1,3,126,J 52,Number,N,FALSE,OE,p,479
CVOE updated,5,1,3,127,O 19,Letter,Y,FALSE,CV,p,679
CVOE updated,5,1,3,128,P 48,Letter,N,FALSE,CV,q,456
CVOE updated,5,1,3,129,S 45,Number,Y,TRUE,OE,q,716
CVOE updated,5,1,3,130,U 26,Number,N,TRUE,OE,p,627
CVOE updated,5,1,4,1,U 38,Number,N,TRUE,OE,p,3589
CVOE updated,5,1,4,2,P 73,Number,N,TRUE,OE,q,916
CVOE updated,5,1,4,3,U 95,Letter,Y,FALSE,CV,p,781
CVOE updated,5,1,4,4,J 61,Number,Y,TRUE,OE,q,587
CVOE updated,5,1,4,5,D 51,Number,N,TRUE,OE,q,785
CVOE updated,5,1,4,6,S 28,Number,N,FALSE,OE,p,718
CVOE updated,5,1,4,7,A 56,Letter,Y,TRUE,CV,p,679
CVOE updated,5,1,4,8,H 78,Letter,N,FALSE,CV,q,503
CVOE updated,5,1,4,9,P 92,Letter,N,FALSE,CV,q,3189
CVOE updated,5,1,4,10,E 05,Number,Y,FALSE,OE,q,1220
CVOE updated,5,1,4,11,P 57,Letter,Y,TRUE,CV,q,2810
CVOE updated,5,1,4,12,D 88,Number,Y,FALSE,OE,p,806
CVOE updated,5,1,4,13,O 89,Letter,Y,FALSE,CV,p,742
CVOE updated,5,1,4,14,U 43,Number,Y,FALSE,OE,q,813
CVOE updated,5,1,4,15,H 10,Number,N,FALSE,OE,p,2511
CVOE updated,5,1,4,16,S 07,Letter,Y,TRUE,CV,q,1086
CVOE updated,5,1,4,17,J 10,Letter,N,FALSE,CV,q,2270
CVOE updated,5,1,4,18,H 54,Number,Y,FALSE,OE,p,981
CVOE updated,5,1,4,19,E 99,Number,N,FALSE,OE,q,938
CVOE updated,5,1,4,20,J 36,Letter,Y,FALSE,CV,q,855
CVOE updated,5,1,4,21,I 94,Letter,N,TRUE,CV,p,1657
CVOE updated,5,1,4,22,A 82,Letter,N,TRUE,CV,p,1781
CVOE updated,5,1,4,23,H 79,Number,Y,TRUE,OE,q,715
CVOE updated,5,1,4,24,J 60,Number,N,FALSE,OE,p,987
CVOE updated,5,1,4,25,S 28,Letter,Y,FALSE,CV,q,914
CVOE updated,5,1,4,26,P 11,Number,Y,TRUE,OE,q,2194
CVOE updated,5,1,4,27,D 39,Number,N,TRUE,OE,q,1915
CVOE updated,5,1,4,28,E 90,Number,N,TRUE,OE,p,1028
CVOE updated,5,1,4,29,I 38,Number,N,TRUE,OE,p,994
CVOE updated,5,1,4,30,S 35,Letter,Y,TRUE,CV,p,1219
CVOE updated,5,1,4,31,D 41,Number,Y,TRUE,OE,q,1821
CVOE updated,5,1,4,32,E 06,Number,N,TRUE,OE,p,988
CVOE updated,5,1,4,33,A 27,Number,N,FALSE,OE,q,977
CVOE updated,5,1,4,34,U 95,Letter,Y,FALSE,CV,p,862
CVOE updated,5,1,4,35,A 53,Letter,N,FALSE,CV,q,1162
CVOE updated,5,1,4,36,E 43,Letter,N,FALSE,CV,p,1827
CVOE updated,5,1,4,37,P 05,Number,Y,TRUE,OE,q,2562
CVOE updated,5,1,4,38,O 19,Letter,Y,FALSE,CV,p,2723
CVOE updated,5,1,4,39,I 96,Number,Y,TRUE,OE,p,1156
CVOE updated,5,1,4,40,A 88,Number,N,TRUE,OE,p,821
CVOE updated,5,1,4,41,I 67,Number,N,FALSE,OE,q,827
CVOE updated,5,1,4,42,D 40,Number,N,FALSE,OE,p,2672
CVOE updated,5,1,4,43,P 79,Letter,Y,TRUE,CV,q,1329
CVOE updated,5,1,4,44,U 24,Number,Y,TRUE,OE,p,1262
CVOE updated,5,1,4,45,P 74,Number,N,FALSE,OE,p,819
CVOE updated,5,1,4,46,E 70,Number,N,TRUE,OE,p,918
CVOE updated,5,1,4,47,S 27,Number,N,TRUE,OE,q,926
CVOE updated,5,1,4,48,E 54,Letter,Y,TRUE,CV,p,1123
CVOE updated,5,1,4,49,A 53,Letter,N,FALSE,CV,p,778
CVOE updated,5,1,4,50,P 34,Letter,N,FALSE,CV,q,710
CVOE updated,5,1,4,51,D 74,Number,Y,FALSE,OE,p,748
CVOE updated,5,1,4,52,A 03,Letter,Y,FALSE,CV,q,641
CVOE updated,5,1,4,53,E 24,Number,Y,TRUE,OE,p,2115
CVOE updated,5,1,4,54,I 58,Letter,Y,TRUE,CV,q,2963
CVOE updated,5,1,4,55,D 77,Number,Y,TRUE,OE,q,1212
CVOE updated,5,1,4,56,S 75,Number,N,TRUE,OE,q,1599
CVOE updated,5,1,4,57,I 20,Letter,Y,TRUE,CV,p,921
CVOE updated,5,1,4,58,J 52,Letter,N,FALSE,CV,q,953
CVOE updated,5,1,4,59,A 38,Number,Y,TRUE,OE,p,1606
CVOE updated,5,1,4,60,I 60,Letter,Y,TRUE,CV,q,1483
CVOE updated,5,1,4,61,S 51,Number,Y,TRUE,OE,q,2395
CVOE updated,5,1,4,62,D 63,Letter,Y,TRUE,CV,q,1468
CVOE updated,5,1,4,63,U 27,Letter,N,FALSE,CV,p,1226
CVOE updated,5,1,4,64,J 77,Letter,N,TRUE,CV,q,1209
CVOE updated,5,1,4,65,O 15,Number,Y,FALSE,OE,q,1235
CVOE updated,5,1,4,66,J 20,Letter,Y,FALSE,CV,q,2253
CVOE updated,5,1,4,67,U 97,Number,Y,FALSE,OE,q,1440
CVOE updated,5,1,4,68,H 03,Number,N,TRUE,OE,q,992
CVOE updated,5,1,4,69,O 04,Letter,Y,TRUE,CV,p,974
CVOE updated,5,1,4,70,E 10,Letter,N,TRUE,CV,p,865
CVOE updated,5,1,4,71,I 52,Letter,N,TRUE,CV,p,855
CVOE updated,5,1,4,72,H 81,Number,Y,TRUE,OE,q,1051
CVOE updated,5,1,4,73,I 41,Number,N,FALSE,OE,q,1950
CVOE updated,5,1,4,74,U 19,Letter,Y,FALSE,CV,p,1892
CVOE updated,5,1,4,75,O 17,Number,Y,FALSE,OE,p,937
CVOE updated,5,1,4,76,A 10,Number,N,TRUE,OE,p,2435
CVOE updated,5,1,4,77,P 93,Letter,Y,TRUE,CV,q,1845
CVOE updated,5,1,4,78,E 59,Letter,N,FALSE,CV,p,1973
CVOE updated,5,1,4,79,O 53,Letter,N,FALSE,CV,p,801
CVOE updated,5,1,4,80,A 96,Letter,N,TRUE,CV,q,1713
CVOE updated,5,1,4,81,H 36,Letter,Y,FALSE,CV,q,4234
CVOE updated,5,1,4,82,A 63,Letter,N,FALSE,CV,p,1053
CVOE updated,5,1,4,83,I 38,Letter,N,TRUE,CV,p,1231
CVOE updated,5,1,4,84,O 51,Number,Y,FALSE,OE,q,1374
CVOE updated,5,1,4,85,J 26,Number,N,FALSE,OE,p,977
CVOE updated,5,1,4,86,S 34,Letter,Y,FALSE,CV,q,740
CVOE updated,5,1,4,87,U 85,Number,Y,FALSE,OE,q,1034
CVOE updated,5,1,4,88,J 77,Number,N,TRUE,OE,q,1050
CVOE updated,5,1,4,89,I 73,Letter,Y,FALSE,CV,p,1517
CVOE updated,5,1,4,90,H 46,Number,Y,FALSE,OE,p,2350
CVOE updated,5,1,4,91,D 04,Number,N,FALSE,OE,p,708
CVOE updated,5,1,4,92,P 72,Letter,Y,FALSE,CV,q,1347
CVOE updated,5,1,4,93,D 99,Number,Y,TRUE,OE,q,1032
CVOE updated,5,1,4,94,U 25,Letter,Y,FALSE,CV,p,1102
CVOE updated,5,1,4,95,O 32,Letter,N,TRUE,CV,p,796
CVOE updated,5,1,4,96,E 80,Letter,N,TRUE,CV,p,941
CVOE updated,5,1,4,97,O 84,Number,Y,TRUE,OE,p,1123
CVOE updated,5,1,4,98,A 78,Number,N,TRUE,OE,p,812
CVOE updated,5,1,4,99,S 05,Number,N,TRUE,OE,q,799
CVOE updated,5,1,4,100,U 35,Letter,Y,FALSE,CV,p,1071
CVOE updated,5,1,4,101,H 14,Letter,N,FALSE,CV,q,686
CVOE updated,5,1,4,102,U 15,Number,Y,FALSE,OE,q,1366
CVOE updated,5,1,4,103,E 36,Letter,Y,TRUE,CV,p,1374
CVOE updated,5,1,4,104,P 70,Letter,N,FALSE,CV,q,1169
CVOE updated,5,1,4,105,O 44,Number,Y,TRUE,OE,p,1093
CVOE updated,5,1,4,106,S 41,Letter,Y,TRUE,CV,q,1352
CVOE updated,5,1,4,107,D 83,Letter,N,TRUE,CV,q,1742
CVOE updated,5,1,4,108,J 39,Letter,N,TRUE,CV,q,1276
CVOE updated,5,1,4,109,S 22,Number,Y,FALSE,OE,p,678
CVOE updated,5,1,4,110,D 89,Letter,Y,TRUE,CV,q,1061
CVOE updated,5,1,4,111,P 87,Letter,N,TRUE,CV,q,2196
CVOE updated,5,1,4,112,H 42,Letter,N,FALSE,CV,q,980
CVOE updated,5,1,4,113,S 49,Letter,N,TRUE,CV,q,1146
CVOE updated,5,1,4,114,J 20,Number,Y,FALSE,OE,p,1384
CVOE updated,5,1,4,115,O 19,Letter,Y,FALSE,CV,p,878
CVOE updated,5,1,4,116,H 50,Letter,N,FALSE,CV,q,735
CVOE updated,5,1,4,117,I 68,Number,Y,TRUE,OE,p,1074
CVOE updated,5,1,4,118,J 72,Number,N,FALSE,OE,q,1075
CVOE updated,5,1,4,119,O 21,Number,N,FALSE,OE,q,1372
CVOE updated,5,1,4,120,H 22,Number,N,FALSE,OE,p,895
CVOE updated,1,1,1,11,A 71,,,FALSE,CV,p,2421
CVOE updated,1,1,1,12,I 66,,,TRUE,CV,p,717
CVOE updated,1,1,1,13,S 30,,,FALSE,CV,q,566
CVOE updated,1,1,1,14,D 20,,,FALSE,CV,q,868
CVOE updated,1,1,1,15,I 31,,,FALSE,CV,p,550
CVOE updated,1,1,1,16,P 16,,,FALSE,CV,q,731
CVOE updated,1,1,1,17,A 49,,,FALSE,CV,p,784
CVOE updated,1,1,1,18,O 64,,,TRUE,CV,p,1165
CVOE updated,1,1,1,19,D 02,,,FALSE,CV,q,1267
CVOE updated,1,1,1,20,P 81,,,TRUE,CV,q,1141
CVOE updated,1,1,1,21,J 58,,,FALSE,CV,q,3512
CVOE updated,1,1,1,22,A 22,,,TRUE,CV,p,492
CVOE updated,1,1,1,23,J 72,,,FALSE,CV,q,599
CVOE updated,1,1,1,24,P 91,,,TRUE,CV,q,590
CVOE updated,1,1,1,25,E 19,,,FALSE,CV,p,666
CVOE updated,1,1,1,26,I 30,,,TRUE,CV,p,710
CVOE updated,1,1,1,27,D 91,,,TRUE,CV,q,515
CVOE updated,1,1,1,28,O 48,,,TRUE,CV,p,823
CVOE updated,1,1,1,29,A 89,,,FALSE,CV,p,545
CVOE updated,1,1,1,30,U 11,,,FALSE,CV,p,736
CVOE updated,1,1,1,31,I 76,,,TRUE,CV,p,608
CVOE updated,1,1,1,32,U 89,,,FALSE,CV,p,978
CVOE updated,1,1,1,33,D 63,,,TRUE,CV,q,482
CVOE updated,1,1,1,34,H 70,,,FALSE,CV,q,795
CVOE updated,1,1,1,35,D 48,,,FALSE,CV,q,585
CVOE updated,1,1,1,36,P 56,,,FALSE,CV,p,520
CVOE updated,1,1,1,37,O 77,,,FALSE,CV,p,1241
CVOE updated,1,1,1,38,P 42,,,FALSE,CV,q,601
CVOE updated,1,1,1,39,H 22,,,FALSE,CV,q,808
CVOE updated,1,1,1,40,E 42,,,TRUE,CV,p,579
CVOE updated,1,1,1,41,J 28,,,FALSE,CV,q,537
CVOE updated,1,1,1,42,E 95,,,FALSE,CV,p,698
CVOE updated,1,1,1,43,S 63,,,TRUE,CV,q,1279
CVOE updated,1,1,1,44,H 50,,,FALSE,CV,q,1077
CVOE updated,1,1,1,45,S 33,,,TRUE,CV,q,619
CVOE updated,1,1,1,46,P 57,,,TRUE,CV,q,705
CVOE updated,1,1,1,47,E 23,,,FALSE,CV,p,568
CVOE updated,1,1,1,48,S 61,,,TRUE,CV,q,465
CVOE updated,1,1,1,49,U 67,,,FALSE,CV,p,564
CVOE updated,1,1,1,50,H 32,,,FALSE,CV,q,507
CVOE updated,1,1,1,51,U 50,,,TRUE,CV,p,635
CVOE updated,1,1,1,52,O 49,,,FALSE,CV,p,2704
CVOE updated,1,1,1,53,U 32,,,TRUE,CV,p,865
CVOE updated,1,1,1,54,J 78,,,FALSE,CV,q,523
CVOE updated,1,1,1,55,S 54,,,FALSE,CV,q,577
CVOE updated,1,1,1,56,J 27,,,TRUE,CV,q,680
CVOE updated,1,1,1,57,S 06,,,FALSE,CV,q,387
CVOE updated,1,1,1,58,D 67,,,TRUE,CV,q,411
CVOE updated,1,1,1,59,A 79,,,FALSE,CV,p,500
CVOE updated,1,1,1,60,S 52,,,FALSE,CV,q,490
CVOE updated,1,1,1,61,U 16,,,TRUE,CV,p,1018
CVOE updated,1,1,1,62,O 82,,,TRUE,CV,p,609
CVOE updated,1,1,1,63,H 87,,,TRUE,CV,q,586
CVOE updated,1,1,1,64,I 32,,,TRUE,CV,p,397
CVOE updated,1,1,1,65,U 37,,,FALSE,CV,p,543
CVOE updated,1,1,1,66,I 42,,,TRUE,CV,p,455
CVOE updated,1,1,1,67,D 65,,,TRUE,CV,q,432
CVOE updated,1,1,1,68,U 77,,,FALSE,CV,p,619
CVOE updated,1,1,1,69,E 12,,,TRUE,CV,p,464
CVOE updated,1,1,1,70,I 60,,,TRUE,CV,p,490
CVOE updated,1,1,1,71,J 36,,,FALSE,CV,q,545
CVOE updated,1,1,1,72,H 75,,,TRUE,CV,q,2057
CVOE updated,1,1,1,73,I 50,,,TRUE,CV,p,504
CVOE updated,1,1,1,74,E 99,,,FALSE,CV,p,771
CVOE updated,1,1,1,75,A 86,,,TRUE,CV,p,596
CVOE updated,1,1,1,76,U 48,,,TRUE,CV,p,514
CVOE updated,1,1,1,77,E 01,,,FALSE,CV,p,468
CVOE updated,1,1,1,78,A 78,,,TRUE,CV,p,356
CVOE updated,1,1,1,79,P 60,,,FALSE,CV,q,500
CVOE updated,1,1,1,80,E 43,,,FALSE,CV,p,662
CVOE updated,1,1,1,81,D 69,,,TRUE,CV,q,627
CVOE updated,1,1,1,82,H 11,,,TRUE,CV,q,634
CVOE updated,1,1,1,83,P 43,,,TRUE,CV,q,568
CVOE updated,1,1,1,84,O 67,,,FALSE,CV,p,433
CVOE updated,1,1,1,85,S 91,,,FALSE,CV,q,533
CVOE updated,1,1,1,86,J 68,,,TRUE,CV,q,674
CVOE updated,1,1,1,87,S 47,,,FALSE,CV,q,443
CVOE updated,1,1,1,88,I 81,,,TRUE,CV,p,478
CVOE updated,1,1,1,89,J 39,,,FALSE,CV,q,483
CVOE updated,1,1,1,90,A 11,,,TRUE,CV,p,454
CVOE updated,1,1,1,91,O 76,,,FALSE,CV,p,726
CVOE updated,1,1,1,92,A 62,,,FALSE,CV,p,563
CVOE updated,1,1,1,93,O 27,,,TRUE,CV,p,554
CVOE updated,1,1,1,94,E 66,,,FALSE,CV,p,653
CVOE updated,1,1,1,95,J 62,,,TRUE,CV,q,924
CVOE updated,1,1,1,96,H 72,,,TRUE,CV,q,541
CVOE updated,1,1,1,97,E 49,,,TRUE,CV,p,575
CVOE updated,1,1,1,98,D 52,,,TRUE,CV,q,754
CVOE updated,1,1,1,99,H 62,,,TRUE,CV,q,633
CVOE updated,1,1,1,100,I 11,,,TRUE,CV,p,544
CVOE updated,1,1,1,101,A 98,,,FALSE,CV,p,588
CVOE updated,1,1,1,102,H 29,,,FALSE,CV,q,516
CVOE updated,1,1,1,103,E 83,,,TRUE,CV,p,544
CVOE updated,1,1,1,104,D 43,,,FALSE,CV,q,919
CVOE updated,1,1,1,105,P 45,,,TRUE,CV,q,658
CVOE updated,1,1,1,106,J 17,,,TRUE,CV,q,504
CVOE updated,1,1,2,11,A 24,,,TRUE,OE,p,2299
CVOE updated,1,1,2,12,O 83,,,FALSE,OE,q,547
CVOE updated,1,1,2,13,H 55,,,TRUE,OE,q,1340
CVOE updated,1,1,2,14,P 10,,,FALSE,OE,p,1936
CVOE updated,1,1,2,15,D 30,,,FALSE,OE,p,667
CVOE updated,1,1,2,16,U 62,,,TRUE,OE,p,5075
CVOE updated,1,1,2,17,P 95,,,TRUE,OE,q,797
CVOE updated,1,1,2,18,U 06,,,TRUE,OE,p,910
CVOE updated,1,1,2,19,E 75,,,FALSE,OE,q,710
CVOE updated,1,1,2,20,I 67,,,FALSE,OE,q,1126
CVOE updated,1,1,2,21,S 13,,,TRUE,OE,q,638
CVOE updated,1,1,2,22,P 78,,,FALSE,OE,p,775
CVOE updated,1,1,2,23,I 15,,,FALSE,OE,q,1924
CVOE updated,1,1,2,24,D 27,,,TRUE,OE,q,968
CVOE updated,1,1,2,25,O 94,,,TRUE,OE,p,583
CVOE updated,1,1,2,26,A 65,,,FALSE,OE,q,622
CVOE updated,1,1,2,27,I 42,,,TRUE,OE,p,493
CVOE updated,1,1,2,28,E 25,,,FALSE,OE,q,683
CVOE updated,1,1,2,29,H 49,,,TRUE,OE,q,672
CVOE updated,1,1,2,30,S 18,,,FALSE,OE,p,772
CVOE updated,1,1,2,31,H 51,,,TRUE,OE,q,1035
CVOE updated,1,1,2,32,U 14,,,TRUE,OE,p,648
CVOE updated,1,1,2,33,E 02,,,TRUE,OE,q,462
CVOE updated,1,1,2,34,J 26,,,FALSE,OE,p,996
CVOE updated,1,1,2,35,D 24,,,FALSE,OE,p,704
CVOE updated,1,1,2,36,O 50,,,TRUE,OE,p,753
CVOE updated,1,1,2,37,U 16,,,TRUE,OE,p,615
CVOE updated,1,1,2,38,O 15,,,FALSE,OE,q,629
CVOE updated,1,1,2,39,D 32,,,FALSE,OE,p,593
CVOE updated,1,1,2,40,S 67,,,TRUE,OE,q,667
CVOE updated,1,1,2,41,J 74,,,FALSE,OE,p,584
CVOE updated,1,1,2,42,D 92,,,FALSE,OE,p,806
CVOE updated,1,1,2,43,A 65,,,FALSE,OE,q,910
CVOE updated,1,1,2,44,I 87,,,FALSE,OE,q,1626
CVOE updated,1,1,2,45,H 61,,,TRUE,OE,q,751
CVOE updated,1,1,2,46,E 59,,,FALSE,OE,q,1246
CVOE updated,1,1,2,47,I 33,,,FALSE,OE,q,1790
CVOE updated,1,1,2,48,O 90,,,TRUE,OE,p,1999
CVOE updated,1,1,2,49,U 51,,,FALSE,OE,q,1705
CVOE updated,1,1,2,50,A 10,,,TRUE,OE,p,809
CVOE updated,1,1,2,51,E 50,,,TRUE,OE,p,827
CVOE updated,1,1,2,52,D 92,,,FALSE,OE,p,645
CVOE updated,1,1,2,53,E 60,,,TRUE,OE,p,530
CVOE updated,1,1,2,54,A 95,,,FALSE,OE,q,670
CVOE updated,1,1,2,55,E 64,,,TRUE,OE,p,1069
CVOE updated,1,1,2,56,P 20,,,FALSE,OE,q,693
CVOE updated,1,1,2,57,S 06,,,FALSE,OE,p,992
CVOE updated,1,1,2,58,P 64,,,FALSE,OE,p,676
CVOE updated,1,1,2,59,U 70,,,TRUE,OE,p,931
CVOE updated,1,1,2,60,S 16,,,FALSE,OE,p,1158
CVOE updated,1,1,2,61,E 35,,,FALSE,OE,q,592
CVOE updated,1,1,2,62,I 93,,,FALSE,OE,q,1307
CVOE updated,1,1,2,63,D 63,,,TRUE,OE,q,809
CVOE updated,1,1,2,64,U 89,,,FALSE,OE,p,617
CVOE updated,1,1,2,65,E 91,,,FALSE,OE,q,550
CVOE updated,1,1,2,66,A 12,,,TRUE,OE,p,576
CVOE updated,1,1,2,67,P 56,,,FALSE,OE,q,580
CVOE updated,1,1,2,68,S 65,,,TRUE,OE,q,2551
CVOE updated,1,1,2,69,P 07,,,TRUE,OE,q,692
CVOE updated,1,1,2,70,I 77,,,FALSE,OE,q,514
CVOE updated,1,1,2,71,J 19,,,TRUE,OE,q,656
CVOE updated,1,1,2,72,O 59,,,FALSE,OE,q,577
CVOE updated,1,1,2,73,J 15,,,TRUE,OE,q,581
CVOE updated,1,1,2,74,I 89,,,FALSE,OE,q,530
CVOE updated,1,1,2,75,O 97,,,FALSE,OE,q,508
CVOE updated,1,1,2,76,A 92,,,TRUE,OE,p,601
CVOE updated,1,1,2,77,J 90,,,FALSE,OE,p,803
CVOE updated,1,1,2,78,H 65,,,TRUE,OE,q,548
CVOE updated,1,1,2,79,H 17,,,TRUE,OE,q,747
CVOE updated,1,1,2,80,S 26,,,FALSE,OE,p,856
CVOE updated,1,1,2,81,D 56,,,FALSE,OE,p,727
CVOE updated,1,1,2,82,I 91,,,FALSE,OE,q,604
CVOE updated,1,1,2,83,J 11,,,TRUE,OE,q,3823
CVOE updated,1,1,2,84,O 28,,,TRUE,OE,p,1164
CVOE updated,1,1,2,85,H 29,,,TRUE,OE,q,778
CVOE updated,1,1,2,86,J 25,,,TRUE,OE,q,676
CVOE updated,1,1,2,87,A 73,,,FALSE,OE,q,1936
CVOE updated,1,1,2,88,J 63,,,TRUE,OE,q,568
CVOE updated,1,1,2,89,U 84,,,TRUE,OE,p,657
CVOE updated,1,1,2,90,A 58,,,TRUE,OE,p,1580
CVOE updated,1,1,2,91,S 43,,,TRUE,OE,q,706
CVOE updated,1,1,2,92,H 54,,,FALSE,OE,p,479
CVOE updated,1,1,2,93,D 4,,,FALSE,OE,p,487
CVOE updated,1,1,2,94,J 75,,,TRUE,OE,q,561
CVOE updated,1,1,2,95,D 19,,,TRUE,OE,q,711
CVOE updated,1,1,2,96,J 38,,,FALSE,OE,p,2268
CVOE updated,1,1,2,97,I 56,,,TRUE,OE,p,858
CVOE updated,1,1,2,98,P 87,,,TRUE,OE,q,594
CVOE updated,1,1,2,99,O 80,,,TRUE,OE,p,633
CVOE updated,1,1,2,100,U 60,,,TRUE,OE,p,654
CVOE updated,1,1,2,101,P 48,,,FALSE,OE,p,783
CVOE updated,1,1,2,102,H 64,,,FALSE,OE,p,518
CVOE updated,1,1,2,103,A 13,,,FALSE,OE,q,895
CVOE updated,1,1,2,104,H 68,,,FALSE,OE,p,707
CVOE updated,1,1,2,105,E 16,,,TRUE,OE,p,394
CVOE updated,1,1,2,106,S 71,,,TRUE,OE,q,782
CVOE updated,1,1,3,11,A 44,Letter,N,TRUE,CV,q,6278
CVOE updated,1,1,3,12,D 94,Letter,N,FALSE,CV,q,774
CVOE updated,1,1,3,13,E 75,Number,Y,FALSE,OE,q,984
CVOE updated,1,1,3,14,H 81,Number,N,TRUE,OE,q,1156
CVOE updated,1,1,3,15,I 64,Letter,Y,TRUE,CV,p,1870
CVOE updated,1,1,3,16,J 54,Letter,N,FALSE,CV,q,1302
CVOE updated,1,1,3,17,O 23,Number,Y,FALSE,OE,q,1080
CVOE updated,1,1,3,18,P 05,Number,N,TRUE,OE,q,1037
CVOE updated,1,1,3,19,S 34,Letter,Y,FALSE,CV,q,2284
CVOE updated,1,1,3,20,U 88,Letter,N,TRUE,CV,p,2358
CVOE updated,1,1,3,21,A 70,Number,Y,TRUE,OE,p,5140
CVOE updated,1,1,3,22,D 12,Number,N,FALSE,OE,p,2017
CVOE updated,1,1,3,23,E 79,Letter,Y,FALSE,CV,p,1120
CVOE updated,1,1,3,24,H 72,Letter,N,FALSE,CV,q,1383
CVOE updated,1,1,3,25,I 41,Number,Y,FALSE,OE,q,1162
CVOE updated,1,1,3,26,J 63,Number,N,TRUE,OE,q,754
CVOE updated,1,1,3,27,O 03,Letter,Y,FALSE,CV,p,1394
CVOE updated,1,1,3,28,P 75,Letter,N,TRUE,CV,q,920
CVOE updated,1,1,3,29,S 61,Number,Y,TRUE,OE,q,1259
CVOE updated,1,1,3,30,U 28,Number,N,TRUE,OE,p,1628
CVOE updated,1,1,3,31,A 21,Letter,Y,FALSE,CV,p,1202
CVOE updated,1,1,3,32,D 18,Letter,N,FALSE,CV,q,696
CVOE updated,1,1,3,33,E 35,Number,Y,FALSE,OE,q,3027
CVOE updated,1,1,3,34,H 62,Number,N,FALSE,OE,p,5937
CVOE updated,1,1,3,35,I 82,Letter,Y,TRUE,CV,p,4390
CVOE updated,1,1,3,36,J 78,Letter,N,FALSE,CV,q,1014
CVOE updated,1,1,3,37,O 12,Number,Y,TRUE,OE,p,900
CVOE updated,1,1,3,38,P 13,Number,N,TRUE,OE,q,1314
CVOE updated,1,1,3,39,S 07,Letter,Y,TRUE,CV,q,1870
CVOE updated,1,1,3,40,U 36,Letter,N,TRUE,CV,p,1065
CVOE updated,1,1,3,41,A 96,Number,Y,TRUE,OE,p,1780
CVOE updated,1,1,3,42,D 04,Number,N,FALSE,OE,p,1409
CVOE updated,1,1,3,43,E 60,Letter,Y,TRUE,CV,p,3064
CVOE updated,1,1,3,44,H 83,Letter,N,TRUE,CV,q,3153
CVOE updated,1,1,3,45,I 64,Number,Y,TRUE,OE,p,876
CVOE updated,1,1,3,46,J 76,Number,N,FALSE,OE,p,2779
CVOE updated,1,1,3,47,O 78,Letter,Y,TRUE,CV,p,1225
CVOE updated,1,1,3,48,P 09,Letter,N,TRUE,CV,q,1086
CVOE updated,1,1,3,49,S 72,Number,Y,FALSE,OE,p,1121
CVOE updated,1,1,3,50,U 47,Number,N,FALSE,OE,q,1416
CVOE updated,1,1,3,51,A 31,Letter,Y,FALSE,CV,p,10266
CVOE updated,1,1,3,52,D 96,Letter,N,FALSE,CV,q,815
CVOE updated,1,1,3,53,E 40,Number,Y,TRUE,OE,p,1455
CVOE updated,1,1,3,54,H 79,Number,N,TRUE,OE,q,1198
CVOE updated,1,1,3,55,I 15,Letter,Y,FALSE,CV,p,1813
CVOE updated,1,1,3,56,J 07,Letter,N,TRUE,CV,q,659
CVOE updated,1,1,3,57,O 61,Number,Y,FALSE,OE,q,1764
CVOE updated,1,1,3,58,P 58,Number,N,FALSE,OE,p,3112
CVOE updated,1,1,3,59,S 37,Letter,Y,TRUE,CV,q,1908
CVOE updated,1,1,3,60,U 61,Letter,N,FALSE,CV,p,2186
CVOE updated,1,1,3,61,A 17,Number,Y,FALSE,OE,q,2114
CVOE updated,1,1,3,62,D 85,Number,N,TRUE,OE,q,2260
CVOE updated,1,1,3,63,E 20,Letter,Y,TRUE,CV,p,1388
CVOE updated,1,1,3,64,H 86,Letter,N,FALSE,CV,q,1471
CVOE updated,1,1,3,65,I 21,Number,Y,FALSE,OE,q,1775
CVOE updated,1,1,3,66,J 29,Number,N,TRUE,OE,q,1514
CVOE updated,1,1,3,67,O 13,Letter,Y,FALSE,CV,p,1135
CVOE updated,1,1,3,68,P 82,Letter,N,FALSE,CV,q,1062
CVOE updated,1,1,3,69,S 72,Number,Y,FALSE,OE,p,1697
CVOE updated,1,1,3,70,U 84,Number,N,TRUE,OE,p,1048
CVOE updated,1,1,3,71,A 49,Letter,Y,FALSE,CV,p,1002
CVOE updated,1,1,3,72,D 91,Letter,N,TRUE,CV,q,1549
CVOE updated,1,1,3,73,E 99,Number,Y,FALSE,OE,q,4038
CVOE updated,1,1,3,74,H 16,Number,N,FALSE,OE,p,7549
CVOE updated,1,1,3,75,I 45,Letter,Y,FALSE,CV,p,943
CVOE updated,1,1,3,76,J 70,Letter,N,FALSE,CV,q,846
CVOE updated,1,1,3,77,O 22,Number,Y,TRUE,OE,p,839
CVOE updated,1,1,3,78,P 41,Number,N,TRUE,OE,q,1393
CVOE updated,1,1,3,79,S 93,Letter,Y,TRUE,CV,q,1807
CVOE updated,1,1,3,80,U 70,Letter,N,TRUE,CV,p,1438
CVOE updated,1,1,3,81,A 42,Number,Y,TRUE,OE,p,1096
CVOE updated,1,1,3,82,D 85,Number,N,TRUE,OE,q,1199
CVOE updated,1,1,3,83,E 68,Letter,Y,TRUE,CV,p,1284
CVOE updated,1,1,3,84,H 17,Letter,N,TRUE,CV,q,2257
CVOE updated,1,1,3,85,I 70,Number,Y,TRUE,OE,p,1831
CVOE updated,1,1,3,86,J 88,Number,N,FALSE,OE,p,1482
CVOE updated,1,1,3,87,O 32,Letter,Y,TRUE,CV,p,2011
CVOE updated,1,1,3,88,P 95,Letter,N,TRUE,CV,q,1299
CVOE updated,1,1,3,89,S 98,Number,Y,FALSE,OE,p,1619
CVOE updated,1,1,3,90,U 37,Number,N,FALSE,OE,q,3488
CVOE updated,1,1,3,91,A 56,Letter,Y,TRUE,CV,p,1727
CVOE updated,1,1,3,92,D 57,Letter,N,TRUE,CV,q,1528
CVOE updated,1,1,3,93,E 93,Number,Y,FALSE,OE,q,5791
CVOE updated,1,1,3,94,H 27,Number,N,TRUE,OE,q,3451
CVOE updated,1,1,3,95,I 35,Letter,Y,FALSE,CV,p,1576
CVOE updated,1,1,3,96,J 03,Letter,N,TRUE,CV,q,1591
CVOE updated,1,1,3,97,O 28,Number,Y,TRUE,OE,p,1625
CVOE updated,1,1,3,98,P 59,Number,N,TRUE,OE,q,1582
CVOE updated,1,1,3,99,S 77,Letter,Y,TRUE,CV,q,1615
CVOE updated,1,1,3,100,U 05,Letter,N,FALSE,CV,p,1443
CVOE updated,1,1,3,101,A 56,Number,Y,TRUE,OE,p,762
CVOE updated,1,1,3,102,D 01,Number,N,TRUE,OE,q,6122
CVOE updated,1,1,3,103,E 02,Letter,Y,TRUE,CV,p,1375
CVOE updated,1,1,3,104,H 68,Letter,N,FALSE,CV,q,629
CVOE updated,1,1,3,105,I 05,Number,Y,FALSE,OE,q,2611
CVOE updated,1,1,3,106,J 55,Number,N,TRUE,OE,q,3697
CVOE updated,1,1,3,107,O 73,Letter,Y,FALSE,CV,p,1232
CVOE updated,1,1,3,108,P 41,Letter,N,TRUE,CV,q,853
CVOE updated,1,1,3,109,S 92,Number,Y,FALSE,OE,p,750
CVOE updated,1,1,3,110,U 34,Number,N,TRUE,OE,p,1159
CVOE updated,1,1,3,111,A 09,Letter,Y,FALSE,CV,p,762
CVOE updated,1,1,3,112,D 92,Letter,N,FALSE,CV,q,895
CVOE updated,1,1,3,113,E 48,Number,Y,TRUE,OE,p,1284
CVOE updated,1,1,3,114,H 76,Number,N,FALSE,OE,p,1240
CVOE updated,1,1,3,115,I 44,Letter,Y,TRUE,CV,p,1313
CVOE updated,1,1,3,116,J 67,Letter,N,TRUE,CV,q,1384
CVOE updated,1,1,3,117,O 48,Number,Y,TRUE,OE,p,1539
CVOE updated,1,1,3,118,P 22,Number,N,FALSE,OE,p,733
CVOE updated,1,1,3,119,S 86,Letter,Y,FALSE,CV,q,772
CVOE updated,1,1,3,120,U 35,Letter,N,FALSE,CV,p,5854
CVOE updated,1,1,3,121,A 91,Number,Y,FALSE,OE,q,1633
CVOE updated,1,1,3,122,D 78,Number,N,FALSE,OE,p,2228
CVOE updated,1,1,3,123,E 91,Letter,Y,FALSE,CV,p,2778
CVOE updated,1,1,3,124,H 54,Letter,N,FALSE,CV,q,2236
CVOE updated,1,1,3,125,I 65,Number,Y,FALSE,OE,q,1487
CVOE updated,1,1,3,126,J 52,Number,N,FALSE,OE,p,1996
CVOE updated,1,1,3,127,O 19,Letter,Y,FALSE,CV,q,3051
CVOE updated,1,1,3,128,P 48,Letter,N,FALSE,CV,q,4402
CVOE updated,1,1,3,129,S 45,Number,Y,TRUE,OE,q,1531
CVOE updated,1,1,3,130,U 26,Number,N,TRUE,OE,p,1440
CVOE updated,1,1,4,1,U 38,Number,N,TRUE,OE,p,5292
CVOE updated,1,1,4,2,P 73,Number,N,TRUE,OE,q,1932
CVOE updated,1,1,4,3,U 95,Letter,Y,FALSE,CV,p,1226
CVOE updated,1,1,4,4,J 61,Number,Y,TRUE,OE,q,2957
CVOE updated,1,1,4,5,D 51,Number,N,TRUE,OE,q,987
CVOE updated,1,1,4,6,S 28,Number,N,FALSE,OE,p,1200
CVOE updated,1,1,4,7,A 56,Letter,Y,TRUE,CV,p,3599
CVOE updated,1,1,4,8,H 78,Letter,N,FALSE,CV,q,808
CVOE updated,1,1,4,9,P 92,Letter,N,FALSE,CV,q,1335
CVOE updated,1,1,4,10,E 05,Number,Y,FALSE,OE,q,1172
CVOE updated,1,1,4,11,P 57,Letter,Y,TRUE,CV,q,2877
CVOE updated,1,1,4,12,D 88,Number,Y,FALSE,OE,p,1027
CVOE updated,1,1,4,13,O 89,Letter,Y,FALSE,CV,p,5851
CVOE updated,1,1,4,14,U 43,Number,Y,FALSE,OE,q,1175
CVOE updated,1,1,4,15,H 10,Number,N,FALSE,OE,q,1280
CVOE updated,1,1,4,16,S 07,Letter,Y,TRUE,CV,q,5824
CVOE updated,1,1,4,17,J 10,Letter,N,FALSE,CV,q,3833
CVOE updated,1,1,4,18,H 54,Number,Y,FALSE,OE,p,2301
CVOE updated,1,1,4,19,E 99,Number,N,FALSE,OE,q,1059
CVOE updated,1,1,4,20,J 36,Letter,Y,FALSE,CV,q,783
CVOE updated,1,1,4,21,I 94,Letter,N,TRUE,CV,p,817
CVOE updated,1,1,4,22,A 82,Letter,N,TRUE,CV,q,726
CVOE updated,1,1,4,23,H 79,Number,Y,TRUE,OE,q,1530
CVOE updated,1,1,4,24,J 60,Number,N,FALSE,OE,p,1129
CVOE updated,1,1,4,25,S 28,Letter,Y,FALSE,CV,q,1179
CVOE updated,1,1,4,26,P 11,Number,Y,TRUE,OE,q,1071
CVOE updated,1,1,4,27,D 39,Number,N,TRUE,OE,q,1155
CVOE updated,1,1,4,28,E 90,Number,N,TRUE,OE,p,981
CVOE updated,1,1,4,29,I 38,Number,N,TRUE,OE,p,963
CVOE updated,1,1,4,30,S 35,Letter,Y,TRUE,CV,q,1658
CVOE updated,1,1,4,31,D 41,Number,Y,TRUE,OE,q,973
CVOE updated,1,1,4,32,E 06,Number,N,TRUE,OE,p,1234
CVOE updated,1,1,4,33,A 27,Number,N,FALSE,OE,q,1374
CVOE updated,1,1,4,34,U 95,Letter,Y,FALSE,CV,p,938
CVOE updated,1,1,4,35,A 53,Letter,N,FALSE,CV,p,4786
CVOE updated,1,1,4,36,E 43,Letter,N,FALSE,CV,p,1022
CVOE updated,1,1,4,37,P 05,Number,Y,TRUE,OE,q,979
CVOE updated,1,1,4,38,O 19,Letter,Y,FALSE,CV,p,1300
CVOE updated,1,1,4,39,I 96,Number,Y,TRUE,OE,p,1439
CVOE updated,1,1,4,40,A 88,Number,N,TRUE,OE,p,864
CVOE updated,1,1,4,41,I 67,Number,N,FALSE,OE,q,905
CVOE updated,1,1,4,42,D 40,Number,N,FALSE,OE,p,1213
CVOE updated,1,1,4,43,P 79,Letter,Y,TRUE,CV,q,1144
CVOE updated,1,1,4,44,U 24,Number,Y,TRUE,OE,p,858
CVOE updated,1,1,4,45,P 74,Number,N,FALSE,OE,p,926
CVOE updated,1,1,4,46,E 70,Number,N,TRUE,OE,p,1649
CVOE updated,1,1,4,47,S 27,Number,N,TRUE,OE,q,2335
CVOE updated,1,1,4,48,E 54,Letter,Y,TRUE,CV,p,1254
CVOE updated,1,1,4,49,A 53,Letter,N,FALSE,CV,p,1707
CVOE updated,1,1,4,50,P 34,Letter,N,FALSE,CV,q,1039
CVOE updated,1,1,4,51,D 74,Number,Y,FALSE,OE,p,985
CVOE updated,1,1,4,52,A 03,Letter,Y,FALSE,CV,p,1161
CVOE updated,1,1,4,53,E 24,Number,Y,TRUE,OE,p,2948
CVOE updated,1,1,4,54,I 58,Letter,Y,TRUE,CV,p,1091
CVOE updated,1,1,4,55,D 77,Number,Y,TRUE,OE,q,2110
CVOE updated,1,1,4,56,S 75,Number,N,TRUE,OE,q,918
CVOE updated,1,1,4,57,I 20,Letter,Y,TRUE,CV,p,710
CVOE updated,1,1,4,58,J 52,Letter,N,FALSE,CV,q,975
CVOE updated,1,1,4,59,A 38,Number,Y,TRUE,OE,p,1220
CVOE updated,1,1,4,60,I 60,Letter,Y,TRUE,CV,p,2420
CVOE updated,1,1,4,61,S 51,Number,Y,TRUE,OE,q,1665
CVOE updated,1,1,4,62,D 63,Letter,Y,TRUE,CV,q,2185
CVOE updated,1,1,4,63,U 27,Letter,N,FALSE,CV,p,6219
CVOE updated,1,1,4,64,J 77,Letter,N,TRUE,CV,q,1186
CVOE updated,1,1,4,65,O 15,Number,Y,FALSE,OE,q,1133
CVOE updated,1,1,4,66,J 20,Letter,Y,FALSE,CV,q,1726
CVOE updated,1,1,4,67,U 97,Number,Y,FALSE,OE,q,6335
CVOE updated,1,1,4,68,H 03,Number,N,TRUE,OE,q,1239
CVOE updated,1,1,4,69,O 04,Letter,Y,TRUE,CV,p,1319
CVOE updated,1,1,4,70,E 10,Letter,N,TRUE,CV,q,3155
CVOE updated,1,1,4,71,I 52,Letter,N,TRUE,CV,p,1806
CVOE updated,1,1,4,72,H 81,Number,Y,TRUE,OE,q,6920
CVOE updated,1,1,4,73,I 41,Number,N,FALSE,OE,q,1291
CVOE updated,1,1,4,74,U 19,Letter,Y,FALSE,CV,p,647
CVOE updated,1,1,4,75,O 17,Number,Y,FALSE,OE,q,824
CVOE updated,1,1,4,76,A 10,Number,N,TRUE,OE,q,4511
CVOE updated,1,1,4,77,P 93,Letter,Y,TRUE,CV,q,869
CVOE updated,1,1,4,78,E 59,Letter,N,FALSE,CV,p,798
CVOE updated,1,1,4,79,O 53,Letter,N,FALSE,CV,p,879
CVOE updated,1,1,4,80,A 96,Letter,N,TRUE,CV,p,485
CVOE updated,1,1,4,81,H 36,Letter,Y,FALSE,CV,q,579
CVOE updated,1,1,4,82,A 63,Letter,N,FALSE,CV,p,678
CVOE updated,1,1,4,83,I 38,Letter,N,TRUE,CV,p,718
CVOE updated,1,1,4,84,O 51,Number,Y,FALSE,OE,p,1197
CVOE updated,1,1,4,85,J 26,Number,N,FALSE,OE,p,2397
CVOE updated,1,1,4,86,S 34,Letter,Y,FALSE,CV,q,1180
CVOE updated,1,1,4,87,U 85,Number,Y,FALSE,OE,q,1321
CVOE updated,1,1,4,88,J 77,Number,N,TRUE,OE,p,838
CVOE updated,1,1,4,89,I 73,Letter,Y,FALSE,CV,q,878
CVOE updated,1,1,4,90,H 46,Number,Y,FALSE,OE,p,1878
CVOE updated,1,1,4,91,D 04,Number,N,FALSE,OE,p,708
CVOE updated,1,1,4,92,P 72,Letter,Y,FALSE,CV,q,1689
CVOE updated,1,1,4,93,D 99,Number,Y,TRUE,OE,q,1797
CVOE updated,1,1,4,94,U 25,Letter,Y,FALSE,CV,p,3180
CVOE updated,1,1,4,95,O 32,Letter,N,TRUE,CV,p,1867
CVOE updated,1,1,4,96,E 80,Letter,N,TRUE,CV,p,2146
CVOE updated,1,1,4,97,O 84,Number,Y,TRUE,OE,p,1198
CVOE updated,1,1,4,98,A 78,Number,N,TRUE,OE,p,832
CVOE updated,1,1,4,99,S 05,Number,N,TRUE,OE,q,743
CVOE updated,1,1,4,100,U 35,Letter,Y,FALSE,CV,p,1013
CVOE updated,1,1,4,101,H 14,Letter,N,FALSE,CV,q,935
CVOE updated,1,1,4,102,U 15,Number,Y,FALSE,OE,q,1025
CVOE updated,1,1,4,103,E 36,Letter,Y,TRUE,CV,p,836
CVOE updated,1,1,4,104,P 70,Letter,N,FALSE,CV,q,657
CVOE updated,1,1,4,105,O 44,Number,Y,TRUE,OE,p,843
CVOE updated,1,1,4,106,S 41,Letter,Y,TRUE,CV,q,761
CVOE updated,1,1,4,107,D 83,Letter,N,TRUE,CV,q,883
CVOE updated,1,1,4,108,J 39,Letter,N,TRUE,CV,q,579
CVOE updated,1,1,4,109,S 22,Number,Y,FALSE,OE,q,604
CVOE updated,1,1,4,110,D 89,Letter,Y,TRUE,CV,q,1851
CVOE updated,1,1,4,111,P 87,Letter,N,TRUE,CV,q,915
CVOE updated,1,1,4,112,H 42,Letter,N,FALSE,CV,q,630
CVOE updated,1,1,4,113,S 49,Letter,N,TRUE,CV,q,1074
CVOE updated,1,1,4,114,J 20,Number,Y,FALSE,OE,p,1095
CVOE updated,1,1,4,115,O 19,Letter,Y,FALSE,CV,q,3728
CVOE updated,1,1,4,116,H 50,Letter,N,FALSE,CV,q,4138
CVOE updated,1,1,4,117,I 68,Number,Y,TRUE,OE,p,2103
CVOE updated,1,1,4,118,J 72,Number,N,FALSE,OE,p,4069
CVOE updated,1,1,4,119,O 21,Number,N,FALSE,OE,q,831
CVOE updated,1,1,4,120,H 22,Number,N,FALSE,OE,p,987
CVOE updated,9,1,1,11,A 71,,,FALSE,CV,p,1803
CVOE updated,9,1,1,12,I 66,,,TRUE,CV,p,612
CVOE updated,9,1,1,13,S 30,,,FALSE,CV,q,487
CVOE updated,9,1,1,14,D 20,,,FALSE,CV,q,571
CVOE updated,9,1,1,15,I 31,,,FALSE,CV,p,526
CVOE updated,9,1,1,16,P 16,,,FALSE,CV,q,590
CVOE updated,9,1,1,17,A 49,,,FALSE,CV,p,524
CVOE updated,9,1,1,18,O 64,,,TRUE,CV,p,612
CVOE updated,9,1,1,19,D 02,,,FALSE,CV,q,471
CVOE updated,9,1,1,20,P 81,,,TRUE,CV,q,765
CVOE updated,9,1,1,21,J 58,,,FALSE,CV,q,749
CVOE updated,9,1,1,22,A 22,,,TRUE,CV,p,475
CVOE updated,9,1,1,23,J 72,,,FALSE,CV,q,532
CVOE updated,9,1,1,24,P 91,,,TRUE,CV,q,535
CVOE updated,9,1,1,25,E 19,,,FALSE,CV,p,450
CVOE updated,9,1,1,26,I 30,,,TRUE,CV,p,453
CVOE updated,9,1,1,27,D 91,,,TRUE,CV,q,488
CVOE updated,9,1,1,28,O 48,,,TRUE,CV,p,531
CVOE updated,9,1,1,29,A 89,,,FALSE,CV,p,566
CVOE updated,9,1,1,30,U 11,,,FALSE,CV,p,542
CVOE updated,9,1,1,31,I 76,,,TRUE,CV,p,420
CVOE updated,9,1,1,32,U 89,,,FALSE,CV,p,450
CVOE updated,9,1,1,33,D 63,,,TRUE,CV,q,461
CVOE updated,9,1,1,34,H 70,,,FALSE,CV,q,475
CVOE updated,9,1,1,35,D 48,,,FALSE,CV,q,451
CVOE updated,9,1,1,36,P 56,,,FALSE,CV,q,502
CVOE updated,9,1,1,37,O 77,,,FALSE,CV,p,444
CVOE updated,9,1,1,38,P 42,,,FALSE,CV,q,756
CVOE updated,9,1,1,39,H 22,,,FALSE,CV,q,693
CVOE updated,9,1,1,40,E 42,,,TRUE,CV,p,344
CVOE updated,9,1,1,41,J 28,,,FALSE,CV,q,1029
CVOE updated,9,1,1,42,E 95,,,FALSE,CV,p,595
CVOE updated,9,1,1,43,S 63,,,TRUE,CV,q,508
CVOE updated,9,1,1,44,H 50,,,FALSE,CV,q,449
CVOE updated,9,1,1,45,S 33,,,TRUE,CV,q,476
CVOE updated,9,1,1,46,P 57,,,TRUE,CV,q,541
CVOE updated,9,1,1,47,E 23,,,FALSE,CV,p,459
CVOE updated,9,1,1,48,S 61,,,TRUE,CV,q,422
CVOE updated,9,1,1,49,U 67,,,FALSE,CV,p,515
CVOE updated,9,1,1,50,H 32,,,FALSE,CV,q,540
CVOE updated,9,1,1,51,U 50,,,TRUE,CV,p,575
CVOE updated,9,1,1,52,O 49,,,FALSE,CV,p,554
CVOE updated,9,1,1,53,U 32,,,TRUE,CV,p,530
CVOE updated,9,1,1,54,J 78,,,FALSE,CV,q,509
CVOE updated,9,1,1,55,S 54,,,FALSE,CV,q,571
CVOE updated,9,1,1,56,J 27,,,TRUE,CV,q,550
CVOE updated,9,1,1,57,S 06,,,FALSE,CV,q,612
CVOE updated,9,1,1,58,D 67,,,TRUE,CV,q,487
CVOE updated,9,1,1,59,A 79,,,FALSE,CV,p,482
CVOE updated,9,1,1,60,S 52,,,FALSE,CV,q,498
CVOE updated,9,1,1,61,U 16,,,TRUE,CV,p,526
CVOE updated,9,1,1,62,O 82,,,TRUE,CV,p,430
CVOE updated,9,1,1,63,H 87,,,TRUE,CV,q,516
CVOE updated,9,1,1,64,I 32,,,TRUE,CV,p,372
CVOE updated,9,1,1,65,U 37,,,FALSE,CV,p,455
CVOE updated,9,1,1,66,I 42,,,TRUE,CV,p,466
CVOE updated,9,1,1,67,D 65,,,TRUE,CV,q,400
CVOE updated,9,1,1,68,U 77,,,FALSE,CV,p,472
CVOE updated,9,1,1,69,E 12,,,TRUE,CV,p,462
CVOE updated,9,1,1,70,I 60,,,TRUE,CV,p,452
CVOE updated,9,1,1,71,J 36,,,FALSE,CV,q,423
CVOE updated,9,1,1,72,H 75,,,TRUE,CV,q,492
CVOE updated,9,1,1,73,I 50,,,TRUE,CV,p,535
CVOE updated,9,1,1,74,E 99,,,FALSE,CV,p,450
CVOE updated,9,1,1,75,A 86,,,TRUE,CV,p,437
CVOE updated,9,1,1,76,U 48,,,TRUE,CV,p,510
CVOE updated,9,1,1,77,E 01,,,FALSE,CV,p,484
CVOE updated,9,1,1,78,A 78,,,TRUE,CV,p,444
CVOE updated,9,1,1,79,P 60,,,FALSE,CV,q,468
CVOE updated,9,1,1,80,E 43,,,FALSE,CV,p,458
CVOE updated,9,1,1,81,D 69,,,TRUE,CV,q,413
CVOE updated,9,1,1,82,H 11,,,TRUE,CV,q,520
CVOE updated,9,1,1,83,P 43,,,TRUE,CV,q,1016
CVOE updated,9,1,1,84,O 67,,,FALSE,CV,p,484
CVOE updated,9,1,1,85,S 91,,,FALSE,CV,q,476
CVOE updated,9,1,1,86,J 68,,,TRUE,CV,q,444
CVOE updated,9,1,1,87,S 47,,,FALSE,CV,q,501
CVOE updated,9,1,1,88,I 81,,,TRUE,CV,p,499
CVOE updated,9,1,1,89,J 39,,,FALSE,CV,q,438
CVOE updated,9,1,1,90,A 11,,,TRUE,CV,p,526
CVOE updated,9,1,1,91,O 76,,,FALSE,CV,p,398
CVOE updated,9,1,1,92,A 62,,,FALSE,CV,p,415
CVOE updated,9,1,1,93,O 27,,,TRUE,CV,p,394
CVOE updated,9,1,1,94,E 66,,,FALSE,CV,p,466
CVOE updated,9,1,1,95,J 62,,,TRUE,CV,q,448
CVOE updated,9,1,1,96,H 72,,,TRUE,CV,q,507
CVOE updated,9,1,1,97,E 49,,,TRUE,CV,p,417
CVOE updated,9,1,1,98,D 52,,,TRUE,CV,q,460
CVOE updated,9,1,1,99,H 62,,,TRUE,CV,q,383
CVOE updated,9,1,1,100,I 11,,,TRUE,CV,p,372
CVOE updated,9,1,1,101,A 98,,,FALSE,CV,p,367
CVOE updated,9,1,1,102,H 29,,,FALSE,CV,q,426
CVOE updated,9,1,1,103,E 83,,,TRUE,CV,p,488
CVOE updated,9,1,1,104,D 43,,,FALSE,CV,q,459
CVOE updated,9,1,1,105,P 45,,,TRUE,CV,q,502
CVOE updated,9,1,1,106,J 17,,,TRUE,CV,q,420
CVOE updated,9,1,2,11,A 24,,,TRUE,OE,p,1538
CVOE updated,9,1,2,12,O 83,,,FALSE,OE,q,509
CVOE updated,9,1,2,13,H 55,,,TRUE,OE,q,502
CVOE updated,9,1,2,14,P 10,,,FALSE,OE,p,708
CVOE updated,9,1,2,15,D 30,,,FALSE,OE,p,409
CVOE updated,9,1,2,16,U 62,,,TRUE,OE,p,516
CVOE updated,9,1,2,17,P 95,,,TRUE,OE,q,421
CVOE updated,9,1,2,18,U 06,,,TRUE,OE,p,459
CVOE updated,9,1,2,19,E 75,,,FALSE,OE,q,446
CVOE updated,9,1,2,20,I 67,,,FALSE,OE,q,710
CVOE updated,9,1,2,21,S 13,,,TRUE,OE,q,524
CVOE updated,9,1,2,22,P 78,,,FALSE,OE,p,612
CVOE updated,9,1,2,23,I 15,,,FALSE,OE,q,503
CVOE updated,9,1,2,24,D 27,,,TRUE,OE,p,485
CVOE updated,9,1,2,25,O 94,,,TRUE,OE,p,701
CVOE updated,9,1,2,26,A 65,,,FALSE,OE,q,555
CVOE updated,9,1,2,27,I 42,,,TRUE,OE,p,628
CVOE updated,9,1,2,28,E 25,,,FALSE,OE,q,505
CVOE updated,9,1,2,29,H 49,,,TRUE,OE,q,687
CVOE updated,9,1,2,30,S 18,,,FALSE,OE,p,514
CVOE updated,9,1,2,31,H 51,,,TRUE,OE,q,563
CVOE updated,9,1,2,32,U 14,,,TRUE,OE,p,555
CVOE updated,9,1,2,33,E 02,,,TRUE,OE,p,707
CVOE updated,9,1,2,34,J 26,,,FALSE,OE,p,409
CVOE updated,9,1,2,35,D 24,,,FALSE,OE,p,380
CVOE updated,9,1,2,36,O 50,,,TRUE,OE,p,538
CVOE updated,9,1,2,37,U 16,,,TRUE,OE,p,565
CVOE updated,9,1,2,38,O 15,,,FALSE,OE,q,485
CVOE updated,9,1,2,39,D 32,,,FALSE,OE,p,726
CVOE updated,9,1,2,40,S 67,,,TRUE,OE,q,470
CVOE updated,9,1,2,41,J 74,,,FALSE,OE,p,524
CVOE updated,9,1,2,42,D 92,,,FALSE,OE,p,500
CVOE updated,9,1,2,43,A 65,,,FALSE,OE,q,546
CVOE updated,9,1,2,44,I 87,,,FALSE,OE,q,416
CVOE updated,9,1,2,45,H 61,,,TRUE,OE,q,523
CVOE updated,9,1,2,46,E 59,,,FALSE,OE,q,483
CVOE updated,9,1,2,47,I 33,,,FALSE,OE,q,548
CVOE updated,9,1,2,48,O 90,,,TRUE,OE,p,473
CVOE updated,9,1,2,49,U 51,,,FALSE,OE,q,535
CVOE updated,9,1,2,50,A 10,,,TRUE,OE,p,578
CVOE updated,9,1,2,51,E 50,,,TRUE,OE,p,493
CVOE updated,9,1,2,52,D 92,,,FALSE,OE,p,416
CVOE updated,9,1,2,53,E 60,,,TRUE,OE,p,403
CVOE updated,9,1,2,54,A 95,,,FALSE,OE,q,436
CVOE updated,9,1,2,55,E 64,,,TRUE,OE,p,828
CVOE updated,9,1,2,56,P 20,,,FALSE,OE,p,490
CVOE updated,9,1,2,57,S 06,,,FALSE,OE,p,397
CVOE updated,9,1,2,58,P 64,,,FALSE,OE,p,581
CVOE updated,9,1,2,59,U 70,,,TRUE,OE,p,611
CVOE updated,9,1,2,60,S 16,,,FALSE,OE,p,518
CVOE updated,9,1,2,61,E 35,,,FALSE,OE,q,599
CVOE updated,9,1,2,62,I 93,,,FALSE,OE,q,503
CVOE updated,9,1,2,63,D 63,,,TRUE,OE,q,429
CVOE updated,9,1,2,64,U 89,,,FALSE,OE,q,562
CVOE updated,9,1,2,65,E 91,,,FALSE,OE,q,555
CVOE updated,9,1,2,66,A 12,,,TRUE,OE,p,451
CVOE updated,9,1,2,67,P 56,,,FALSE,OE,p,606
CVOE updated,9,1,2,68,S 65,,,TRUE,OE,q,463
CVOE updated,9,1,2,69,P 07,,,TRUE,OE,p,620
CVOE updated,9,1,2,70,I 77,,,FALSE,OE,q,1666
CVOE updated,9,1,2,71,J 19,,,TRUE,OE,q,464
CVOE updated,9,1,2,72,O 59,,,FALSE,OE,q,430
CVOE updated,9,1,2,73,J 15,,,TRUE,OE,q,460
CVOE updated,9,1,2,74,I 89,,,FALSE,OE,q,391
CVOE updated,9,1,2,75,O 97,,,FALSE,OE,q,476
CVOE updated,9,1,2,76,A 92,,,TRUE,OE,p,589
CVOE updated,9,1,2,77,J 90,,,FALSE,OE,p,387
CVOE updated,9,1,2,78,H 65,,,TRUE,OE,q,496
CVOE updated,9,1,2,79,H 17,,,TRUE,OE,q,427
CVOE updated,9,1,2,80,S 26,,,FALSE,OE,p,529
CVOE updated,9,1,2,81,D 56,,,FALSE,OE,p,436
CVOE updated,9,1,2,82,I 91,,,FALSE,OE,q,620
CVOE updated,9,1,2,83,J 11,,,TRUE,OE,q,626
CVOE updated,9,1,2,84,O 28,,,TRUE,OE,p,536
CVOE updated,9,1,2,85,H 29,,,TRUE,OE,q,579
CVOE updated,9,1,2,86,J 25,,,TRUE,OE,q,574
CVOE updated,9,1,2,87,A 73,,,FALSE,OE,q,537
CVOE updated,9,1,2,88,J 63,,,TRUE,OE,q,396
CVOE updated,9,1,2,89,U 84,,,TRUE,OE,q,445
CVOE updated,9,1,2,90,A 58,,,TRUE,OE,p,605
CVOE updated,9,1,2,91,S 43,,,TRUE,OE,q,613
CVOE updated,9,1,2,92,H 54,,,FALSE,OE,p,601
CVOE updated,9,1,2,93,D 4,,,FALSE,OE,p,537
CVOE updated,9,1,2,94,J 75,,,TRUE,OE,q,540
CVOE updated,9,1,2,95,D 19,,,TRUE,OE,q,559
CVOE updated,9,1,2,96,J 38,,,FALSE,OE,p,952
CVOE updated,9,1,2,97,I 56,,,TRUE,OE,p,453
CVOE updated,9,1,2,98,P 87,,,TRUE,OE,q,504
CVOE updated,9,1,2,99,O 80,,,TRUE,OE,p,470
CVOE updated,9,1,2,100,U 60,,,TRUE,OE,p,404
CVOE updated,9,1,2,101,P 48,,,FALSE,OE,q,484
CVOE updated,9,1,2,102,H 64,,,FALSE,OE,p,565
CVOE updated,9,1,2,103,A 13,,,FALSE,OE,q,485
CVOE updated,9,1,2,104,H 68,,,FALSE,OE,p,597
CVOE updated,9,1,2,105,E 16,,,TRUE,OE,p,430
CVOE updated,9,1,2,106,S 71,,,TRUE,OE,q,468
CVOE updated,9,1,3,11,A 44,Letter,N,TRUE,CV,p,2527
CVOE updated,9,1,3,12,D 94,Letter,N,FALSE,CV,q,898
CVOE updated,9,1,3,13,E 75,Number,Y,FALSE,OE,q,1238
CVOE updated,9,1,3,14,H 81,Number,N,TRUE,OE,q,790
CVOE updated,9,1,3,15,I 64,Letter,Y,TRUE,CV,p,908
CVOE updated,9,1,3,16,J 54,Letter,N,FALSE,CV,q,794
CVOE updated,9,1,3,17,O 23,Number,Y,FALSE,OE,q,1051
CVOE updated,9,1,3,18,P 05,Number,N,TRUE,OE,q,782
CVOE updated,9,1,3,19,S 34,Letter,Y,FALSE,CV,q,956
CVOE updated,9,1,3,20,U 88,Letter,N,TRUE,CV,p,900
CVOE updated,9,1,3,21,A 70,Number,Y,TRUE,OE,p,1882
CVOE updated,9,1,3,22,D 12,Number,N,FALSE,OE,p,955
CVOE updated,9,1,3,23,E 79,Letter,Y,FALSE,CV,p,916
CVOE updated,9,1,3,24,H 72,Letter,N,FALSE,CV,q,876
CVOE updated,9,1,3,25,I 41,Number,Y,FALSE,OE,q,1141
CVOE updated,9,1,3,26,J 63,Number,N,TRUE,OE,q,875
CVOE updated,9,1,3,27,O 03,Letter,Y,FALSE,CV,p,1155
CVOE updated,9,1,3,28,P 75,Letter,N,TRUE,CV,q,820
CVOE updated,9,1,3,29,S 61,Number,Y,TRUE,OE,q,1343
CVOE updated,9,1,3,30,U 28,Number,N,TRUE,OE,p,797
CVOE updated,9,1,3,31,A 21,Letter,Y,FALSE,CV,p,1374
CVOE updated,9,1,3,32,D 18,Letter,N,FALSE,CV,q,1417
CVOE updated,9,1,3,33,E 35,Number,Y,FALSE,OE,q,2820
CVOE updated,9,1,3,34,H 62,Number,N,FALSE,OE,p,803
CVOE updated,9,1,3,35,I 82,Letter,Y,TRUE,CV,p,970
CVOE updated,9,1,3,36,J 78,Letter,N,FALSE,CV,q,1199
CVOE updated,9,1,3,37,O 12,Number,Y,TRUE,OE,p,1703
CVOE updated,9,1,3,38,P 13,Number,N,TRUE,OE,q,2326
CVOE updated,9,1,3,39,S 07,Letter,Y,TRUE,CV,q,1863
CVOE updated,9,1,3,40,U 36,Letter,N,TRUE,CV,p,1157
CVOE updated,9,1,3,41,A 96,Number,Y,TRUE,OE,p,974
CVOE updated,9,1,3,42,D 04,Number,N,FALSE,OE,p,713
CVOE updated,9,1,3,43,E 60,Letter,Y,TRUE,CV,p,823
CVOE updated,9,1,3,44,H 83,Letter,N,TRUE,CV,q,900
CVOE updated,9,1,3,45,I 64,Number,Y,TRUE,OE,p,754
CVOE updated,9,1,3,46,J 76,Number,N,FALSE,OE,p,907
CVOE updated,9,1,3,47,O 78,Letter,Y,TRUE,CV,p,1529
CVOE updated,9,1,3,48,P 09,Letter,N,TRUE,CV,q,1164
CVOE updated,9,1,3,49,S 72,Number,Y,FALSE,OE,p,1189
CVOE updated,9,1,3,50,U 47,Number,N,FALSE,OE,q,1442
CVOE updated,9,1,3,51,A 31,Letter,Y,FALSE,CV,p,931
CVOE updated,9,1,3,52,D 96,Letter,N,FALSE,CV,q,799
CVOE updated,9,1,3,53,E 40,Number,Y,TRUE,OE,p,1223
CVOE updated,9,1,3,54,H 79,Number,N,TRUE,OE,q,1229
CVOE updated,9,1,3,55,I 15,Letter,Y,FALSE,CV,p,1515
CVOE updated,9,1,3,56,J 07,Letter,N,TRUE,CV,q,1188
CVOE updated,9,1,3,57,O 61,Number,Y,FALSE,OE,q,970
CVOE updated,9,1,3,58,P 58,Number,N,FALSE,OE,p,1260
CVOE updated,9,1,3,59,S 37,Letter,Y,TRUE,CV,q,971
CVOE updated,9,1,3,60,U 61,Letter,N,FALSE,CV,p,1158
CVOE updated,9,1,3,61,A 17,Number,Y,FALSE,OE,q,1087
CVOE updated,9,1,3,62,D 85,Number,N,TRUE,OE,q,994
CVOE updated,9,1,3,63,E 20,Letter,Y,TRUE,CV,p,1211
CVOE updated,9,1,3,64,H 86,Letter,N,FALSE,CV,q,774
CVOE updated,9,1,3,65,I 21,Number,Y,FALSE,OE,q,1401
CVOE updated,9,1,3,66,J 29,Number,N,TRUE,OE,q,738
CVOE updated,9,1,3,67,O 13,Letter,Y,FALSE,CV,p,1173
CVOE updated,9,1,3,68,P 82,Letter,N,FALSE,CV,q,3137
CVOE updated,9,1,3,69,S 72,Number,Y,FALSE,OE,p,949
CVOE updated,9,1,3,70,U 84,Number,N,TRUE,OE,p,795
CVOE updated,9,1,3,71,A 49,Letter,Y,FALSE,CV,p,987
CVOE updated,9,1,3,72,D 91,Letter,N,TRUE,CV,q,1129
CVOE updated,9,1,3,73,E 99,Number,Y,FALSE,OE,q,996
CVOE updated,9,1,3,74,H 16,Number,N,FALSE,OE,p,1157
CVOE updated,9,1,3,75,I 45,Letter,Y,FALSE,CV,p,750
CVOE updated,9,1,3,76,J 70,Letter,N,FALSE,CV,q,1259
CVOE updated,9,1,3,77,O 22,Number,Y,TRUE,OE,p,743
CVOE updated,9,1,3,78,P 41,Number,N,TRUE,OE,q,844
CVOE updated,9,1,3,79,S 93,Letter,Y,TRUE,CV,q,1133
CVOE updated,9,1,3,80,U 70,Letter,N,TRUE,CV,p,1808
CVOE updated,9,1,3,81,A 42,Number,Y,TRUE,OE,p,860
CVOE updated,9,1,3,82,D 85,Number,N,TRUE,OE,q,935
CVOE updated,9,1,3,83,E 68,Letter,Y,TRUE,CV,p,794
CVOE updated,9,1,3,84,H 17,Letter,N,TRUE,CV,q,818
CVOE updated,9,1,3,85,I 70,Number,Y,TRUE,OE,p,758
CVOE updated,9,1,3,86,J 88,Number,N,FALSE,OE,p,998
CVOE updated,9,1,3,87,O 32,Letter,Y,TRUE,CV,p,1639
CVOE updated,9,1,3,88,P 95,Letter,N,TRUE,CV,q,688
CVOE updated,9,1,3,89,S 98,Number,Y,FALSE,OE,p,2483
CVOE updated,9,1,3,90,U 37,Number,N,FALSE,OE,q,1124
CVOE updated,9,1,3,91,A 56,Letter,Y,TRUE,CV,p,749
CVOE updated,9,1,3,92,D 57,Letter,N,TRUE,CV,q,947
CVOE updated,9,1,3,93,E 93,Number,Y,FALSE,OE,q,944
CVOE updated,9,1,3,94,H 27,Number,N,TRUE,OE,q,1078
CVOE updated,9,1,3,95,I 35,Letter,Y,FALSE,CV,p,807
CVOE updated,9,1,3,96,J 03,Letter,N,TRUE,CV,q,826
CVOE updated,9,1,3,97,O 28,Number,Y,TRUE,OE,p,736
CVOE updated,9,1,3,98,P 59,Number,N,TRUE,OE,q,971
CVOE updated,9,1,3,99,S 77,Letter,Y,TRUE,CV,q,1958
CVOE updated,9,1,3,100,U 05,Letter,N,FALSE,CV,p,783
CVOE updated,9,1,3,101,A 56,Number,Y,TRUE,OE,p,909
CVOE updated,9,1,3,102,D 01,Number,N,TRUE,OE,q,1203
CVOE updated,9,1,3,103,E 02,Letter,Y,TRUE,CV,p,1123
CVOE updated,9,1,3,104,H 68,Letter,N,FALSE,CV,q,988
CVOE updated,9,1,3,105,I 05,Number,Y,FALSE,OE,q,866
CVOE updated,9,1,3,106,J 55,Number,N,TRUE,OE,q,1200
CVOE updated,9,1,3,107,O 73,Letter,Y,FALSE,CV,p,1897
CVOE updated,9,1,3,108,P 41,Letter,N,TRUE,CV,q,2124
CVOE updated,9,1,3,109,S 92,Number,Y,FALSE,OE,p,1836
CVOE updated,9,1,3,110,U 34,Number,N,TRUE,OE,p,1574
CVOE updated,9,1,3,111,A 09,Letter,Y,FALSE,CV,p,905
CVOE updated,9,1,3,112,D 92,Letter,N,FALSE,CV,q,1000
CVOE updated,9,1,3,113,E 48,Number,Y,TRUE,OE,p,1976
CVOE updated,9,1,3,114,H 76,Number,N,FALSE,OE,p,836
CVOE updated,9,1,3,115,I 44,Letter,Y,TRUE,CV,p,812
CVOE updated,9,1,3,116,J 67,Letter,N,TRUE,CV,q,1022
CVOE updated,9,1,3,117,O 48,Number,Y,TRUE,OE,p,1068
CVOE updated,9,1,3,118,P 22,Number,N,FALSE,OE,p,1067
CVOE updated,9,1,3,119,S 86,Letter,Y,FALSE,CV,q,848
CVOE updated,9,1,3,120,U 35,Letter,N,FALSE,CV,p,1476
CVOE updated,9,1,3,121,A 91,Number,Y,FALSE,OE,q,836
CVOE updated,9,1,3,122,D 78,Number,N,FALSE,OE,p,1206
CVOE updated,9,1,3,123,E 91,Letter,Y,FALSE,CV,p,813
CVOE updated,9,1,3,124,H 54,Letter,N,FALSE,CV,q,753
CVOE updated,9,1,3,125,I 65,Number,Y,FALSE,OE,q,999
CVOE updated,9,1,3,126,J 52,Number,N,FALSE,OE,p,895
CVOE updated,9,1,3,127,O 19,Letter,Y,FALSE,CV,q,795
CVOE updated,9,1,3,128,P 48,Letter,N,FALSE,CV,q,2012
CVOE updated,9,1,3,129,S 45,Number,Y,TRUE,OE,q,1647
CVOE updated,9,1,3,130,U 26,Number,N,TRUE,OE,p,1811
CVOE updated,9,1,4,1,U 38,Number,N,TRUE,OE,p,2025
CVOE updated,9,1,4,2,P 73,Number,N,TRUE,OE,q,1150
CVOE updated,9,1,4,3,U 95,Letter,Y,FALSE,CV,p,764
CVOE updated,9,1,4,4,J 61,Number,Y,TRUE,OE,q,1037
CVOE updated,9,1,4,5,D 51,Number,N,TRUE,OE,q,806
CVOE updated,9,1,4,6,S 28,Number,N,FALSE,OE,p,943
CVOE updated,9,1,4,7,A 56,Letter,Y,TRUE,CV,p,1036
CVOE updated,9,1,4,8,H 78,Letter,N,FALSE,CV,q,1108
CVOE updated,9,1,4,9,P 92,Letter,N,FALSE,CV,q,1306
CVOE updated,9,1,4,10,E 05,Number,Y,FALSE,OE,q,849
CVOE updated,9,1,4,11,P 57,Letter,Y,TRUE,CV,q,868
CVOE updated,9,1,4,12,D 88,Number,Y,FALSE,OE,p,1146
CVOE updated,9,1,4,13,O 89,Letter,Y,FALSE,CV,p,1032
CVOE updated,9,1,4,14,U 43,Number,Y,FALSE,OE,q,909
CVOE updated,9,1,4,15,H 10,Number,N,FALSE,OE,p,1540
CVOE updated,9,1,4,16,S 07,Letter,Y,TRUE,CV,q,873
CVOE updated,9,1,4,17,J 10,Letter,N,FALSE,CV,q,1379
CVOE updated,9,1,4,18,H 54,Number,Y,FALSE,OE,p,798
CVOE updated,9,1,4,19,E 99,Number,N,FALSE,OE,q,927
CVOE updated,9,1,4,20,J 36,Letter,Y,FALSE,CV,q,1098
CVOE updated,9,1,4,21,I 94,Letter,N,TRUE,CV,p,869
CVOE updated,9,1,4,22,A 82,Letter,N,TRUE,CV,p,690
CVOE updated,9,1,4,23,H 79,Number,Y,TRUE,OE,q,942
CVOE updated,9,1,4,24,J 60,Number,N,FALSE,OE,p,1036
CVOE updated,9,1,4,25,S 28,Letter,Y,FALSE,CV,q,916
CVOE updated,9,1,4,26,P 11,Number,Y,TRUE,OE,q,900
CVOE updated,9,1,4,27,D 39,Number,N,TRUE,OE,q,954
CVOE updated,9,1,4,28,E 90,Number,N,TRUE,OE,p,867
CVOE updated,9,1,4,29,I 38,Number,N,TRUE,OE,p,1186
CVOE updated,9,1,4,30,S 35,Letter,Y,TRUE,CV,q,1168
CVOE updated,9,1,4,31,D 41,Number,Y,TRUE,OE,q,1178
CVOE updated,9,1,4,32,E 06,Number,N,TRUE,OE,p,862
CVOE updated,9,1,4,33,A 27,Number,N,FALSE,OE,q,1036
CVOE updated,9,1,4,34,U 95,Letter,Y,FALSE,CV,p,900
CVOE updated,9,1,4,35,A 53,Letter,N,FALSE,CV,p,2211
CVOE updated,9,1,4,36,E 43,Letter,N,FALSE,CV,p,1333
CVOE updated,9,1,4,37,P 05,Number,Y,TRUE,OE,q,1009
CVOE updated,9,1,4,38,O 19,Letter,Y,FALSE,CV,p,1476
CVOE updated,9,1,4,39,I 96,Number,Y,TRUE,OE,p,997
CVOE updated,9,1,4,40,A 88,Number,N,TRUE,OE,p,813
CVOE updated,9,1,4,41,I 67,Number,N,FALSE,OE,q,760
CVOE updated,9,1,4,42,D 40,Number,N,FALSE,OE,p,665
CVOE updated,9,1,4,43,P 79,Letter,Y,TRUE,CV,q,952
CVOE updated,9,1,4,44,U 24,Number,Y,TRUE,OE,p,717
CVOE updated,9,1,4,45,P 74,Number,N,FALSE,OE,p,1102
CVOE updated,9,1,4,46,E 70,Number,N,TRUE,OE,p,660
CVOE updated,9,1,4,47,S 27,Number,N,TRUE,OE,q,774
CVOE updated,9,1,4,48,E 54,Letter,Y,TRUE,CV,p,777
CVOE updated,9,1,4,49,A 53,Letter,N,FALSE,CV,p,789
CVOE updated,9,1,4,50,P 34,Letter,N,FALSE,CV,q,770
CVOE updated,9,1,4,51,D 74,Number,Y,FALSE,OE,p,1381
CVOE updated,9,1,4,52,A 03,Letter,Y,FALSE,CV,p,1373
CVOE updated,9,1,4,53,E 24,Number,Y,TRUE,OE,p,759
CVOE updated,9,1,4,54,I 58,Letter,Y,TRUE,CV,p,1336
CVOE updated,9,1,4,55,D 77,Number,Y,TRUE,OE,q,1683
CVOE updated,9,1,4,56,S 75,Number,N,TRUE,OE,q,908
CVOE updated,9,1,4,57,I 20,Letter,Y,TRUE,CV,p,833
CVOE updated,9,1,4,58,J 52,Letter,N,FALSE,CV,q,803
CVOE updated,9,1,4,59,A 38,Number,Y,TRUE,OE,p,1172
CVOE updated,9,1,4,60,I 60,Letter,Y,TRUE,CV,p,807
CVOE updated,9,1,4,61,S 51,Number,Y,TRUE,OE,q,1191
CVOE updated,9,1,4,62,D 63,Letter,Y,TRUE,CV,q,1516
CVOE updated,9,1,4,63,U 27,Letter,N,FALSE,CV,p,773
CVOE updated,9,1,4,64,J 77,Letter,N,TRUE,CV,q,704
CVOE updated,9,1,4,65,O 15,Number,Y,FALSE,OE,q,935
CVOE updated,9,1,4,66,J 20,Letter,Y,FALSE,CV,q,897
CVOE updated,9,1,4,67,U 97,Number,Y,FALSE,OE,q,860
CVOE updated,9,1,4,68,H 03,Number,N,TRUE,OE,q,1067
CVOE updated,9,1,4,69,O 04,Letter,Y,TRUE,CV,p,1089
CVOE updated,9,1,4,70,E 10,Letter,N,TRUE,CV,p,845
CVOE updated,9,1,4,71,I 52,Letter,N,TRUE,CV,p,700
CVOE updated,9,1,4,72,H 81,Number,Y,TRUE,OE,q,946
CVOE updated,9,1,4,73,I 41,Number,N,FALSE,OE,q,1104
CVOE updated,9,1,4,74,U 19,Letter,Y,FALSE,CV,p,1278
CVOE updated,9,1,4,75,O 17,Number,Y,FALSE,OE,q,902
CVOE updated,9,1,4,76,A 10,Number,N,TRUE,OE,p,1300
CVOE updated,9,1,4,77,P 93,Letter,Y,TRUE,CV,q,963
CVOE updated,9,1,4,78,E 59,Letter,N,FALSE,CV,p,708
CVOE updated,9,1,4,79,O 53,Letter,N,FALSE,CV,p,809
CVOE updated,9,1,4,80,A 96,Letter,N,TRUE,CV,p,797
CVOE updated,9,1,4,81,H 36,Letter,Y,FALSE,CV,q,717
CVOE updated,9,1,4,82,A 63,Letter,N,FALSE,CV,p,725
CVOE updated,9,1,4,83,I 38,Letter,N,TRUE,CV,p,654
CVOE updated,9,1,4,84,O 51,Number,Y,FALSE,OE,q,1256
CVOE updated,9,1,4,85,J 26,Number,N,FALSE,OE,p,1268
CVOE updated,9,1,4,86,S 34,Letter,Y,FALSE,CV,q,1171
CVOE updated,9,1,4,87,U 85,Number,Y,FALSE,OE,p,734
CVOE updated,9,1,4,88,J 77,Number,N,TRUE,OE,q,1641
CVOE updated,9,1,4,89,I 73,Letter,Y,FALSE,CV,q,970
CVOE updated,9,1,4,90,H 46,Number,Y,FALSE,OE,p,1621
CVOE updated,9,1,4,91,D 04,Number,N,FALSE,OE,p,1570
CVOE updated,9,1,4,92,P 72,Letter,Y,FALSE,CV,q,1686
CVOE updated,9,1,4,93,D 99,Number,Y,TRUE,OE,q,897
CVOE updated,9,1,4,94,U 25,Letter,Y,FALSE,CV,p,885
CVOE updated,9,1,4,95,O 32,Letter,N,TRUE,CV,p,901
CVOE updated,9,1,4,96,E 80,Letter,N,TRUE,CV,p,764
CVOE updated,9,1,4,97,O 84,Number,Y,TRUE,OE,p,876
CVOE updated,9,1,4,98,A 78,Number,N,TRUE,OE,p,892
CVOE updated,9,1,4,99,S 05,Number,N,TRUE,OE,q,776
CVOE updated,9,1,4,100,U 35,Letter,Y,FALSE,CV,p,778
CVOE updated,9,1,4,101,H 14,Letter,N,FALSE,CV,q,1351
CVOE updated,9,1,4,102,U 15,Number,Y,FALSE,OE,q,940
CVOE updated,9,1,4,103,E 36,Letter,Y,TRUE,CV,p,1107
CVOE updated,9,1,4,104,P 70,Letter,N,FALSE,CV,q,1287
CVOE updated,9,1,4,105,O 44,Number,Y,TRUE,OE,p,772
CVOE updated,9,1,4,106,S 41,Letter,Y,TRUE,CV,q,1158
CVOE updated,9,1,4,107,D 83,Letter,N,TRUE,CV,q,887
CVOE updated,9,1,4,108,J 39,Letter,N,TRUE,CV,q,699
CVOE updated,9,1,4,109,S 22,Number,Y,FALSE,OE,p,773
CVOE updated,9,1,4,110,D 89,Letter,Y,TRUE,CV,q,1689
CVOE updated,9,1,4,111,P 87,Letter,N,TRUE,CV,q,749
CVOE updated,9,1,4,112,H 42,Letter,N,FALSE,CV,q,705
CVOE updated,9,1,4,113,S 49,Letter,N,TRUE,CV,q,1159
CVOE updated,9,1,4,114,J 20,Number,Y,FALSE,OE,p,712
CVOE updated,9,1,4,115,O 19,Letter,Y,FALSE,CV,p,1478
CVOE updated,9,1,4,116,H 50,Letter,N,FALSE,CV,q,998
CVOE updated,9,1,4,117,I 68,Number,Y,TRUE,OE,p,767
CVOE updated,9,1,4,118,J 72,Number,N,FALSE,OE,p,1170
CVOE updated,9,1,4,119,O 21,Number,N,FALSE,OE,q,1623
CVOE updated,9,1,4,120,H 22,Number,N,FALSE,OE,p,1604
CVOE_B,2,1,1,11,A 24,,,TRUE,OE,p,1260
CVOE_B,2,1,1,12,O 83,,,FALSE,OE,q,551
CVOE_B,2,1,1,13,H 55,,,TRUE,OE,q,700
CVOE_B,2,1,1,14,P 10,,,FALSE,OE,p,594
CVOE_B,2,1,1,15,D 30,,,FALSE,OE,p,746
CVOE_B,2,1,1,16,U 62,,,TRUE,OE,p,776
CVOE_B,2,1,1,17,P 95,,,TRUE,OE,q,619
CVOE_B,2,1,1,18,U 06,,,TRUE,OE,p,575
CVOE_B,2,1,1,19,E 75,,,FALSE,OE,q,585
CVOE_B,2,1,1,20,I 67,,,FALSE,OE,q,679
CVOE_B,2,1,1,21,S 13,,,TRUE,OE,q,655
CVOE_B,2,1,1,22,P 78,,,FALSE,OE,p,740
CVOE_B,2,1,1,23,I 15,,,FALSE,OE,q,614
CVOE_B,2,1,1,24,D 27,,,TRUE,OE,q,833
CVOE_B,2,1,1,25,O 94,,,TRUE,OE,p,665
CVOE_B,2,1,1,26,A 65,,,FALSE,OE,q,623
CVOE_B,2,1,1,27,I 42,,,TRUE,OE,p,742
CVOE_B,2,1,1,28,E 25,,,FALSE,OE,q,603
CVOE_B,2,1,1,29,H 49,,,TRUE,OE,p,563
CVOE_B,2,1,1,30,S 18,,,FALSE,OE,p,811
CVOE_B,2,1,1,31,H 51,,,TRUE,OE,q,599
CVOE_B,2,1,1,32,U 14,,,TRUE,OE,p,728
CVOE_B,2,1,1,33,E 02,,,TRUE,OE,p,634
CVOE_B,2,1,1,34,J 26,,,FALSE,OE,p,595
CVOE_B,2,1,1,35,D 24,,,FALSE,OE,p,643
CVOE_B,2,1,1,36,O 50,,,TRUE,OE,p,620
CVOE_B,2,1,1,37,U 16,,,TRUE,OE,p,577
CVOE_B,2,1,1,38,O 15,,,FALSE,OE,q,580
CVOE_B,2,1,1,39,D 32,,,FALSE,OE,p,635
CVOE_B,2,1,1,40,S 67,,,TRUE,OE,q,675
CVOE_B,2,1,1,41,J 74,,,FALSE,OE,p,748
CVOE_B,2,1,1,42,D 92,,,FALSE,OE,p,681
CVOE_B,2,1,1,43,A 65,,,FALSE,OE,q,553
CVOE_B,2,1,1,44,I 87,,,FALSE,OE,q,658
CVOE_B,2,1,1,45,H 61,,,TRUE,OE,q,565
CVOE_B,2,1,1,46,E 59,,,FALSE,OE,q,685
CVOE_B,2,1,1,47,I 33,,,FALSE,OE,q,542
CVOE_B,2,1,1,48,O 90,,,TRUE,OE,p,539
CVOE_B,2,1,1,49,U 51,,,FALSE,OE,q,463
CVOE_B,2,1,1,50,A 10,,,TRUE,OE,q,612
CVOE_B,2,1,1,51,E 50,,,TRUE,OE,p,591
CVOE_B,2,1,1,52,D 92,,,FALSE,OE,p,581
CVOE_B,2,1,1,53,E 60,,,TRUE,OE,p,611
CVOE_B,2,1,1,54,A 95,,,FALSE,OE,q,4030
CVOE_B,2,1,1,55,E 64,,,TRUE,OE,p,677
CVOE_B,2,1,1,56,P 20,,,FALSE,OE,p,749
CVOE_B,2,1,1,57,S 06,,,FALSE,OE,p,635
CVOE_B,2,1,1,58,P 64,,,FALSE,OE,p,620
CVOE_B,2,1,1,59,U 70,,,TRUE,OE,p,617
CVOE_B,2,1,1,60,S 16,,,FALSE,OE,p,829
CVOE_B,2,1,1,61,E 35,,,FALSE,OE,q,674
CVOE_B,2,1,1,62,I 93,,,FALSE,OE,q,699
CVOE_B,2,1,1,63,D 63,,,TRUE,OE,q,663
CVOE_B,2,1,1,64,U 89,,,FALSE,OE,q,740
CVOE_B,2,1,1,65,E 91,,,FALSE,OE,q,715
CVOE_B,2,1,1,66,A 12,,,TRUE,OE,p,754
CVOE_B,2,1,1,67,P 56,,,FALSE,OE,p,627
CVOE_B,2,1,1,68,S 65,,,TRUE,OE,q,705
CVOE_B,2,1,1,69,P 07,,,TRUE,OE,q,782
CVOE_B,2,1,1,70,I 77,,,FALSE,OE,q,868
CVOE_B,2,1,1,71,J 19,,,TRUE,OE,q,618
CVOE_B,2,1,1,72,O 59,,,FALSE,OE,q,573
CVOE_B,2,1,1,73,J 15,,,TRUE,OE,q,576
CVOE_B,2,1,1,74,I 89,,,FALSE,OE,q,555
CVOE_B,2,1,1,75,O 97,,,FALSE,OE,q,1181
CVOE_B,2,1,1,76,A 92,,,TRUE,OE,p,570
CVOE_B,2,1,1,77,J 90,,,FALSE,OE,p,1254
CVOE_B,2,1,1,78,H 65,,,TRUE,OE,q,568
CVOE_B,2,1,1,79,H 17,,,TRUE,OE,q,1147
CVOE_B,2,1,1,80,S 26,,,FALSE,OE,p,769
CVOE_B,2,1,1,81,D 56,,,FALSE,OE,p,1172
CVOE_B,2,1,1,82,I 91,,,FALSE,OE,q,839
CVOE_B,2,1,1,83,J 11,,,TRUE,OE,q,937
CVOE_B,2,1,1,84,O 28,,,TRUE,OE,p,811
CVOE_B,2,1,1,85,H 29,,,TRUE,OE,q,718
CVOE_B,2,1,1,86,J 25,,,TRUE,OE,q,807
CVOE_B,2,1,1,87,A 73,,,FALSE,OE,q,730
CVOE_B,2,1,1,88,J 63,,,TRUE,OE,q,685
CVOE_B,2,1,1,89,U 84,,,TRUE,OE,p,702
CVOE_B,2,1,1,90,A 58,,,TRUE,OE,p,675
CVOE_B,2,1,1,91,S 43,,,TRUE,OE,q,925
CVOE_B,2,1,1,92,H 54,,,FALSE,OE,p,684
CVOE_B,2,1,1,93,D 4,,,FALSE,OE,p,661
CVOE_B,2,1,1,94,J 75,,,TRUE,OE,q,579
CVOE_B,2,1,1,95,D 19,,,TRUE,OE,q,830
CVOE_B,2,1,1,96,J 38,,,FALSE,OE,p,652
CVOE_B,2,1,1,97,I 56,,,TRUE,OE,p,648
CVOE_B,2,1,1,98,P 87,,,TRUE,OE,q,651
CVOE_B,2,1,1,99,O 80,,,TRUE,OE,p,589
CVOE_B,2,1,1,100,U 60,,,TRUE,OE,p,588
CVOE_B,2,1,1,101,P 48,,,FALSE,OE,p,672
CVOE_B,2,1,1,102,H 64,,,FALSE,OE,p,606
CVOE_B,2,1,1,103,A 13,,,FALSE,OE,q,530
CVOE_B,2,1,1,104,H 68,,,FALSE,OE,p,460
CVOE_B,2,1,1,105,E 16,,,TRUE,OE,p,450
CVOE_B,2,1,1,106,S 71,,,TRUE,OE,q,581
CVOE_B,2,1,2,11,A 71,,,FALSE,CV,p,1063
CVOE_B,2,1,2,12,I 66,,,TRUE,CV,p,574
CVOE_B,2,1,2,13,S 30,,,FALSE,CV,q,481
CVOE_B,2,1,2,14,D 20,,,FALSE,CV,q,577
CVOE_B,2,1,2,15,I 31,,,FALSE,CV,p,621
CVOE_B,2,1,2,16,P 16,,,FALSE,CV,q,706
CVOE_B,2,1,2,17,A 49,,,FALSE,CV,p,583
CVOE_B,2,1,2,18,O 64,,,TRUE,CV,p,1661
CVOE_B,2,1,2,19,D 02,,,FALSE,CV,q,580
CVOE_B,2,1,2,20,P 81,,,TRUE,CV,q,1006
CVOE_B,2,1,2,21,J 58,,,FALSE,CV,q,537
CVOE_B,2,1,2,22,A 22,,,TRUE,CV,p,572
CVOE_B,2,1,2,23,J 72,,,FALSE,CV,q,505
CVOE_B,2,1,2,24,P 91,,,TRUE,CV,q,485
CVOE_B,2,1,2,25,E 19,,,FALSE,CV,p,414
CVOE_B,2,1,2,26,I 30,,,TRUE,CV,p,585
CVOE_B,2,1,2,27,D 91,,,TRUE,CV,q,414
CVOE_B,2,1,2,28,O 48,,,TRUE,CV,p,401
CVOE_B,2,1,2,29,A 89,,,FALSE,CV,p,578
CVOE_B,2,1,2,30,U 11,,,FALSE,CV,p,606
CVOE_B,2,1,2,31,I 76,,,TRUE,CV,p,485
CVOE_B,2,1,2,32,U 89,,,FALSE,CV,p,431
CVOE_B,2,1,2,33,D 63,,,TRUE,CV,q,443
CVOE_B,2,1,2,34,H 70,,,FALSE,CV,q,564
CVOE_B,2,1,2,35,D 48,,,FALSE,CV,q,508
CVOE_B,2,1,2,36,P 56,,,FALSE,CV,q,498
CVOE_B,2,1,2,37,O 77,,,FALSE,CV,p,445
CVOE_B,2,1,2,38,P 42,,,FALSE,CV,q,461
CVOE_B,2,1,2,39,H 22,,,FALSE,CV,q,443
CVOE_B,2,1,2,40,E 42,,,TRUE,CV,p,491
CVOE_B,2,1,2,41,J 28,,,FALSE,CV,q,663
CVOE_B,2,1,2,42,E 95,,,FALSE,CV,p,692
CVOE_B,2,1,2,43,S 63,,,TRUE,CV,q,559
CVOE_B,2,1,2,44,H 50,,,FALSE,CV,q,480
CVOE_B,2,1,2,45,S 33,,,TRUE,CV,q,408
CVOE_B,2,1,2,46,P 57,,,TRUE,CV,q,459
CVOE_B,2,1,2,47,E 23,,,FALSE,CV,p,543
CVOE_B,2,1,2,48,S 61,,,TRUE,CV,q,549
CVOE_B,2,1,2,49,U 67,,,FALSE,CV,p,602
CVOE_B,2,1,2,50,H 32,,,FALSE,CV,q,467
CVOE_B,2,1,2,51,U 50,,,TRUE,CV,p,593
CVOE_B,2,1,2,52,O 49,,,FALSE,CV,p,542
CVOE_B,2,1,2,53,U 32,,,TRUE,CV,p,516
CVOE_B,2,1,2,54,J 78,,,FALSE,CV,q,477
CVOE_B,2,1,2,55,S 54,,,FALSE,CV,q,500
CVOE_B,2,1,2,56,J 27,,,TRUE,CV,q,491
CVOE_B,2,1,2,57,S 06,,,FALSE,CV,q,437
CVOE_B,2,1,2,58,D 67,,,TRUE,CV,q,421
CVOE_B,2,1,2,59,A 79,,,FALSE,CV,p,563
CVOE_B,2,1,2,60,S 52,,,FALSE,CV,q,556
CVOE_B,2,1,2,61,U 16,,,TRUE,CV,p,581
CVOE_B,2,1,2,62,O 82,,,TRUE,CV,p,577
CVOE_B,2,1,2,63,H 87,,,TRUE,CV,q,582
CVOE_B,2,1,2,64,I 32,,,TRUE,CV,p,610
CVOE_B,2,1,2,65,U 37,,,FALSE,CV,q,598
CVOE_B,2,1,2,66,I 42,,,TRUE,CV,p,743
CVOE_B,2,1,2,67,D 65,,,TRUE,CV,q,517
CVOE_B,2,1,2,68,U 77,,,FALSE,CV,q,549
CVOE_B,2,1,2,69,E 12,,,TRUE,CV,p,530
CVOE_B,2,1,2,70,I 60,,,TRUE,CV,p,605
CVOE_B,2,1,2,71,J 36,,,FALSE,CV,q,542
CVOE_B,2,1,2,72,H 75,,,TRUE,CV,q,724
CVOE_B,2,1,2,73,I 50,,,TRUE,CV,p,588
CVOE_B,2,1,2,74,E 99,,,FALSE,CV,p,706
CVOE_B,2,1,2,75,A 86,,,TRUE,CV,p,527
CVOE_B,2,1,2,76,U 48,,,TRUE,CV,p,522
CVOE_B,2,1,2,77,E 01,,,FALSE,CV,p,468
CVOE_B,2,1,2,78,A 78,,,TRUE,CV,p,449
CVOE_B,2,1,2,79,P 60,,,FALSE,CV,q,476
CVOE_B,2,1,2,80,E 43,,,FALSE,CV,p,780
CVOE_B,2,1,2,81,D 69,,,TRUE,CV,q,538
CVOE_B,2,1,2,82,H 11,,,TRUE,CV,q,605
CVOE_B,2,1,2,83,P 43,,,TRUE,CV,q,830
CVOE_B,2,1,2,84,O 67,,,FALSE,CV,p,508
CVOE_B,2,1,2,85,S 91,,,FALSE,CV,q,497
CVOE_B,2,1,2,86,J 68,,,TRUE,CV,q,588
CVOE_B,2,1,2,87,S 47,,,FALSE,CV,q,497
CVOE_B,2,1,2,88,I 81,,,TRUE,CV,p,548
CVOE_B,2,1,2,89,J 39,,,FALSE,CV,q,443
CVOE_B,2,1,2,90,A 11,,,TRUE,CV,p,564
CVOE_B,2,1,2,91,O 76,,,FALSE,CV,p,540
CVOE_B,2,1,2,92,A 62,,,FALSE,CV,p,543
CVOE_B,2,1,2,93,O 27,,,TRUE,CV,p,541
CVOE_B,2,1,2,94,E 66,,,FALSE,CV,p,481
CVOE_B,2,1,2,95,J 62,,,TRUE,CV,q,459
CVOE_B,2,1,2,96,H 72,,,TRUE,CV,q,565
CVOE_B,2,1,2,97,E 49,,,TRUE,CV,p,750
CVOE_B,2,1,2,98,D 52,,,TRUE,CV,q,1780
CVOE_B,2,1,2,99,H 62,,,TRUE,CV,q,482
CVOE_B,2,1,2,100,I 11,,,TRUE,CV,p,507
CVOE_B,2,1,2,101,A 98,,,FALSE,CV,p,472
CVOE_B,2,1,2,102,H 29,,,FALSE,CV,q,557
CVOE_B,2,1,2,103,E 83,,,TRUE,CV,p,502
CVOE_B,2,1,2,104,D 43,,,FALSE,CV,q,548
CVOE_B,2,1,2,105,P 45,,,TRUE,CV,q,634
CVOE_B,2,1,2,106,J 17,,,TRUE,CV,q,481
CVOE_B,2,1,3,11,U 38,Number,N,TRUE,OE,p,1772
CVOE_B,2,1,3,12,P 73,Number,N,TRUE,OE,q,935
CVOE_B,2,1,3,13,U 95,Letter,Y,FALSE,CV,p,1003
CVOE_B,2,1,3,14,J 61,Number,Y,TRUE,OE,q,988
CVOE_B,2,1,3,15,D 51,Number,N,TRUE,OE,q,1058
CVOE_B,2,1,3,16,S 28,Number,N,FALSE,OE,p,981
CVOE_B,2,1,3,17,A 56,Letter,Y,TRUE,CV,p,1755
CVOE_B,2,1,3,18,H 78,Letter,N,FALSE,CV,q,908
CVOE_B,2,1,3,19,P 92,Letter,N,FALSE,CV,q,866
CVOE_B,2,1,3,20,E 05,Number,Y,FALSE,OE,q,999
CVOE_B,2,1,3,21,P 57,Letter,Y,TRUE,CV,q,872
CVOE_B,2,1,3,22,D 88,Number,Y,FALSE,OE,p,878
CVOE_B,2,1,3,23,O 89,Letter,Y,FALSE,CV,q,862
CVOE_B,2,1,3,24,U 43,Number,Y,FALSE,OE,q,1420
CVOE_B,2,1,3,25,H 10,Number,N,FALSE,OE,p,2434
CVOE_B,2,1,3,26,S 07,Letter,Y,TRUE,CV,q,987
CVOE_B,2,1,3,27,J 10,Letter,N,FALSE,CV,q,721
CVOE_B,2,1,3,28,H 54,Number,Y,FALSE,OE,p,930
CVOE_B,2,1,3,29,E 99,Number,N,FALSE,OE,q,845
CVOE_B,2,1,3,30,J 36,Letter,Y,FALSE,CV,q,1182
CVOE_B,2,1,3,31,I 94,Letter,N,TRUE,CV,p,756
CVOE_B,2,1,3,32,A 82,Letter,N,TRUE,CV,p,876
CVOE_B,2,1,3,33,H 79,Number,Y,TRUE,OE,q,925
CVOE_B,2,1,3,34,J 60,Number,N,FALSE,OE,p,901
CVOE_B,2,1,3,35,S 28,Letter,Y,FALSE,CV,q,714
CVOE_B,2,1,3,36,P 11,Number,Y,TRUE,OE,q,1555
CVOE_B,2,1,3,37,D 39,Number,N,TRUE,OE,q,1004
CVOE_B,2,1,3,38,E 90,Number,N,TRUE,OE,p,877
CVOE_B,2,1,3,39,I 38,Number,N,TRUE,OE,p,1757
CVOE_B,2,1,3,40,S 35,Letter,Y,TRUE,CV,q,878
CVOE_B,2,1,3,41,D 41,Number,Y,TRUE,OE,q,1487
CVOE_B,2,1,3,42,E 06,Number,N,TRUE,OE,p,1050
CVOE_B,2,1,3,43,A 27,Number,N,FALSE,OE,q,861
CVOE_B,2,1,3,44,U 95,Letter,Y,FALSE,CV,p,1291
CVOE_B,2,1,3,45,A 53,Letter,N,FALSE,CV,p,1055
CVOE_B,2,1,3,46,E 43,Letter,N,FALSE,CV,p,2042
CVOE_B,2,1,3,47,P 05,Number,Y,TRUE,OE,q,1035
CVOE_B,2,1,3,48,O 19,Letter,Y,FALSE,CV,p,2716
CVOE_B,2,1,3,49,I 96,Number,Y,TRUE,OE,p,1229
CVOE_B,2,1,3,50,A 88,Number,N,TRUE,OE,p,1267
CVOE_B,2,1,3,51,I 67,Number,N,FALSE,OE,q,953
CVOE_B,2,1,3,52,D 40,Number,N,FALSE,OE,p,1318
CVOE_B,2,1,3,53,P 79,Letter,Y,TRUE,CV,q,1151
CVOE_B,2,1,3,54,U 24,Number,Y,TRUE,OE,p,885
CVOE_B,2,1,3,55,P 74,Number,N,FALSE,OE,p,766
CVOE_B,2,1,3,56,E 70,Number,N,TRUE,OE,p,758
CVOE_B,2,1,3,57,S 27,Number,N,TRUE,OE,q,887
CVOE_B,2,1,3,58,E 54,Letter,Y,TRUE,CV,p,863
CVOE_B,2,1,3,59,A 53,Letter,N,FALSE,CV,p,733
CVOE_B,2,1,3,60,P 34,Letter,N,FALSE,CV,q,648
CVOE_B,2,1,3,61,D 74,Number,Y,FALSE,OE,p,1524
CVOE_B,2,1,3,62,A 03,Letter,Y,FALSE,CV,p,1460
CVOE_B,2,1,3,63,E 24,Number,Y,TRUE,OE,p,1146
CVOE_B,2,1,3,64,I 58,Letter,Y,TRUE,CV,p,976
CVOE_B,2,1,3,65,D 77,Number,Y,TRUE,OE,q,1260
CVOE_B,2,1,3,66,S 75,Number,N,TRUE,OE,q,919
CVOE_B,2,1,3,67,I 20,Letter,Y,TRUE,CV,p,1503
CVOE_B,2,1,3,68,J 52,Letter,N,FALSE,CV,q,1582
CVOE_B,2,1,3,69,A 38,Number,Y,TRUE,OE,p,1308
CVOE_B,2,1,3,70,I 60,Letter,Y,TRUE,CV,p,1138
CVOE_B,2,1,3,71,S 51,Number,Y,TRUE,OE,q,909
CVOE_B,2,1,3,72,D 63,Letter,Y,TRUE,CV,q,787
CVOE_B,2,1,3,73,U 27,Letter,N,FALSE,CV,p,793
CVOE_B,2,1,3,74,J 77,Letter,N,TRUE,CV,q,679
CVOE_B,2,1,3,75,O 15,Number,Y,FALSE,OE,q,1063
CVOE_B,2,1,3,76,J 20,Letter,Y,FALSE,CV,q,869
CVOE_B,2,1,3,77,U 97,Number,Y,FALSE,OE,q,843
CVOE_B,2,1,3,78,H 03,Number,N,TRUE,OE,q,907
CVOE_B,2,1,3,79,O 04,Letter,Y,TRUE,CV,p,1073
CVOE_B,2,1,3,80,E 10,Letter,N,TRUE,CV,p,855
CVOE_B,2,1,3,81,I 52,Letter,N,TRUE,CV,p,650
CVOE_B,2,1,3,82,H 81,Number,Y,TRUE,OE,q,1013
CVOE_B,2,1,3,83,I 41,Number,N,FALSE,OE,q,1233
CVOE_B,2,1,3,84,U 19,Letter,Y,FALSE,CV,p,903
CVOE_B,2,1,3,85,O 17,Number,Y,FALSE,OE,q,965
CVOE_B,2,1,3,86,A 10,Number,N,TRUE,OE,p,749
CVOE_B,2,1,3,87,P 93,Letter,Y,TRUE,CV,q,723
CVOE_B,2,1,3,88,E 59,Letter,N,FALSE,CV,p,1259
CVOE_B,2,1,3,89,O 53,Letter,N,FALSE,CV,p,751
CVOE_B,2,1,3,90,A 96,Letter,N,TRUE,CV,p,957
CVOE_B,2,1,3,91,H 36,Letter,Y,FALSE,CV,q,733
CVOE_B,2,1,3,92,A 63,Letter,N,FALSE,CV,p,736
CVOE_B,2,1,3,93,I 38,Letter,N,TRUE,CV,p,891
CVOE_B,2,1,3,94,O 51,Number,Y,FALSE,OE,q,1183
CVOE_B,2,1,3,95,J 26,Number,N,FALSE,OE,p,965
CVOE_B,2,1,3,96,S 34,Letter,Y,FALSE,CV,q,645
CVOE_B,2,1,3,97,U 85,Number,Y,FALSE,OE,q,1198
CVOE_B,2,1,3,98,J 77,Number,N,TRUE,OE,q,998
CVOE_B,2,1,3,99,I 73,Letter,Y,FALSE,CV,p,767
CVOE_B,2,1,3,100,H 46,Number,Y,FALSE,OE,p,1410
CVOE_B,2,1,3,101,D 04,Number,N,FALSE,OE,p,1461
CVOE_B,2,1,3,102,P 72,Letter,Y,FALSE,CV,q,852
CVOE_B,2,1,3,103,D 99,Number,Y,TRUE,OE,q,1391
CVOE_B,2,1,3,104,U 25,Letter,Y,FALSE,CV,p,805
CVOE_B,2,1,3,105,O 32,Letter,N,TRUE,CV,p,1397
CVOE_B,2,1,3,106,E 80,Letter,N,TRUE,CV,p,806
CVOE_B,2,1,3,107,O 84,Number,Y,TRUE,OE,q,774
CVOE_B,2,1,3,108,A 78,Number,N,TRUE,OE,p,1098
CVOE_B,2,1,3,109,S 05,Number,N,TRUE,OE,q,997
CVOE_B,2,1,3,110,U 35,Letter,Y,FALSE,CV,p,998
CVOE_B,2,1,3,111,H 14,Letter,N,FALSE,CV,q,1094
CVOE_B,2,1,3,112,U 15,Number,Y,FALSE,OE,q,1257
CVOE_B,2,1,3,113,E 36,Letter,Y,TRUE,CV,p,853
CVOE_B,2,1,3,114,P 70,Letter,N,FALSE,CV,q,776
CVOE_B,2,1,3,115,O 44,Number,Y,TRUE,OE,q,819
CVOE_B,2,1,3,116,S 41,Letter,Y,TRUE,CV,q,1118
CVOE_B,2,1,3,117,D 83,Letter,N,TRUE,CV,q,807
CVOE_B,2,1,3,118,J 39,Letter,N,TRUE,CV,q,658
CVOE_B,2,1,3,119,S 22,Number,Y,FALSE,OE,p,1189
CVOE_B,2,1,3,120,D 89,Letter,Y,TRUE,CV,q,659
CVOE_B,2,1,3,121,P 87,Letter,N,TRUE,CV,q,798
CVOE_B,2,1,3,122,H 42,Letter,N,FALSE,CV,q,639
CVOE_B,2,1,3,123,S 49,Letter,N,TRUE,CV,q,559
CVOE_B,2,1,3,124,J 20,Number,Y,FALSE,OE,p,1016
CVOE_B,2,1,3,125,O 19,Letter,Y,FALSE,CV,p,1395
CVOE_B,2,1,3,126,H 50,Letter,N,FALSE,CV,q,772
CVOE_B,2,1,3,127,I 68,Number,Y,TRUE,OE,p,911
CVOE_B,2,1,3,128,J 72,Number,N,FALSE,OE,p,1013
CVOE_B,2,1,3,129,O 21,Number,N,FALSE,OE,q,816
CVOE_B,2,1,3,130,H 22,Number,N,FALSE,OE,p,779
CVOE_B,2,1,4,1,A 44,Letter,N,TRUE,CV,p,1479
CVOE_B,2,1,4,2,D 94,Letter,N,FALSE,CV,q,847
CVOE_B,2,1,4,3,E 75,Number,Y,FALSE,OE,q,1059
CVOE_B,2,1,4,4,H 81,Number,N,TRUE,OE,q,870
CVOE_B,2,1,4,5,I 64,Letter,Y,TRUE,CV,p,1044
CVOE_B,2,1,4,6,J 54,Letter,N,FALSE,CV,q,668
CVOE_B,2,1,4,7,O 23,Number,Y,FALSE,OE,q,946
CVOE_B,2,1,4,8,P 05,Number,N,TRUE,OE,q,1184
CVOE_B,2,1,4,9,S 34,Letter,Y,FALSE,CV,q,1086
CVOE_B,2,1,4,10,U 88,Letter,N,TRUE,CV,p,1055
CVOE_B,2,1,4,11,A 70,Number,Y,TRUE,OE,p,1346
CVOE_B,2,1,4,12,D 12,Number,N,FALSE,OE,p,1064
CVOE_B,2,1,4,13,E 79,Letter,Y,FALSE,CV,p,990
CVOE_B,2,1,4,14,H 72,Letter,N,FALSE,CV,q,860
CVOE_B,2,1,4,15,I 41,Number,Y,FALSE,OE,q,1143
CVOE_B,2,1,4,16,J 63,Number,N,TRUE,OE,q,1957
CVOE_B,2,1,4,17,O 03,Letter,Y,FALSE,CV,p,838
CVOE_B,2,1,4,18,P 75,Letter,N,TRUE,CV,q,886
CVOE_B,2,1,4,19,S 61,Number,Y,TRUE,OE,q,959
CVOE_B,2,1,4,20,U 28,Number,N,TRUE,OE,p,888
CVOE_B,2,1,4,21,A 21,Letter,Y,FALSE,CV,p,723
CVOE_B,2,1,4,22,D 18,Letter,N,FALSE,CV,p,1411
CVOE_B,2,1,4,23,E 35,Number,Y,FALSE,OE,q,1055
CVOE_B,2,1,4,24,H 62,Number,N,FALSE,OE,p,738
CVOE_B,2,1,4,25,I 82,Letter,Y,TRUE,CV,p,901
CVOE_B,2,1,4,26,J 78,Letter,N,FALSE,CV,q,1107
CVOE_B,2,1,4,27,O 12,Number,Y,TRUE,OE,p,865
CVOE_B,2,1,4,28,P 13,Number,N,TRUE,OE,q,791
CVOE_B,2,1,4,29,S 07,Letter,Y,TRUE,CV,q,1077
CVOE_B,2,1,4,30,U 36,Letter,N,TRUE,CV,p,693
CVOE_B,2,1,4,31,A 96,Number,Y,TRUE,OE,p,808
CVOE_B,2,1,4,32,D 04,Number,N,FALSE,OE,p,715
CVOE_B,2,1,4,33,E 60,Letter,Y,TRUE,CV,p,820
CVOE_B,2,1,4,34,H 83,Letter,N,TRUE,CV,q,727
CVOE_B,2,1,4,35,I 64,Number,Y,TRUE,OE,p,698
CVOE_B,2,1,4,36,J 76,Number,N,FALSE,OE,p,965
CVOE_B,2,1,4,37,O 78,Letter,Y,TRUE,CV,p,830
CVOE_B,2,1,4,38,P 09,Letter,N,TRUE,CV,q,708
CVOE_B,2,1,4,39,S 72,Number,Y,FALSE,OE,p,706
CVOE_B,2,1,4,40,U 47,Number,N,FALSE,OE,q,695
CVOE_B,2,1,4,41,A 31,Letter,Y,FALSE,CV,p,826
CVOE_B,2,1,4,42,D 96,Letter,N,FALSE,CV,q,704
CVOE_B,2,1,4,43,E 40,Number,Y,TRUE,OE,p,926
CVOE_B,2,1,4,44,H 79,Number,N,TRUE,OE,q,903
CVOE_B,2,1,4,45,I 15,Letter,Y,FALSE,CV,p,781
CVOE_B,2,1,4,46,J 07,Letter,N,TRUE,CV,q,1066
CVOE_B,2,1,4,47,O 61,Number,Y,FALSE,OE,q,832
CVOE_B,2,1,4,48,P 58,Number,N,FALSE,OE,p,1326
CVOE_B,2,1,4,49,S 37,Letter,Y,TRUE,CV,q,879
CVOE_B,2,1,4,50,U 61,Letter,N,FALSE,CV,p,1191
CVOE_B,2,1,4,51,A 17,Number,Y,FALSE,OE,q,1277
CVOE_B,2,1,4,52,D 85,Number,N,TRUE,OE,q,902
CVOE_B,2,1,4,53,E 20,Letter,Y,TRUE,CV,p,1588
CVOE_B,2,1,4,54,H 86,Letter,N,FALSE,CV,q,698
CVOE_B,2,1,4,55,I 21,Number,Y,FALSE,OE,q,877
CVOE_B,2,1,4,56,J 29,Number,N,TRUE,OE,q,950
CVOE_B,2,1,4,57,O 13,Letter,Y,FALSE,CV,p,788
CVOE_B,2,1,4,58,P 82,Letter,N,FALSE,CV,q,729
CVOE_B,2,1,4,59,S 72,Number,Y,FALSE,OE,p,869
CVOE_B,2,1,4,60,U 84,Number,N,TRUE,OE,p,722
CVOE_B,2,1,4,61,A 49,Letter,Y,FALSE,CV,q,827
CVOE_B,2,1,4,62,D 91,Letter,N,TRUE,CV,q,1017
CVOE_B,2,1,4,63,E 99,Number,Y,FALSE,OE,q,1004
CVOE_B,2,1,4,64,H 16,Number,N,FALSE,OE,p,997
CVOE_B,2,1,4,65,I 45,Letter,Y,FALSE,CV,p,877
CVOE_B,2,1,4,66,J 70,Letter,N,FALSE,CV,q,814
CVOE_B,2,1,4,67,O 22,Number,Y,TRUE,OE,p,953
CVOE_B,2,1,4,68,P 41,Number,N,TRUE,OE,q,999
CVOE_B,2,1,4,69,S 93,Letter,Y,TRUE,CV,q,695
CVOE_B,2,1,4,70,U 70,Letter,N,TRUE,CV,p,763
CVOE_B,2,1,4,71,A 42,Number,Y,TRUE,OE,p,1003
CVOE_B,2,1,4,72,D 85,Number,N,TRUE,OE,q,756
CVOE_B,2,1,4,73,E 68,Letter,Y,TRUE,CV,p,780
CVOE_B,2,1,4,74,H 17,Letter,N,TRUE,CV,q,775
CVOE_B,2,1,4,75,I 70,Number,Y,TRUE,OE,p,874
CVOE_B,2,1,4,76,J 88,Number,N,FALSE,OE,p,1299
CVOE_B,2,1,4,77,O 32,Letter,Y,TRUE,CV,p,1118
CVOE_B,2,1,4,78,P 95,Letter,N,TRUE,CV,q,855
CVOE_B,2,1,4,79,S 98,Number,Y,FALSE,OE,p,714
CVOE_B,2,1,4,80,U 37,Number,N,FALSE,OE,q,859
CVOE_B,2,1,4,81,A 56,Letter,Y,TRUE,CV,p,870
CVOE_B,2,1,4,82,D 57,Letter,N,TRUE,CV,q,900
CVOE_B,2,1,4,83,E 93,Number,Y,FALSE,OE,q,887
CVOE_B,2,1,4,84,H 27,Number,N,TRUE,OE,q,754
CVOE_B,2,1,4,85,I 35,Letter,Y,FALSE,CV,p,1235
CVOE_B,2,1,4,86,J 03,Letter,N,TRUE,CV,q,771
CVOE_B,2,1,4,87,O 28,Number,Y,TRUE,OE,p,718
CVOE_B,2,1,4,88,P 59,Number,N,TRUE,OE,q,847
CVOE_B,2,1,4,89,S 77,Letter,Y,TRUE,CV,q,706
CVOE_B,2,1,4,90,U 05,Letter,N,FALSE,CV,p,1008
CVOE_B,2,1,4,91,A 56,Number,Y,TRUE,OE,p,891
CVOE_B,2,1,4,92,D 01,Number,N,TRUE,OE,q,750
CVOE_B,2,1,4,93,E 02,Letter,Y,TRUE,CV,p,1164
CVOE_B,2,1,4,94,H 68,Letter,N,FALSE,CV,q,957
CVOE_B,2,1,4,95,I 05,Number,Y,FALSE,OE,q,1213
CVOE_B,2,1,4,96,J 55,Number,N,TRUE,OE,p,1001
CVOE_B,2,1,4,97,O 73,Letter,Y,FALSE,CV,p,1137
CVOE_B,2,1,4,98,P 41,Letter,N,TRUE,CV,q,852
CVOE_B,2,1,4,99,S 92,Number,Y,FALSE,OE,p,712
CVOE_B,2,1,4,100,U 34,Number,N,TRUE,OE,p,701
CVOE_B,2,1,4,101,A 09,Letter,Y,FALSE,CV,p,739
CVOE_B,2,1,4,102,D 92,Letter,N,FALSE,CV,q,734
CVOE_B,2,1,4,103,E 48,Number,Y,TRUE,OE,p,794
CVOE_B,2,1,4,104,H 76,Number,N,FALSE,OE,p,695
CVOE_B,2,1,4,105,I 44,Letter,Y,TRUE,CV,p,875
CVOE_B,2,1,4,106,J 67,Letter,N,TRUE,CV,q,1187
CVOE_B,2,1,4,107,O 48,Number,Y,TRUE,OE,p,777
CVOE_B,2,1,4,108,P 22,Number,N,FALSE,OE,p,3868
CVOE_B,2,1,4,109,S 86,Letter,Y,FALSE,CV,p,955
CVOE_B,2,1,4,110,U 35,Letter,N,FALSE,CV,p,964
CVOE_B,2,1,4,111,A 91,Number,Y,FALSE,OE,q,932
CVOE_B,2,1,4,112,D 78,Number,N,FALSE,OE,p,760
CVOE_B,2,1,4,113,E 91,Letter,Y,FALSE,CV,p,1096
CVOE_B,2,1,4,114,H 54,Letter,N,FALSE,CV,q,819
CVOE_B,2,1,4,115,I 65,Number,Y,FALSE,OE,q,822
CVOE_B,2,1,4,116,J 52,Number,N,FALSE,OE,p,836
CVOE_B,2,1,4,117,O 19,Letter,Y,FALSE,CV,p,1053
CVOE_B,2,1,4,118,P 48,Letter,N,FALSE,CV,q,704
CVOE_B,2,1,4,119,S 45,Number,Y,TRUE,OE,q,774
CVOE_B,2,1,4,120,U 26,Number,N,TRUE,OE,p,833
CVOE_B,10,1,1,11,A 24,,,TRUE,OE,q,189
CVOE_B,10,1,1,12,O 83,,,FALSE,OE,q,2930
CVOE_B,10,1,1,13,H 55,,,TRUE,OE,q,1758
CVOE_B,10,1,1,14,P 10,,,FALSE,OE,p,3031
CVOE_B,10,1,1,15,D 30,,,FALSE,OE,p,814
CVOE_B,10,1,1,16,U 62,,,TRUE,OE,p,753
CVOE_B,10,1,1,17,P 95,,,TRUE,OE,q,1271
CVOE_B,10,1,1,18,U 06,,,TRUE,OE,p,1621
CVOE_B,10,1,1,19,E 75,,,FALSE,OE,q,2779
CVOE_B,10,1,1,20,I 67,,,FALSE,OE,q,2255
CVOE_B,10,1,1,21,S 13,,,TRUE,OE,q,1227
CVOE_B,10,1,1,22,P 78,,,FALSE,OE,p,2528
CVOE_B,10,1,1,23,I 15,,,FALSE,OE,q,2588
CVOE_B,10,1,1,24,D 27,,,TRUE,OE,q,1827
CVOE_B,10,1,1,25,O 94,,,TRUE,OE,p,1089
CVOE_B,10,1,1,26,A 65,,,FALSE,OE,q,1037
CVOE_B,10,1,1,27,I 42,,,TRUE,OE,p,1709
CVOE_B,10,1,1,28,E 25,,,FALSE,OE,q,1500
CVOE_B,10,1,1,29,H 49,,,TRUE,OE,q,1239
CVOE_B,10,1,1,30,S 18,,,FALSE,OE,p,1664
CVOE_B,10,1,1,31,H 51,,,TRUE,OE,q,1062
CVOE_B,10,1,1,32,U 14,,,TRUE,OE,p,924
CVOE_B,10,1,1,33,E 02,,,TRUE,OE,p,2565
CVOE_B,10,1,1,34,J 26,,,FALSE,OE,p,1374
CVOE_B,10,1,1,35,D 24,,,FALSE,OE,p,897
CVOE_B,10,1,1,36,O 50,,,TRUE,OE,p,6605
CVOE_B,10,1,1,37,U 16,,,TRUE,OE,p,4759
CVOE_B,10,1,1,38,O 15,,,FALSE,OE,q,3497
CVOE_B,10,1,1,39,D 32,,,FALSE,OE,p,821
CVOE_B,10,1,1,40,S 67,,,TRUE,OE,q,2307
CVOE_B,10,1,1,41,J 74,,,FALSE,OE,p,714
CVOE_B,10,1,1,42,D 92,,,FALSE,OE,p,927
CVOE_B,10,1,1,43,A 65,,,FALSE,OE,q,2360
CVOE_B,10,1,1,44,I 87,,,FALSE,OE,q,833
CVOE_B,10,1,1,45,H 61,,,TRUE,OE,q,991
CVOE_B,10,1,1,46,E 59,,,FALSE,OE,q,1325
CVOE_B,10,1,1,47,I 33,,,FALSE,OE,q,1542
CVOE_B,10,1,1,48,O 90,,,TRUE,OE,p,2852
CVOE_B,10,1,1,49,U 51,,,FALSE,OE,q,1416
CVOE_B,10,1,1,50,A 10,,,TRUE,OE,p,1579
CVOE_B,10,1,1,51,E 50,,,TRUE,OE,p,550
CVOE_B,10,1,1,52,D 92,,,FALSE,OE,p,2828
CVOE_B,10,1,1,53,E 60,,,TRUE,OE,p,3395
CVOE_B,10,1,1,54,A 95,,,FALSE,OE,q,4388
CVOE_B,10,1,1,55,E 64,,,TRUE,OE,p,1019
CVOE_B,10,1,1,56,P 20,,,FALSE,OE,p,3399
CVOE_B,10,1,1,57,S 06,,,FALSE,OE,p,1280
CVOE_B,10,1,1,58,P 64,,,FALSE,OE,p,673
CVOE_B,10,1,1,59,U 70,,,TRUE,OE,p,647
CVOE_B,10,1,1,60,S 16,,,FALSE,OE,p,1159
CVOE_B,10,1,1,61,E 35,,,FALSE,OE,q,1368
CVOE_B,10,1,1,62,I 93,,,FALSE,OE,q,1451
CVOE_B,10,1,1,63,D 63,,,TRUE,OE,q,527
CVOE_B,10,1,1,64,U 89,,,FALSE,OE,q,1463
CVOE_B,10,1,1,65,E 91,,,FALSE,OE,q,1245
CVOE_B,10,1,1,66,A 12,,,TRUE,OE,p,10598
CVOE_B,10,1,1,67,P 56,,,FALSE,OE,p,866
CVOE_B,10,1,1,68,S 65,,,TRUE,OE,q,888
CVOE_B,10,1,1,69,P 07,,,TRUE,OE,q,1315
CVOE_B,10,1,1,70,I 77,,,FALSE,OE,q,620
CVOE_B,10,1,1,71,J 19,,,TRUE,OE,q,671
CVOE_B,10,1,1,72,O 59,,,FALSE,OE,q,637
CVOE_B,10,1,1,73,J 15,,,TRUE,OE,q,629
CVOE_B,10,1,1,74,I 89,,,FALSE,OE,q,715
CVOE_B,10,1,1,75,O 97,,,FALSE,OE,q,579
CVOE_B,10,1,1,76,A 92,,,TRUE,OE,p,934
CVOE_B,10,1,1,77,J 90,,,FALSE,OE,p,2554
CVOE_B,10,1,1,78,H 65,,,TRUE,OE,q,1552
CVOE_B,10,1,1,79,H 17,,,TRUE,OE,q,686
CVOE_B,10,1,1,80,S 26,,,FALSE,OE,p,3775
CVOE_B,10,1,1,81,D 56,,,FALSE,OE,p,579
CVOE_B,10,1,1,82,I 91,,,FALSE,OE,q,950
CVOE_B,10,1,1,83,J 11,,,TRUE,OE,q,708
CVOE_B,10,1,1,84,O 28,,,TRUE,OE,p,1426
CVOE_B,10,1,1,85,H 29,,,TRUE,OE,q,1008
CVOE_B,10,1,1,86,J 25,,,TRUE,OE,q,1459
CVOE_B,10,1,1,87,A 73,,,FALSE,OE,q,1078
CVOE_B,10,1,1,88,J 63,,,TRUE,OE,q,631
CVOE_B,10,1,1,89,U 84,,,TRUE,OE,p,1389
CVOE_B,10,1,1,90,A 58,,,TRUE,OE,p,979
CVOE_B,10,1,1,91,S 43,,,TRUE,OE,q,1838
CVOE_B,10,1,1,92,H 54,,,FALSE,OE,p,759
CVOE_B,10,1,1,93,D 4,,,FALSE,OE,p,3199
CVOE_B,10,1,1,94,J 75,,,TRUE,OE,q,1609
CVOE_B,10,1,1,95,D 19,,,TRUE,OE,q,1156
CVOE_B,10,1,1,96,J 38,,,FALSE,OE,p,1157
CVOE_B,10,1,1,97,I 56,,,TRUE,OE,p,766
CVOE_B,10,1,1,98,P 87,,,TRUE,OE,q,1230
CVOE_B,10,1,1,99,O 80,,,TRUE,OE,p,1380
CVOE_B,10,1,1,100,U 60,,,TRUE,OE,p,559
CVOE_B,10,1,1,101,P 48,,,FALSE,OE,p,4136
CVOE_B,10,1,1,102,H 64,,,FALSE,OE,p,684
CVOE_B,10,1,1,103,A 13,,,FALSE,OE,q,3189
CVOE_B,10,1,1,104,H 68,,,FALSE,OE,p,1908
CVOE_B,10,1,1,105,E 16,,,TRUE,OE,p,4114
CVOE_B,10,1,1,106,S 71,,,TRUE,OE,q,4204
CVOE_B,10,1,2,11,A 71,,,FALSE,CV,p,1228
CVOE_B,10,1,2,12,I 66,,,TRUE,CV,p,930
CVOE_B,10,1,2,13,S 30,,,FALSE,CV,q,950
CVOE_B,10,1,2,14,D 20,,,FALSE,CV,q,643
CVOE_B,10,1,2,15,I 31,,,FALSE,CV,p,732
CVOE_B,10,1,2,16,P 16,,,FALSE,CV,q,1455
CVOE_B,10,1,2,17,A 49,,,FALSE,CV,p,658
CVOE_B,10,1,2,18,O 64,,,TRUE,CV,p,758
CVOE_B,10,1,2,19,D 02,,,FALSE,CV,q,694
CVOE_B,10,1,2,20,P 81,,,TRUE,CV,p,577
CVOE_B,10,1,2,21,J 58,,,FALSE,CV,q,1428
CVOE_B,10,1,2,22,A 22,,,TRUE,CV,p,610
CVOE_B,10,1,2,23,J 72,,,FALSE,CV,q,533
CVOE_B,10,1,2,24,P 91,,,TRUE,CV,q,696
CVOE_B,10,1,2,25,E 19,,,FALSE,CV,p,780
CVOE_B,10,1,2,26,I 30,,,TRUE,CV,p,1223
CVOE_B,10,1,2,27,D 91,,,TRUE,CV,q,557
CVOE_B,10,1,2,28,O 48,,,TRUE,CV,p,1861
CVOE_B,10,1,2,29,A 89,,,FALSE,CV,p,651
CVOE_B,10,1,2,30,U 11,,,FALSE,CV,p,822
CVOE_B,10,1,2,31,I 76,,,TRUE,CV,p,652
CVOE_B,10,1,2,32,U 89,,,FALSE,CV,p,815
CVOE_B,10,1,2,33,D 63,,,TRUE,CV,q,603
CVOE_B,10,1,2,34,H 70,,,FALSE,CV,q,731
CVOE_B,10,1,2,35,D 48,,,FALSE,CV,q,630
CVOE_B,10,1,2,36,P 56,,,FALSE,CV,q,404
CVOE_B,10,1,2,37,O 77,,,FALSE,CV,p,948
CVOE_B,10,1,2,38,P 42,,,FALSE,CV,q,674
CVOE_B,10,1,2,39,H 22,,,FALSE,CV,q,1475
CVOE_B,10,1,2,40,E 42,,,TRUE,CV,p,555
CVOE_B,10,1,2,41,J 28,,,FALSE,CV,q,460
CVOE_B,10,1,2,42,E 95,,,FALSE,CV,p,679
CVOE_B,10,1,2,43,S 63,,,TRUE,CV,q,335
CVOE_B,10,1,2,44,H 50,,,FALSE,CV,q,554
CVOE_B,10,1,2,45,S 33,,,TRUE,CV,q,579
CVOE_B,10,1,2,46,P 57,,,TRUE,CV,q,574
CVOE_B,10,1,2,47,E 23,,,FALSE,CV,p,601
CVOE_B,10,1,2,48,S 61,,,TRUE,CV,q,697
CVOE_B,10,1,2,49,U 67,,,FALSE,CV,p,700
CVOE_B,10,1,2,50,H 32,,,FALSE,CV,q,600
CVOE_B,10,1,2,51,U 50,,,TRUE,CV,p,336
CVOE_B,10,1,2,52,O 49,,,FALSE,CV,p,1555
CVOE_B,10,1,2,53,U 32,,,TRUE,CV,p,580
CVOE_B,10,1,2,54,J 78,,,FALSE,CV,q,623
CVOE_B,10,1,2,55,S 54,,,FALSE,CV,q,613
CVOE_B,10,1,2,56,J 27,,,TRUE,CV,q,608
CVOE_B,10,1,2,57,S 06,,,FALSE,CV,q,1251
CVOE_B,10,1,2,58,D 67,,,TRUE,CV,q,1094
CVOE_B,10,1,2,59,A 79,,,FALSE,CV,p,513
CVOE_B,10,1,2,60,S 52,,,FALSE,CV,q,535
CVOE_B,10,1,2,61,U 16,,,TRUE,CV,p,1610
CVOE_B,10,1,2,62,O 82,,,TRUE,CV,p,1174
CVOE_B,10,1,2,63,H 87,,,TRUE,CV,q,801
CVOE_B,10,1,2,64,I 32,,,TRUE,CV,p,489
CVOE_B,10,1,2,65,U 37,,,FALSE,CV,p,541
CVOE_B,10,1,2,66,I 42,,,TRUE,CV,p,522
CVOE_B,10,1,2,67,D 65,,,TRUE,CV,q,939
CVOE_B,10,1,2,68,U 77,,,FALSE,CV,p,2078
CVOE_B,10,1,2,69,E 12,,,TRUE,CV,p,439
CVOE_B,10,1,2,70,I 60,,,TRUE,CV,p,375
CVOE_B,10,1,2,71,J 36,,,FALSE,CV,q,586
CVOE_B,10,1,2,72,H 75,,,TRUE,CV,q,640
CVOE_B,10,1,2,73,I 50,,,TRUE,CV,p,664
CVOE_B,10,1,2,74,E 99,,,FALSE,CV,p,2926
CVOE_B,10,1,2,75,A 86,,,TRUE,CV,p,720
CVOE_B,10,1,2,76,U 48,,,TRUE,CV,p,752
CVOE_B,10,1,2,77,E 01,,,FALSE,CV,p,574
CVOE_B,10,1,2,78,A 78,,,TRUE,CV,p,409
CVOE_B,10,1,2,79,P 60,,,FALSE,CV,q,588
CVOE_B,10,1,2,80,E 43,,,FALSE,CV,p,538
CVOE_B,10,1,2,81,D 69,,,TRUE,CV,q,1317
CVOE_B,10,1,2,82,H 11,,,TRUE,CV,q,637
CVOE_B,10,1,2,83,P 43,,,TRUE,CV,q,534
CVOE_B,10,1,2,84,O 67,,,FALSE,CV,p,433
CVOE_B,10,1,2,85,S 91,,,FALSE,CV,q,599
CVOE_B,10,1,2,86,J 68,,,TRUE,CV,q,647
CVOE_B,10,1,2,87,S 47,,,FALSE,CV,q,903
CVOE_B,10,1,2,88,I 81,,,TRUE,CV,p,629
CVOE_B,10,1,2,89,J 39,,,FALSE,CV,q,2691
CVOE_B,10,1,2,90,A 11,,,TRUE,CV,p,359
CVOE_B,10,1,2,91,O 76,,,FALSE,CV,p,343
CVOE_B,10,1,2,92,A 62,,,FALSE,CV,p,629
CVOE_B,10,1,2,93,O 27,,,TRUE,CV,p,1347
CVOE_B,10,1,2,94,E 66,,,FALSE,CV,p,1249
CVOE_B,10,1,2,95,J 62,,,TRUE,CV,q,476
CVOE_B,10,1,2,96,H 72,,,TRUE,CV,q,549
CVOE_B,10,1,2,97,E 49,,,TRUE,CV,p,762
CVOE_B,10,1,2,98,D 52,,,TRUE,CV,q,747
CVOE_B,10,1,2,99,H 62,,,TRUE,CV,q,673
CVOE_B,10,1,2,100,I 11,,,TRUE,CV,p,1182
CVOE_B,10,1,2,101,A 98,,,FALSE,CV,p,580
CVOE_B,10,1,2,102,H 29,,,FALSE,CV,q,631
CVOE_B,10,1,2,103,E 83,,,TRUE,CV,p,437
CVOE_B,10,1,2,104,D 43,,,FALSE,CV,q,694
CVOE_B,10,1,2,105,P 45,,,TRUE,CV,q,2057
CVOE_B,10,1,2,106,J 17,,,TRUE,CV,q,524
CVOE_B,10,1,3,11,U 38,Number,N,TRUE,OE,p,4924
CVOE_B,10,1,3,12,P 73,Number,N,TRUE,OE,q,1638
CVOE_B,10,1,3,13,U 95,Letter,Y,FALSE,CV,p,3606
CVOE_B,10,1,3,14,J 61,Number,Y,TRUE,OE,q,2091
CVOE_B,10,1,3,15,D 51,Number,N,TRUE,OE,q,1198
CVOE_B,10,1,3,16,S 28,Number,N,FALSE,OE,p,3023
CVOE_B,10,1,3,17,A 56,Letter,Y,TRUE,CV,p,1142
CVOE_B,10,1,3,18,H 78,Letter,N,FALSE,CV,q,4284
CVOE_B,10,1,3,19,P 92,Letter,N,FALSE,CV,q,1181
CVOE_B,10,1,3,20,E 05,Number,Y,FALSE,OE,q,4787
CVOE_B,10,1,3,21,P 57,Letter,Y,TRUE,CV,q,3403
CVOE_B,10,1,3,22,D 88,Number,Y,FALSE,OE,p,3748
CVOE_B,10,1,3,23,O 89,Letter,Y,FALSE,CV,p,2171
CVOE_B,10,1,3,24,U 43,Number,Y,FALSE,OE,q,6303
CVOE_B,10,1,3,25,H 10,Number,N,FALSE,OE,p,4648
CVOE_B,10,1,3,26,S 07,Letter,Y,TRUE,CV,q,5339
CVOE_B,10,1,3,27,J 10,Letter,N,FALSE,CV,q,5636
CVOE_B,10,1,3,28,H 54,Number,Y,FALSE,OE,p,2574
CVOE_B,10,1,3,29,E 99,Number,N,FALSE,OE,q,2729
CVOE_B,10,1,3,30,J 36,Letter,Y,FALSE,CV,q,2766
CVOE_B,10,1,3,31,I 94,Letter,N,TRUE,CV,p,2630
CVOE_B,10,1,3,32,A 82,Letter,N,TRUE,CV,p,2350
CVOE_B,10,1,3,33,H 79,Number,Y,TRUE,OE,q,7404
CVOE_B,10,1,3,34,J 60,Number,N,FALSE,OE,p,3559
CVOE_B,10,1,3,35,S 28,Letter,Y,FALSE,CV,q,1809
CVOE_B,10,1,3,36,P 11,Number,Y,TRUE,OE,q,3020
CVOE_B,10,1,3,37,D 39,Number,N,TRUE,OE,q,3267
CVOE_B,10,1,3,38,E 90,Number,N,TRUE,OE,p,1538
CVOE_B,10,1,3,39,I 38,Number,N,TRUE,OE,p,1685
CVOE_B,10,1,3,40,S 35,Letter,Y,TRUE,CV,q,910
CVOE_B,10,1,3,41,D 41,Number,Y,TRUE,OE,q,6460
CVOE_B,10,1,3,42,E 06,Number,N,TRUE,OE,p,2476
CVOE_B,10,1,3,43,A 27,Number,N,FALSE,OE,q,3317
CVOE_B,10,1,3,44,U 95,Letter,Y,FALSE,CV,p,1638
CVOE_B,10,1,3,45,A 53,Letter,N,FALSE,CV,p,1207
CVOE_B,10,1,3,46,E 43,Letter,N,FALSE,CV,p,1104
CVOE_B,10,1,3,47,P 05,Number,Y,TRUE,OE,q,2934
CVOE_B,10,1,3,48,O 19,Letter,Y,FALSE,CV,q,3506
CVOE_B,10,1,3,49,I 96,Number,Y,TRUE,OE,p,4377
CVOE_B,10,1,3,50,A 88,Number,N,TRUE,OE,p,1389
CVOE_B,10,1,3,51,I 67,Number,N,FALSE,OE,q,1963
CVOE_B,10,1,3,52,D 40,Number,N,FALSE,OE,p,3484
CVOE_B,10,1,3,53,P 79,Letter,Y,TRUE,CV,q,2238
CVOE_B,10,1,3,54,U 24,Number,Y,TRUE,OE,p,5039
CVOE_B,10,1,3,55,P 74,Number,N,FALSE,OE,p,2281
CVOE_B,10,1,3,56,E 70,Number,N,TRUE,OE,p,1626
CVOE_B,10,1,3,57,S 27,Number,N,TRUE,OE,q,1488
CVOE_B,10,1,3,58,E 54,Letter,Y,TRUE,CV,p,1196
CVOE_B,10,1,3,59,A 53,Letter,N,FALSE,CV,p,3132
CVOE_B,10,1,3,60,P 34,Letter,N,FALSE,CV,q,7544
CVOE_B,10,1,3,61,D 74,Number,Y,FALSE,OE,p,1977
CVOE_B,10,1,3,62,A 03,Letter,Y,FALSE,CV,p,2148
CVOE_B,10,1,3,63,E 24,Number,Y,TRUE,OE,p,3907
CVOE_B,10,1,3,64,I 58,Letter,Y,TRUE,CV,p,2426
CVOE_B,10,1,3,65,D 77,Number,Y,TRUE,OE,q,2152
CVOE_B,10,1,3,66,S 75,Number,N,TRUE,OE,q,4526
CVOE_B,10,1,3,67,I 20,Letter,Y,TRUE,CV,p,1379
CVOE_B,10,1,3,68,J 52,Letter,N,FALSE,CV,q,4478
CVOE_B,10,1,3,69,A 38,Number,Y,TRUE,OE,p,2472
CVOE_B,10,1,3,70,I 60,Letter,Y,TRUE,CV,p,4311
CVOE_B,10,1,3,71,S 51,Number,Y,TRUE,OE,q,4302
CVOE_B,10,1,3,72,D 63,Letter,Y,TRUE,CV,q,3637
CVOE_B,10,1,3,73,U 27,Letter,N,FALSE,CV,p,2343
CVOE_B,10,1,3,74,J 77,Letter,N,TRUE,CV,q,877
CVOE_B,10,1,3,75,O 15,Number,Y,FALSE,OE,q,4622
CVOE_B,10,1,3,76,J 20,Letter,Y,FALSE,CV,q,1621
CVOE_B,10,1,3,77,U 97,Number,Y,FALSE,OE,q,3579
CVOE_B,10,1,3,78,H 03,Number,N,TRUE,OE,q,2719
CVOE_B,10,1,3,79,O 04,Letter,Y,TRUE,CV,p,1881
CVOE_B,10,1,3,80,E 10,Letter,N,TRUE,CV,p,961
CVOE_B,10,1,3,81,I 52,Letter,N,TRUE,CV,p,914
CVOE_B,10,1,3,82,H 81,Number,Y,TRUE,OE,q,856
CVOE_B,10,1,3,83,I 41,Number,N,FALSE,OE,q,7131
CVOE_B,10,1,3,84,U 19,Letter,Y,FALSE,CV,p,6745
CVOE_B,10,1,3,85,O 17,Number,Y,FALSE,OE,q,4009
CVOE_B,10,1,3,86,A 10,Number,N,TRUE,OE,p,4301
CVOE_B,10,1,3,87,P 93,Letter,Y,TRUE,CV,q,1676
CVOE_B,10,1,3,88,E 59,Letter,N,FALSE,CV,p,1221
CVOE_B,10,1,3,89,O 53,Letter,N,FALSE,CV,p,995
CVOE_B,10,1,3,90,A 96,Letter,N,TRUE,CV,p,1852
CVOE_B,10,1,3,91,H 36,Letter,Y,FALSE,CV,q,1015
CVOE_B,10,1,3,92,A 63,Letter,N,FALSE,CV,p,1210
CVOE_B,10,1,3,93,I 38,Letter,N,TRUE,CV,p,1030
CVOE_B,10,1,3,94,O 51,Number,Y,FALSE,OE,q,1444
CVOE_B,10,1,3,95,J 26,Number,N,FALSE,OE,p,2180
CVOE_B,10,1,3,96,S 34,Letter,Y,FALSE,CV,q,2747
CVOE_B,10,1,3,97,U 85,Number,Y,FALSE,OE,q,6737
CVOE_B,10,1,3,98,J 77,Number,N,TRUE,OE,q,2991
CVOE_B,10,1,3,99,I 73,Letter,Y,FALSE,CV,p,3125
CVOE_B,10,1,3,100,H 46,Number,Y,FALSE,OE,p,1623
CVOE_B,10,1,3,101,D 04,Number,N,FALSE,OE,p,1333
CVOE_B,10,1,3,102,P 72,Letter,Y,FALSE,CV,q,1704
CVOE_B,10,1,3,103,D 99,Number,Y,TRUE,OE,q,3415
CVOE_B,10,1,3,104,U 25,Letter,Y,FALSE,CV,p,3939
CVOE_B,10,1,3,105,O 32,Letter,N,TRUE,CV,p,1015
CVOE_B,10,1,3,106,E 80,Letter,N,TRUE,CV,p,802
CVOE_B,10,1,3,107,O 84,Number,Y,TRUE,OE,p,3195
CVOE_B,10,1,3,108,A 78,Number,N,TRUE,OE,p,6340
CVOE_B,10,1,3,109,S 05,Number,N,TRUE,OE,q,2060
CVOE_B,10,1,3,110,U 35,Letter,Y,FALSE,CV,p,1648
CVOE_B,10,1,3,111,H 14,Letter,N,FALSE,CV,q,5435
CVOE_B,10,1,3,112,U 15,Number,Y,FALSE,OE,q,3430
CVOE_B,10,1,3,113,E 36,Letter,Y,TRUE,CV,p,2028
CVOE_B,10,1,3,114,P 70,Letter,N,FALSE,CV,q,899
CVOE_B,10,1,3,115,O 44,Number,Y,TRUE,OE,p,1566
CVOE_B,10,1,3,116,S 41,Letter,Y,TRUE,CV,q,2823
CVOE_B,10,1,3,117,D 83,Letter,N,TRUE,CV,q,3613
CVOE_B,10,1,3,118,J 39,Letter,N,TRUE,CV,q,1201
CVOE_B,10,1,3,119,S 22,Number,Y,FALSE,OE,p,1658
CVOE_B,10,1,3,120,D 89,Letter,Y,TRUE,CV,q,1686
CVOE_B,10,1,3,121,P 87,Letter,N,TRUE,CV,q,1206
CVOE_B,10,1,3,122,H 42,Letter,N,FALSE,CV,q,903
CVOE_B,10,1,3,123,S 49,Letter,N,TRUE,CV,q,829
CVOE_B,10,1,3,124,J 20,Number,Y,FALSE,OE,p,3219
CVOE_B,10,1,3,125,O 19,Letter,Y,FALSE,CV,p,1671
CVOE_B,10,1,3,126,H 50,Letter,N,FALSE,CV,q,837
CVOE_B,10,1,3,127,I 68,Number,Y,TRUE,OE,p,3774
CVOE_B,10,1,3,128,J 72,Number,N,FALSE,OE,p,2434
CVOE_B,10,1,3,129,O 21,Number,N,FALSE,OE,q,2355
CVOE_B,10,1,3,130,H 22,Number,N,FALSE,OE,p,2028
CVOE_B,10,1,4,1,A 44,Letter,N,TRUE,CV,p,7752
CVOE_B,10,1,4,2,D 94,Letter,N,FALSE,CV,q,1291
CVOE_B,10,1,4,3,E 75,Number,Y,FALSE,OE,q,4558
CVOE_B,10,1,4,4,H 81,Number,N,TRUE,OE,q,3352
CVOE_B,10,1,4,5,I 64,Letter,Y,TRUE,CV,p,1415
CVOE_B,10,1,4,6,J 54,Letter,N,FALSE,CV,q,1850
CVOE_B,10,1,4,7,O 23,Number,Y,FALSE,OE,q,1654
CVOE_B,10,1,4,8,P 05,Number,N,TRUE,OE,q,1993
CVOE_B,10,1,4,9,S 34,Letter,Y,FALSE,CV,q,2098
CVOE_B,10,1,4,10,U 88,Letter,N,TRUE,CV,p,3182
CVOE_B,10,1,4,11,A 70,Number,Y,TRUE,OE,p,2133
CVOE_B,10,1,4,12,D 12,Number,N,FALSE,OE,p,2392
CVOE_B,10,1,4,13,E 79,Letter,Y,FALSE,CV,p,4415
CVOE_B,10,1,4,14,H 72,Letter,N,FALSE,CV,q,1155
CVOE_B,10,1,4,15,I 41,Number,Y,FALSE,OE,q,1396
CVOE_B,10,1,4,16,J 63,Number,N,TRUE,OE,q,1749
CVOE_B,10,1,4,17,O 03,Letter,Y,FALSE,CV,p,1419
CVOE_B,10,1,4,18,P 75,Letter,N,TRUE,CV,q,2990
CVOE_B,10,1,4,19,S 61,Number,Y,TRUE,OE,q,2069
CVOE_B,10,1,4,20,U 28,Number,N,TRUE,OE,p,2763
CVOE_B,10,1,4,21,A 21,Letter,Y,FALSE,CV,p,1460
CVOE_B,10,1,4,22,D 18,Letter,N,FALSE,CV,q,2274
CVOE_B,10,1,4,23,E 35,Number,Y,FALSE,OE,q,2732
CVOE_B,10,1,4,24,H 62,Number,N,FALSE,OE,p,3031
CVOE_B,10,1,4,25,I 82,Letter,Y,TRUE,CV,p,1534
CVOE_B,10,1,4,26,J 78,Letter,N,FALSE,CV,q,1490
CVOE_B,10,1,4,27,O 12,Number,Y,TRUE,OE,p,3333
CVOE_B,10,1,4,28,P 13,Number,N,TRUE,OE,q,6969
CVOE_B,10,1,4,29,S 07,Letter,Y,TRUE,CV,q,7823
CVOE_B,10,1,4,30,U 36,Letter,N,TRUE,CV,p,887
CVOE_B,10,1,4,31,A 96,Number,Y,TRUE,OE,p,4042
CVOE_B,10,1,4,32,D 04,Number,N,FALSE,OE,p,1588
CVOE_B,10,1,4,33,E 60,Letter,Y,TRUE,CV,p,1218
CVOE_B,10,1,4,34,H 83,Letter,N,TRUE,CV,q,1893
CVOE_B,10,1,4,35,I 64,Number,Y,TRUE,OE,p,1441
CVOE_B,10,1,4,36,J 76,Number,N,FALSE,OE,p,4530
CVOE_B,10,1,4,37,O 78,Letter,Y,TRUE,CV,p,2422
CVOE_B,10,1,4,38,P 09,Letter,N,TRUE,CV,q,1357
CVOE_B,10,1,4,39,S 72,Number,Y,FALSE,OE,p,1542
CVOE_B,10,1,4,40,U 47,Number,N,FALSE,OE,q,3364
CVOE_B,10,1,4,41,A 31,Letter,Y,FALSE,CV,p,1789
CVOE_B,10,1,4,42,D 96,Letter,N,FALSE,CV,q,2147
CVOE_B,10,1,4,43,E 40,Number,Y,TRUE,OE,p,2418
CVOE_B,10,1,4,44,H 79,Number,N,TRUE,OE,q,2093
CVOE_B,10,1,4,45,I 15,Letter,Y,FALSE,CV,p,4105
CVOE_B,10,1,4,46,J 07,Letter,N,TRUE,CV,q,1480
CVOE_B,10,1,4,47,O 61,Number,Y,FALSE,OE,q,3945
CVOE_B,10,1,4,48,P 58,Number,N,FALSE,OE,p,2104
CVOE_B,10,1,4,49,S 37,Letter,Y,TRUE,CV,q,2782
CVOE_B,10,1,4,50,U 61,Letter,N,FALSE,CV,p,1501
CVOE_B,10,1,4,51,A 17,Number,Y,FALSE,OE,q,1531
CVOE_B,10,1,4,52,D 85,Number,N,TRUE,OE,q,2126
CVOE_B,10,1,4,53,E 20,Letter,Y,TRUE,CV,p,1914
CVOE_B,10,1,4,54,H 86,Letter,N,FALSE,CV,q,1027
CVOE_B,10,1,4,55,I 21,Number,Y,FALSE,OE,q,2065
CVOE_B,10,1,4,56,J 29,Number,N,TRUE,OE,q,2472
CVOE_B,10,1,4,57,O 13,Letter,Y,FALSE,CV,p,2551
CVOE_B,10,1,4,58,P 82,Letter,N,FALSE,CV,q,4324
CVOE_B,10,1,4,59,S 72,Number,Y,FALSE,OE,p,4359
CVOE_B,10,1,4,60,U 84,Number,N,TRUE,OE,p,4496
CVOE_B,10,1,4,61,A 49,Letter,Y,FALSE,CV,p,1822
CVOE_B,10,1,4,62,D 91,Letter,N,TRUE,CV,q,1828
CVOE_B,10,1,4,63,E 99,Number,Y,FALSE,OE,q,2202
CVOE_B,10,1,4,64,H 16,Number,N,FALSE,OE,p,2963
CVOE_B,10,1,4,65,I 45,Letter,Y,FALSE,CV,p,2108
CVOE_B,10,1,4,66,J 70,Letter,N,FALSE,CV,q,947
CVOE_B,10,1,4,67,O 22,Number,Y,TRUE,OE,p,1673
CVOE_B,10,1,4,68,P 41,Number,N,TRUE,OE,q,7847
CVOE_B,10,1,4,69,S 93,Letter,Y,TRUE,CV,q,853
CVOE_B,10,1,4,70,U 70,Letter,N,TRUE,CV,p,1704
CVOE_B,10,1,4,71,A 42,Number,Y,TRUE,OE,p,1782
CVOE_B,10,1,4,72,D 85,Number,N,TRUE,OE,q,3948
CVOE_B,10,1,4,73,E 68,Letter,Y,TRUE,CV,p,2691
CVOE_B,10,1,4,74,H 17,Letter,N,TRUE,CV,q,4031
CVOE_B,10,1,4,75,I 70,Number,Y,TRUE,OE,p,1142
CVOE_B,10,1,4,76,J 88,Number,N,FALSE,OE,p,1532
CVOE_B,10,1,4,77,O 32,Letter,Y,TRUE,CV,p,1399
CVOE_B,10,1,4,78,P 95,Letter,N,TRUE,CV,q,1704
CVOE_B,10,1,4,79,S 98,Number,Y,FALSE,OE,p,1182
CVOE_B,10,1,4,80,U 37,Number,N,FALSE,OE,q,3324
CVOE_B,10,1,4,81,A 56,Letter,Y,TRUE,CV,p,2262
CVOE_B,10,1,4,82,D 57,Letter,N,TRUE,CV,q,3612
CVOE_B,10,1,4,83,E 93,Number,Y,FALSE,OE,q,1648
CVOE_B,10,1,4,84,H 27,Number,N,TRUE,OE,q,2412
CVOE_B,10,1,4,85,I 35,Letter,Y,FALSE,CV,p,1088
CVOE_B,10,1,4,86,J 03,Letter,N,TRUE,CV,q,619
CVOE_B,10,1,4,87,O 28,Number,Y,TRUE,OE,p,2094
CVOE_B,10,1,4,88,P 59,Number,N,TRUE,OE,q,2818
CVOE_B,10,1,4,89,S 77,Letter,Y,TRUE,CV,q,1278
CVOE_B,10,1,4,90,U 05,Letter,N,FALSE,CV,p,3622
CVOE_B,10,1,4,91,A 56,Number,Y,TRUE,OE,p,2317
CVOE_B,10,1,4,92,D 01,Number,N,TRUE,OE,q,3614
CVOE_B,10,1,4,93,E 02,Letter,Y,TRUE,CV,p,1491
CVOE_B,10,1,4,94,H 68,Letter,N,FALSE,CV,q,1310
CVOE_B,10,1,4,95,I 05,Number,Y,FALSE,OE,q,1740
CVOE_B,10,1,4,96,J 55,Number,N,TRUE,OE,q,3136
CVOE_B,10,1,4,97,O 73,Letter,Y,FALSE,CV,p,4708
CVOE_B,10,1,4,98,P 41,Letter,N,TRUE,CV,q,3227
CVOE_B,10,1,4,99,S 92,Number,Y,FALSE,OE,p,1658
CVOE_B,10,1,4,100,U 34,Number,N,TRUE,OE,p,1525
CVOE_B,10,1,4,101,A 09,Letter,Y,FALSE,CV,p,1078
CVOE_B,10,1,4,102,D 92,Letter,N,FALSE,CV,q,1839
CVOE_B,10,1,4,103,E 48,Number,Y,TRUE,OE,p,1399
CVOE_B,10,1,4,104,H 76,Number,N,FALSE,OE,p,6152
CVOE_B,10,1,4,105,I 44,Letter,Y,TRUE,CV,p,1691
CVOE_B,10,1,4,106,J 67,Letter,N,TRUE,CV,q,886
CVOE_B,10,1,4,107,O 48,Number,Y,TRUE,OE,p,1231
CVOE_B,10,1,4,108,P 22,Number,N,FALSE,OE,p,1845
CVOE_B,10,1,4,109,S 86,Letter,Y,FALSE,CV,q,1326
CVOE_B,10,1,4,110,U 35,Letter,N,FALSE,CV,p,894
CVOE_B,10,1,4,111,A 91,Number,Y,FALSE,OE,q,1610
CVOE_B,10,1,4,112,D 78,Number,N,FALSE,OE,p,1581
CVOE_B,10,1,4,113,E 91,Letter,Y,FALSE,CV,p,4419
CVOE_B,10,1,4,114,H 54,Letter,N,FALSE,CV,q,1016
CVOE_B,10,1,4,115,I 65,Number,Y,FALSE,OE,p,1571
CVOE_B,10,1,4,116,J 52,Number,N,FALSE,OE,p,2854
CVOE_B,10,1,4,117,O 19,Letter,Y,FALSE,CV,p,3050
CVOE_B,10,1,4,118,P 48,Letter,N,FALSE,CV,q,894
CVOE_B,10,1,4,119,S 45,Number,Y,TRUE,OE,q,1290
CVOE_B,10,1,4,120,U 26,Number,N,TRUE,OE,p,5109
CVOE_B,6,1,1,11,A 24,,,TRUE,OE,p,4245
CVOE_B,6,1,1,12,O 83,,,FALSE,OE,q,1111
CVOE_B,6,1,1,13,H 55,,,TRUE,OE,q,1061
CVOE_B,6,1,1,14,P 10,,,FALSE,OE,p,875
CVOE_B,6,1,1,15,D 30,,,FALSE,OE,p,964
CVOE_B,6,1,1,16,U 62,,,TRUE,OE,p,812
CVOE_B,6,1,1,17,P 95,,,TRUE,OE,q,871
CVOE_B,6,1,1,18,U 06,,,TRUE,OE,p,693
CVOE_B,6,1,1,19,E 75,,,FALSE,OE,q,1136
CVOE_B,6,1,1,20,I 67,,,FALSE,OE,q,788
CVOE_B,6,1,1,21,S 13,,,TRUE,OE,q,857
CVOE_B,6,1,1,22,P 78,,,FALSE,OE,p,693
CVOE_B,6,1,1,23,I 15,,,FALSE,OE,q,1664
CVOE_B,6,1,1,24,D 27,,,TRUE,OE,q,646
CVOE_B,6,1,1,25,O 94,,,TRUE,OE,p,798
CVOE_B,6,1,1,26,A 65,,,FALSE,OE,q,2471
CVOE_B,6,1,1,27,I 42,,,TRUE,OE,p,1205
CVOE_B,6,1,1,28,E 25,,,FALSE,OE,q,758
CVOE_B,6,1,1,29,H 49,,,TRUE,OE,p,615
CVOE_B,6,1,1,30,S 18,,,FALSE,OE,p,1618
CVOE_B,6,1,1,31,H 51,,,TRUE,OE,q,677
CVOE_B,6,1,1,32,U 14,,,TRUE,OE,p,1182
CVOE_B,6,1,1,33,E 02,,,TRUE,OE,p,884
CVOE_B,6,1,1,34,J 26,,,FALSE,OE,p,860
CVOE_B,6,1,1,35,D 24,,,FALSE,OE,p,687
CVOE_B,6,1,1,36,O 50,,,TRUE,OE,p,1042
CVOE_B,6,1,1,37,U 16,,,TRUE,OE,p,587
CVOE_B,6,1,1,38,O 15,,,FALSE,OE,q,849
CVOE_B,6,1,1,39,D 32,,,FALSE,OE,p,1412
CVOE_B,6,1,1,40,S 67,,,TRUE,OE,q,671
