"","ExperimentName","Subject","Group","Block","Trial","STIM","TASK","Switch","Congruent","CVOE","Response","KEY","RT","Match","score","block_type","zRT"
"1","CVOE updated",5,1,1,11,"A 71","","",FALSE,"CV","p","p",2144,TRUE,1,"cv",0.977581979262961
"2","CVOE updated",5,1,1,12,"I 66","","",TRUE,"CV","q","p",783,FALSE,0,"cv",-0.438362679120617
"3","CVOE updated",5,1,1,13,"S 30","","",FALSE,"CV","q","q",636,TRUE,1,"cv",-0.59129718667564
"4","CVOE updated",5,1,1,14,"D 20","","",FALSE,"CV","q","q",1261,TRUE,1,"cv",0.0589345631331305
"5","CVOE updated",5,1,1,15,"I 31","","",FALSE,"CV","p","p",611,TRUE,1,"cv",-0.617306456667991
"6","CVOE updated",5,1,1,16,"P 16","","",FALSE,"CV","q","q",574,TRUE,1,"cv",-0.65580017625667
"7","CVOE updated",5,1,1,17,"A 49","","",FALSE,"CV","p","p",777,TRUE,1,"cv",-0.444604903918781
"8","CVOE updated",5,1,1,18,"O 64","","",TRUE,"CV","p","p",420,TRUE,1,"cv",-0.816017279409551
"9","CVOE updated",5,1,1,19,"D 02","","",FALSE,"CV","q","q",466,TRUE,1,"cv",-0.768160222623625
"10","CVOE updated",5,1,1,20,"P 81","","",TRUE,"CV","q","q",904,TRUE,1,"cv",-0.312477812357639
"11","CVOE updated",5,1,1,21,"J 58","","",FALSE,"CV","q","q",693,TRUE,1,"cv",-0.53199605109308
"12","CVOE updated",5,1,1,22,"A 22","","",TRUE,"CV","p","p",633,TRUE,1,"cv",-0.594418299074722
"13","CVOE updated",5,1,1,23,"J 72","","",FALSE,"CV","q","q",582,TRUE,1,"cv",-0.647477209859118
"14","CVOE updated",5,1,1,24,"P 91","","",TRUE,"CV","q","q",868,TRUE,1,"cv",-0.349931161146624
"15","CVOE updated",5,1,1,25,"E 19","","",FALSE,"CV","p","p",642,TRUE,1,"cv",-0.585054961877476
"16","CVOE updated",5,1,1,26,"I 30","","",TRUE,"CV","q","p",602,FALSE,0,"cv",-0.626669793865237
"17","CVOE updated",5,1,1,27,"D 91","","",TRUE,"CV","q","q",587,TRUE,1,"cv",-0.642275355860648
"18","CVOE updated",5,1,1,28,"O 48","","",TRUE,"CV","p","p",441,TRUE,1,"cv",-0.794169492615976
"19","CVOE updated",5,1,1,29,"A 89","","",FALSE,"CV","p","p",921,TRUE,1,"cv",-0.294791508762841
"20","CVOE updated",5,1,1,30,"U 11","","",FALSE,"CV","p","p",826,TRUE,1,"cv",-0.393626734733774
"21","CVOE updated",5,1,1,31,"I 76","","",TRUE,"CV","q","p",1015,FALSE,0,"cv",-0.196996653591602
"22","CVOE updated",5,1,1,32,"U 89","","",FALSE,"CV","p","p",827,TRUE,1,"cv",-0.39258636393408
"23","CVOE updated",5,1,1,33,"D 63","","",TRUE,"CV","q","q",960,TRUE,1,"cv",-0.254217047574773
"24","CVOE updated",5,1,1,34,"H 70","","",FALSE,"CV","q","q",689,TRUE,1,"cv",-0.536157534291856
"25","CVOE updated",5,1,1,35,"D 48","","",FALSE,"CV","q","q",732,TRUE,1,"cv",-0.491421589905013
"26","CVOE updated",5,1,1,36,"P 56","","",FALSE,"CV","q","q",895,TRUE,1,"cv",-0.321841149554885
"27","CVOE updated",5,1,1,37,"O 77","","",FALSE,"CV","p","p",658,TRUE,1,"cv",-0.568409029082371
"28","CVOE updated",5,1,1,38,"P 42","","",FALSE,"CV","q","q",766,TRUE,1,"cv",-0.456048982715416
"29","CVOE updated",5,1,1,39,"H 22","","",FALSE,"CV","q","q",870,TRUE,1,"cv",-0.347850419547236
"30","CVOE updated",5,1,1,40,"E 42","","",TRUE,"CV","p","p",716,TRUE,1,"cv",-0.508067522700117
"31","CVOE updated",5,1,1,41,"J 28","","",FALSE,"CV","q","q",588,TRUE,1,"cv",-0.641234985060953
"32","CVOE updated",5,1,1,42,"E 95","","",FALSE,"CV","p","p",506,TRUE,1,"cv",-0.726545390635864
"33","CVOE updated",5,1,1,43,"S 63","","",TRUE,"CV","q","q",640,TRUE,1,"cv",-0.587135703476864
"34","CVOE updated",5,1,1,44,"H 50","","",FALSE,"CV","q","q",1032,TRUE,1,"cv",-0.179310349996803
"35","CVOE updated",5,1,1,45,"S 33","","",TRUE,"CV","q","q",470,TRUE,1,"cv",-0.763998739424849
"36","CVOE updated",5,1,1,46,"P 57","","",TRUE,"CV","q","q",836,TRUE,1,"cv",-0.383223026736833
"37","CVOE updated",5,1,1,47,"E 23","","",FALSE,"CV","p","p",828,TRUE,1,"cv",-0.391545993134386
"38","CVOE updated",5,1,1,48,"S 61","","",TRUE,"CV","q","q",1066,TRUE,1,"cv",-0.143937742807206
"39","CVOE updated",5,1,1,49,"U 67","","",FALSE,"CV","p","p",528,TRUE,1,"cv",-0.703657233042595
"40","CVOE updated",5,1,1,50,"H 32","","",FALSE,"CV","q","q",547,TRUE,1,"cv",-0.683890187848409
"41","CVOE updated",5,1,1,51,"U 50","","",TRUE,"CV","p","p",609,TRUE,1,"cv",-0.619387198267379
"42","CVOE updated",5,1,1,52,"O 49","","",FALSE,"CV","p","p",452,TRUE,1,"cv",-0.782725413819342
"43","CVOE updated",5,1,1,53,"U 32","","",TRUE,"CV","p","p",479,TRUE,1,"cv",-0.754635402227603
"44","CVOE updated",5,1,1,54,"J 78","","",FALSE,"CV","q","q",560,TRUE,1,"cv",-0.670365367452386
"45","CVOE updated",5,1,1,55,"S 54","","",FALSE,"CV","q","q",504,TRUE,1,"cv",-0.728626132235252
"46","CVOE updated",5,1,1,56,"J 27","","",TRUE,"CV","q","q",638,TRUE,1,"cv",-0.589216445076252
"47","CVOE updated",5,1,1,57,"S 06","","",FALSE,"CV","q","q",470,TRUE,1,"cv",-0.763998739424849
"48","CVOE updated",5,1,1,58,"D 67","","",TRUE,"CV","q","q",644,TRUE,1,"cv",-0.582974220278088
"49","CVOE updated",5,1,1,59,"A 79","","",FALSE,"CV","p","p",580,TRUE,1,"cv",-0.649557951458506
"50","CVOE updated",5,1,1,60,"S 52","","",FALSE,"CV","q","q",466,TRUE,1,"cv",-0.768160222623625
"51","CVOE updated",5,1,1,61,"U 16","","",TRUE,"CV","p","p",912,TRUE,1,"cv",-0.304154845960087
"52","CVOE updated",5,1,1,62,"O 82","","",TRUE,"CV","p","p",670,TRUE,1,"cv",-0.555924579486043
"53","CVOE updated",5,1,1,63,"H 87","","",TRUE,"CV","q","q",547,TRUE,1,"cv",-0.683890187848409
"54","CVOE updated",5,1,1,64,"I 32","","",TRUE,"CV","p","p",881,TRUE,1,"cv",-0.336406340750602
"55","CVOE updated",5,1,1,65,"U 37","","",FALSE,"CV","p","p",562,TRUE,1,"cv",-0.668284625852998
"56","CVOE updated",5,1,1,66,"I 42","","",TRUE,"CV","p","p",946,TRUE,1,"cv",-0.26878223877049
"57","CVOE updated",5,1,1,67,"D 65","","",TRUE,"CV","q","q",416,TRUE,1,"cv",-0.820178762608327
"58","CVOE updated",5,1,1,68,"U 77","","",FALSE,"CV","p","p",491,TRUE,1,"cv",-0.742150952631275
"59","CVOE updated",5,1,1,69,"E 12","","",TRUE,"CV","q","p",590,FALSE,0,"cv",-0.639154243461565
"60","CVOE updated",5,1,1,70,"I 60","","",TRUE,"CV","p","p",964,TRUE,1,"cv",-0.250055564375997
"61","CVOE updated",5,1,1,71,"J 36","","",FALSE,"CV","q","q",1332,TRUE,1,"cv",0.132800889911407
"62","CVOE updated",5,1,1,72,"H 75","","",TRUE,"CV","q","q",1288,TRUE,1,"cv",0.0870245747248694
"63","CVOE updated",5,1,1,73,"I 50","","",TRUE,"CV","q","p",555,FALSE,0,"cv",-0.675567221450857
"64","CVOE updated",5,1,1,74,"E 99","","",FALSE,"CV","p","p",956,TRUE,1,"cv",-0.258378530773549
"65","CVOE updated",5,1,1,75,"A 86","","",TRUE,"CV","q","p",716,FALSE,0,"cv",-0.508067522700117
"66","CVOE updated",5,1,1,76,"U 48","","",TRUE,"CV","p","p",533,TRUE,1,"cv",-0.698455379044125
"67","CVOE updated",5,1,1,77,"E 01","","",FALSE,"CV","p","p",656,TRUE,1,"cv",-0.570489770681759
"68","CVOE updated",5,1,1,78,"A 78","","",TRUE,"CV","q","p",731,FALSE,0,"cv",-0.492461960704707
"69","CVOE updated",5,1,1,79,"P 60","","",FALSE,"CV","q","q",598,TRUE,1,"cv",-0.630831277064013
"70","CVOE updated",5,1,1,80,"E 43","","",FALSE,"CV","p","p",958,TRUE,1,"cv",-0.256297789174161
"71","CVOE updated",5,1,1,81,"D 69","","",TRUE,"CV","q","q",559,TRUE,1,"cv",-0.67140573825208
"72","CVOE updated",5,1,1,82,"H 11","","",TRUE,"CV","q","q",895,TRUE,1,"cv",-0.321841149554885
"73","CVOE updated",5,1,1,83,"P 43","","",TRUE,"CV","q","q",619,TRUE,1,"cv",-0.608983490270439
"74","CVOE updated",5,1,1,84,"O 67","","",FALSE,"CV","p","p",1134,TRUE,1,"cv",-0.0731925284280116
"75","CVOE updated",5,1,1,85,"S 91","","",FALSE,"CV","q","q",505,TRUE,1,"cv",-0.727585761435558
"76","CVOE updated",5,1,1,86,"J 68","","",TRUE,"CV","q","q",647,TRUE,1,"cv",-0.579853107879006
"77","CVOE updated",5,1,1,87,"S 47","","",FALSE,"CV","q","q",762,TRUE,1,"cv",-0.460210465914192
"78","CVOE updated",5,1,1,88,"I 81","","",TRUE,"CV","p","p",690,TRUE,1,"cv",-0.535117163492162
"79","CVOE updated",5,1,1,89,"J 39","","",FALSE,"CV","q","q",621,TRUE,1,"cv",-0.60690274867105
"80","CVOE updated",5,1,1,90,"A 11","","",TRUE,"CV","p","p",811,TRUE,1,"cv",-0.409232296729184
"81","CVOE updated",5,1,1,91,"O 76","","",FALSE,"CV","p","p",510,TRUE,1,"cv",-0.722383907437088
"82","CVOE updated",5,1,1,92,"A 62","","",FALSE,"CV","p","p",1260,TRUE,1,"cv",0.0578941923334365
"83","CVOE updated",5,1,1,93,"O 27","","",TRUE,"CV","p","p",466,TRUE,1,"cv",-0.768160222623625
"84","CVOE updated",5,1,1,94,"E 66","","",FALSE,"CV","q","p",552,FALSE,0,"cv",-0.678688333849939
"85","CVOE updated",5,1,1,95,"J 62","","",TRUE,"CV","q","q",774,TRUE,1,"cv",-0.447726016317863
"86","CVOE updated",5,1,1,96,"H 72","","",TRUE,"CV","q","q",609,TRUE,1,"cv",-0.619387198267379
"87","CVOE updated",5,1,1,97,"E 49","","",TRUE,"CV","p","p",948,TRUE,1,"cv",-0.266701497171102
"88","CVOE updated",5,1,1,98,"D 52","","",TRUE,"CV","q","q",466,TRUE,1,"cv",-0.768160222623625
"89","CVOE updated",5,1,1,99,"H 62","","",TRUE,"CV","q","q",551,TRUE,1,"cv",-0.679728704649633
"90","CVOE updated",5,1,1,100,"I 11","","",TRUE,"CV","p","p",637,TRUE,1,"cv",-0.590256815875946
"91","CVOE updated",5,1,1,101,"A 98","","",FALSE,"CV","p","p",1494,TRUE,1,"cv",0.30134095946184
"92","CVOE updated",5,1,1,102,"H 29","","",FALSE,"CV","q","q",1457,TRUE,1,"cv",0.262847239873161
"93","CVOE updated",5,1,1,103,"E 83","","",TRUE,"CV","p","p",596,TRUE,1,"cv",-0.632912018663401
"94","CVOE updated",5,1,1,104,"D 43","","",FALSE,"CV","q","q",501,TRUE,1,"cv",-0.731747244634334
"95","CVOE updated",5,1,1,105,"P 45","","",TRUE,"CV","q","q",491,TRUE,1,"cv",-0.742150952631275
"96","CVOE updated",5,1,1,106,"J 17","","",TRUE,"CV","q","q",462,TRUE,1,"cv",-0.772321705822402
"97","CVOE updated",5,1,2,11,"A 24","","",TRUE,"OE","p","p",879,TRUE,1,"oe",-0.33848708234999
"98","CVOE updated",5,1,2,12,"O 83","","",FALSE,"OE","q","q",495,TRUE,1,"oe",-0.737989469432499
"99","CVOE updated",5,1,2,13,"H 55","","",TRUE,"OE","q","q",626,TRUE,1,"oe",-0.60170089467258
"100","CVOE updated",5,1,2,14,"P 10","","",FALSE,"OE","p","p",960,TRUE,1,"oe",-0.254217047574773
"101","CVOE updated",5,1,2,15,"D 30","","",FALSE,"OE","p","p",872,TRUE,1,"oe",-0.345769677947848
"102","CVOE updated",5,1,2,16,"U 62","","",TRUE,"OE","p","p",1646,TRUE,1,"oe",0.459477321015333
"103","CVOE updated",5,1,2,17,"P 95","","",TRUE,"OE","q","q",626,TRUE,1,"oe",-0.60170089467258
"104","CVOE updated",5,1,2,18,"U 06","","",TRUE,"OE","p","p",592,TRUE,1,"oe",-0.637073501862177
"105","CVOE updated",5,1,2,19,"E 75","","",FALSE,"OE","q","q",533,TRUE,1,"oe",-0.698455379044125
"106","CVOE updated",5,1,2,20,"I 67","","",FALSE,"OE","q","q",1128,TRUE,1,"oe",-0.0794347532261758
"107","CVOE updated",5,1,2,21,"S 13","","",TRUE,"OE","q","q",1620,TRUE,1,"oe",0.432427680223288
"108","CVOE updated",5,1,2,22,"P 78","","",FALSE,"OE","p","p",578,TRUE,1,"oe",-0.651638693057894
"109","CVOE updated",5,1,2,23,"I 15","","",FALSE,"OE","q","q",1461,TRUE,1,"oe",0.267008723071937
"110","CVOE updated",5,1,2,24,"D 27","","",TRUE,"OE","q","q",659,TRUE,1,"oe",-0.567368658282677
"111","CVOE updated",5,1,2,25,"O 94","","",TRUE,"OE","p","p",838,TRUE,1,"oe",-0.381142285137445
"112","CVOE updated",5,1,2,26,"A 65","","",FALSE,"OE","q","q",519,TRUE,1,"oe",-0.713020570239842
"113","CVOE updated",5,1,2,27,"I 42","","",TRUE,"OE","p","p",607,TRUE,1,"oe",-0.621467939866767
"114","CVOE updated",5,1,2,28,"E 25","","",FALSE,"OE","q","q",530,TRUE,1,"oe",-0.701576491443207
"115","CVOE updated",5,1,2,29,"H 49","","",TRUE,"OE","q","q",557,TRUE,1,"oe",-0.673486479851468
"116","CVOE updated",5,1,2,30,"S 18","","",FALSE,"OE","p","p",558,TRUE,1,"oe",-0.672446109051774
"117","CVOE updated",5,1,2,31,"H 51","","",TRUE,"OE","q","q",678,TRUE,1,"oe",-0.547601613088491
"118","CVOE updated",5,1,2,32,"U 14","","",TRUE,"OE","p","p",815,TRUE,1,"oe",-0.405070813530408
"119","CVOE updated",5,1,2,33,"E 02","","",TRUE,"OE","p","p",602,TRUE,1,"oe",-0.626669793865237
"120","CVOE updated",5,1,2,34,"J 26","","",FALSE,"OE","p","p",586,TRUE,1,"oe",-0.643315726660342
"121","CVOE updated",5,1,2,35,"D 24","","",FALSE,"OE","p","p",505,TRUE,1,"oe",-0.727585761435558
"122","CVOE updated",5,1,2,36,"O 50","","",TRUE,"OE","q","p",1918,FALSE,0,"oe",0.74245817853211
"123","CVOE updated",5,1,2,37,"U 16","","",TRUE,"OE","p","p",695,TRUE,1,"oe",-0.529915309493692
"124","CVOE updated",5,1,2,38,"O 15","","",FALSE,"OE","q","q",610,TRUE,1,"oe",-0.618346827467685
"125","CVOE updated",5,1,2,39,"D 32","","",FALSE,"OE","p","p",773,TRUE,1,"oe",-0.448766387117557
"126","CVOE updated",5,1,2,40,"S 67","","",TRUE,"OE","q","q",912,TRUE,1,"oe",-0.304154845960087
"127","CVOE updated",5,1,2,41,"J 74","","",FALSE,"OE","p","p",1486,TRUE,1,"oe",0.293017993064288
"128","CVOE updated",5,1,2,42,"D 92","","",FALSE,"OE","p","p",687,TRUE,1,"oe",-0.538238275891244
"129","CVOE updated",5,1,2,43,"A 65","","",FALSE,"OE","q","q",794,TRUE,1,"oe",-0.426918600323983
"130","CVOE updated",5,1,2,44,"I 87","","",FALSE,"OE","q","q",1066,TRUE,1,"oe",-0.143937742807206
"131","CVOE updated",5,1,2,45,"H 61","","",TRUE,"OE","q","q",896,TRUE,1,"oe",-0.320800778755191
"132","CVOE updated",5,1,2,46,"E 59","","",FALSE,"OE","q","q",635,TRUE,1,"oe",-0.592337557475334
"133","CVOE updated",5,1,2,47,"I 33","","",FALSE,"OE","q","q",612,TRUE,1,"oe",-0.616266085868297
"134","CVOE updated",5,1,2,48,"O 90","","",TRUE,"OE","p","p",1191,TRUE,1,"oe",-0.0138913928454518
"135","CVOE updated",5,1,2,49,"U 51","","",FALSE,"OE","q","q",1093,TRUE,1,"oe",-0.115847731215467
"136","CVOE updated",5,1,2,50,"A 10","","",TRUE,"OE","p","p",872,TRUE,1,"oe",-0.345769677947848
"137","CVOE updated",5,1,2,51,"E 50","","",TRUE,"OE","p","p",558,TRUE,1,"oe",-0.672446109051774
"138","CVOE updated",5,1,2,52,"D 92","","",FALSE,"OE","p","p",678,TRUE,1,"oe",-0.547601613088491
"139","CVOE updated",5,1,2,53,"E 60","","",TRUE,"OE","p","p",639,TRUE,1,"oe",-0.588176074276558
"140","CVOE updated",5,1,2,54,"A 95","","",FALSE,"OE","q","q",1423,TRUE,1,"oe",0.227474632683564
"141","CVOE updated",5,1,2,55,"E 64","","",TRUE,"OE","p","p",909,TRUE,1,"oe",-0.307275958359169
"142","CVOE updated",5,1,2,56,"P 20","","",FALSE,"OE","p","p",691,TRUE,1,"oe",-0.534076792692468
"143","CVOE updated",5,1,2,57,"S 06","","",FALSE,"OE","p","p",782,TRUE,1,"oe",-0.439403049920311
"144","CVOE updated",5,1,2,58,"P 64","","",FALSE,"OE","p","p",596,TRUE,1,"oe",-0.632912018663401
"145","CVOE updated",5,1,2,59,"U 70","","",TRUE,"OE","p","p",565,TRUE,1,"oe",-0.665163513453916
"146","CVOE updated",5,1,2,60,"S 16","","",FALSE,"OE","p","p",541,TRUE,1,"oe",-0.690132412646573
"147","CVOE updated",5,1,2,61,"E 35","","",FALSE,"OE","q","q",564,TRUE,1,"oe",-0.66620388425361
"148","CVOE updated",5,1,2,62,"I 93","","",FALSE,"OE","q","q",555,TRUE,1,"oe",-0.675567221450857
"149","CVOE updated",5,1,2,63,"D 63","","",TRUE,"OE","q","q",588,TRUE,1,"oe",-0.641234985060953
"150","CVOE updated",5,1,2,64,"U 89","","",FALSE,"OE","q","q",625,TRUE,1,"oe",-0.602741265472274
"151","CVOE updated",5,1,2,65,"E 91","","",FALSE,"OE","q","q",639,TRUE,1,"oe",-0.588176074276558
"152","CVOE updated",5,1,2,66,"A 12","","",TRUE,"OE","p","p",448,TRUE,1,"oe",-0.786886897018118
"153","CVOE updated",5,1,2,67,"P 56","","",FALSE,"OE","p","p",563,TRUE,1,"oe",-0.667244255053304
"154","CVOE updated",5,1,2,68,"S 65","","",TRUE,"OE","q","q",579,TRUE,1,"oe",-0.6505983222582
"155","CVOE updated",5,1,2,69,"P 07","","",TRUE,"OE","q","q",894,TRUE,1,"oe",-0.322881520354579
"156","CVOE updated",5,1,2,70,"I 77","","",FALSE,"OE","q","q",593,TRUE,1,"oe",-0.636033131062483
"157","CVOE updated",5,1,2,71,"J 19","","",TRUE,"OE","q","q",651,TRUE,1,"oe",-0.575691624680229
"158","CVOE updated",5,1,2,72,"O 59","","",FALSE,"OE","q","q",469,TRUE,1,"oe",-0.765039110224543
"159","CVOE updated",5,1,2,73,"J 15","","",TRUE,"OE","q","q",700,TRUE,1,"oe",-0.524713455495222
"160","CVOE updated",5,1,2,74,"I 89","","",FALSE,"OE","q","q",1254,TRUE,1,"oe",0.0516519675352723
"161","CVOE updated",5,1,2,75,"O 97","","",FALSE,"OE","q","q",785,TRUE,1,"oe",-0.436281937521229
"162","CVOE updated",5,1,2,76,"A 92","","",TRUE,"OE","p","p",623,TRUE,1,"oe",-0.604822007071662
"163","CVOE updated",5,1,2,77,"J 90","","",FALSE,"OE","p","p",493,TRUE,1,"oe",-0.740070211031887
"164","CVOE updated",5,1,2,78,"H 65","","",TRUE,"OE","q","q",936,TRUE,1,"oe",-0.27918594676743
"165","CVOE updated",5,1,2,79,"H 17","","",TRUE,"OE","q","q",651,TRUE,1,"oe",-0.575691624680229
"166","CVOE updated",5,1,2,80,"S 26","","",FALSE,"OE","p","p",470,TRUE,1,"oe",-0.763998739424849
"167","CVOE updated",5,1,2,81,"D 56","","",FALSE,"OE","p","p",468,TRUE,1,"oe",-0.766079481024237
"168","CVOE updated",5,1,2,82,"I 91","","",FALSE,"OE","q","q",489,TRUE,1,"oe",-0.744231694230663
"169","CVOE updated",5,1,2,83,"J 11","","",TRUE,"OE","q","q",453,TRUE,1,"oe",-0.781685043019648
"170","CVOE updated",5,1,2,84,"O 28","","",TRUE,"OE","p","p",456,TRUE,1,"oe",-0.778563930620566
"171","CVOE updated",5,1,2,85,"H 29","","",TRUE,"OE","q","q",499,TRUE,1,"oe",-0.733827986233722
"172","CVOE updated",5,1,2,86,"J 25","","",TRUE,"OE","q","q",582,TRUE,1,"oe",-0.647477209859118
"173","CVOE updated",5,1,2,87,"A 73","","",FALSE,"OE","q","q",483,TRUE,1,"oe",-0.750473919028827
"174","CVOE updated",5,1,2,88,"J 63","","",TRUE,"OE","q","q",556,TRUE,1,"oe",-0.674526850651163
"175","CVOE updated",5,1,2,89,"U 84","","",TRUE,"OE","p","p",516,TRUE,1,"oe",-0.716141682638924
"176","CVOE updated",5,1,2,90,"A 58","","",TRUE,"OE","p","p",533,TRUE,1,"oe",-0.698455379044125
"177","CVOE updated",5,1,2,91,"S 43","","",TRUE,"OE","q","q",536,TRUE,1,"oe",-0.695334266645043
"178","CVOE updated",5,1,2,92,"H 54","","",FALSE,"OE","p","p",611,TRUE,1,"oe",-0.617306456667991
"179","CVOE updated",5,1,2,93,"D 4","","",FALSE,"OE","p","p",590,TRUE,1,"oe",-0.639154243461565
"180","CVOE updated",5,1,2,94,"J 75","","",TRUE,"OE","q","q",532,TRUE,1,"oe",-0.699495749843819
"181","CVOE updated",5,1,2,95,"D 19","","",TRUE,"OE","q","q",584,TRUE,1,"oe",-0.64539646825973
"182","CVOE updated",5,1,2,96,"J 38","","",FALSE,"OE","p","p",660,TRUE,1,"oe",-0.566328287482983
"183","CVOE updated",5,1,2,97,"I 56","","",TRUE,"OE","q","p",498,FALSE,0,"oe",-0.734868357033416
"184","CVOE updated",5,1,2,98,"P 87","","",TRUE,"OE","q","q",605,TRUE,1,"oe",-0.623548681466155
"185","CVOE updated",5,1,2,99,"O 80","","",TRUE,"OE","p","p",534,TRUE,1,"oe",-0.697415008244431
"186","CVOE updated",5,1,2,100,"U 60","","",TRUE,"OE","p","p",649,TRUE,1,"oe",-0.577772366279617
"187","CVOE updated",5,1,2,101,"P 48","","",FALSE,"OE","p","p",564,TRUE,1,"oe",-0.66620388425361
"188","CVOE updated",5,1,2,102,"H 64","","",FALSE,"OE","p","p",652,TRUE,1,"oe",-0.574651253880535
"189","CVOE updated",5,1,2,103,"A 13","","",FALSE,"OE","q","q",464,TRUE,1,"oe",-0.770240964223014
"190","CVOE updated",5,1,2,104,"H 68","","",FALSE,"OE","p","p",581,TRUE,1,"oe",-0.648517580658812
"191","CVOE updated",5,1,2,105,"E 16","","",TRUE,"OE","p","p",555,TRUE,1,"oe",-0.675567221450857
"192","CVOE updated",5,1,2,106,"S 71","","",TRUE,"OE","q","q",452,TRUE,1,"oe",-0.782725413819342
"193","CVOE updated",5,1,3,11,"A 44","Letter","N",TRUE,"CV","p","p",3610,TRUE,1,"alt",2.50276557161441
"194","CVOE updated",5,1,3,12,"D 94","Letter","N",FALSE,"CV","q","q",743,TRUE,1,"alt",-0.479977511108378
"195","CVOE updated",5,1,3,13,"E 75","Number","Y",FALSE,"OE","p","p",780,TRUE,1,"alt",-0.441483791519699
"196","CVOE updated",5,1,3,14,"H 81","Number","N",TRUE,"OE","q","p",1378,FALSE,0,"alt",0.180657946697332
"197","CVOE updated",5,1,3,15,"I 64","Letter","Y",TRUE,"CV","p","p",862,TRUE,1,"alt",-0.356173385944789
"199","CVOE updated",5,1,3,17,"O 23","Number","Y",FALSE,"OE","q","q",1150,TRUE,1,"alt",-0.0565465956329071
"200","CVOE updated",5,1,3,18,"P 05","Number","N",TRUE,"OE","q","q",988,TRUE,1,"alt",-0.22508666518334
"201","CVOE updated",5,1,3,19,"S 34","Letter","Y",FALSE,"CV","q","q",1905,TRUE,1,"alt",0.728933358136088
"202","CVOE updated",5,1,3,20,"U 88","Letter","N",TRUE,"CV","p","p",2680,TRUE,1,"alt",1.53522072789896
"203","CVOE updated",5,1,3,21,"A 70","Number","Y",TRUE,"OE","q","p",1585,FALSE,0,"alt",0.396014702233997
"204","CVOE updated",5,1,3,22,"D 12","Number","N",FALSE,"OE","p","p",1407,TRUE,1,"alt",0.210828699888459
"205","CVOE updated",5,1,3,23,"E 79","Letter","Y",FALSE,"CV","p","p",1562,TRUE,1,"alt",0.372086173841034
"206","CVOE updated",5,1,3,24,"H 72","Letter","N",FALSE,"CV","q","q",2299,TRUE,1,"alt",1.13883945321554
"207","CVOE updated",5,1,3,25,"I 41","Number","Y",FALSE,"OE","q","q",1370,TRUE,1,"alt",0.17233498029978
"208","CVOE updated",5,1,3,26,"J 63","Number","N",TRUE,"OE","q","q",862,TRUE,1,"alt",-0.356173385944789
"209","CVOE updated",5,1,3,27,"O 03","Letter","Y",FALSE,"CV","p","p",1467,TRUE,1,"alt",0.273250947870101
"210","CVOE updated",5,1,3,28,"P 75","Letter","N",TRUE,"CV","q","q",1409,TRUE,1,"alt",0.212909441487847
"211","CVOE updated",5,1,3,29,"S 61","Number","Y",TRUE,"OE","q","q",1092,TRUE,1,"alt",-0.116888102015161
"212","CVOE updated",5,1,3,30,"U 28","Number","N",TRUE,"OE","p","p",817,TRUE,1,"alt",-0.40299007193102
"213","CVOE updated",5,1,3,31,"A 21","Letter","Y",FALSE,"CV","p","p",1635,TRUE,1,"alt",0.448033242218699
"214","CVOE updated",5,1,3,32,"D 18","Letter","N",FALSE,"CV","q","q",876,TRUE,1,"alt",-0.341608194749072
"215","CVOE updated",5,1,3,33,"E 35","Number","Y",FALSE,"OE","q","q",1076,TRUE,1,"alt",-0.133534034810266
"216","CVOE updated",5,1,3,34,"H 62","Number","N",FALSE,"OE","p","p",1006,TRUE,1,"alt",-0.206359990788848
"217","CVOE updated",5,1,3,35,"I 82","Letter","Y",TRUE,"CV","p","p",1093,TRUE,1,"alt",-0.115847731215467
"218","CVOE updated",5,1,3,36,"J 78","Letter","N",FALSE,"CV","q","q",1034,TRUE,1,"alt",-0.177229608397415
"219","CVOE updated",5,1,3,37,"O 12","Number","Y",TRUE,"OE","p","p",921,TRUE,1,"alt",-0.294791508762841
"220","CVOE updated",5,1,3,38,"P 13","Number","N",TRUE,"OE","q","q",699,TRUE,1,"alt",-0.525753826294916
"221","CVOE updated",5,1,3,39,"S 07","Letter","Y",TRUE,"CV","q","q",846,TRUE,1,"alt",-0.372819318739893
"222","CVOE updated",5,1,3,40,"U 36","Letter","N",TRUE,"CV","q","p",1197,FALSE,0,"alt",-0.00764916804728757
"223","CVOE updated",5,1,3,41,"A 96","Number","Y",TRUE,"OE","q","p",782,FALSE,0,"alt",-0.439403049920311
"224","CVOE updated",5,1,3,42,"D 04","Number","N",FALSE,"OE","p","p",1292,TRUE,1,"alt",0.0911860579236455
"225","CVOE updated",5,1,3,43,"E 60","Letter","Y",TRUE,"CV","p","p",2008,TRUE,1,"alt",0.836091550504573
"226","CVOE updated",5,1,3,44,"H 83","Letter","N",TRUE,"CV","q","q",1483,TRUE,1,"alt",0.289896880665206
"227","CVOE updated",5,1,3,45,"I 64","Number","Y",TRUE,"OE","p","p",1900,TRUE,1,"alt",0.723731504137617
"228","CVOE updated",5,1,3,46,"J 76","Number","N",FALSE,"OE","p","p",930,TRUE,1,"alt",-0.285428171565594
"229","CVOE updated",5,1,3,47,"O 78","Letter","Y",TRUE,"CV","p","p",1454,TRUE,1,"alt",0.259726127474079
"230","CVOE updated",5,1,3,48,"P 09","Letter","N",TRUE,"CV","q","q",978,TRUE,1,"alt",-0.235490373180281
"231","CVOE updated",5,1,3,49,"S 72","Number","Y",FALSE,"OE","p","p",1012,TRUE,1,"alt",-0.200117765990684
"232","CVOE updated",5,1,3,50,"U 47","Number","N",FALSE,"OE","q","q",1455,TRUE,1,"alt",0.260766498273773
"233","CVOE updated",5,1,3,51,"A 31","Letter","Y",FALSE,"CV","p","p",1010,TRUE,1,"alt",-0.202198507590072
"234","CVOE updated",5,1,3,52,"D 96","Letter","N",FALSE,"CV","q","q",766,TRUE,1,"alt",-0.456048982715416
"235","CVOE updated",5,1,3,53,"E 40","Number","Y",TRUE,"OE","p","p",1703,TRUE,1,"alt",0.518778456597893
"236","CVOE updated",5,1,3,54,"H 79","Number","N",TRUE,"OE","q","q",1332,TRUE,1,"alt",0.132800889911407
"237","CVOE updated",5,1,3,55,"I 15","Letter","Y",FALSE,"CV","p","p",1816,TRUE,1,"alt",0.636340356963319
"238","CVOE updated",5,1,3,56,"J 07","Letter","N",TRUE,"CV","q","q",2123,TRUE,1,"alt",0.955734192469387
"239","CVOE updated",5,1,3,57,"O 61","Number","Y",FALSE,"OE","q","q",1108,TRUE,1,"alt",-0.100242169220056
"240","CVOE updated",5,1,3,58,"P 58","Number","N",FALSE,"OE","p","p",2770,TRUE,1,"alt",1.62885409987143
"241","CVOE updated",5,1,3,59,"S 37","Letter","Y",TRUE,"CV","q","q",2887,TRUE,1,"alt",1.75057748343563
"242","CVOE updated",5,1,3,60,"U 61","Letter","N",FALSE,"CV","p","p",850,TRUE,1,"alt",-0.368657835541117
"243","CVOE updated",5,1,3,61,"A 17","Number","Y",FALSE,"OE","q","q",1349,TRUE,1,"alt",0.150487193506205
"244","CVOE updated",5,1,3,62,"D 85","Number","N",TRUE,"OE","q","q",1891,TRUE,1,"alt",0.714368166940371
"245","CVOE updated",5,1,3,63,"E 20","Letter","Y",TRUE,"CV","p","p",1279,TRUE,1,"alt",0.0776612375276231
"246","CVOE updated",5,1,3,64,"H 86","Letter","N",FALSE,"CV","q","q",1864,TRUE,1,"alt",0.686278155348632
"247","CVOE updated",5,1,3,65,"I 21","Number","Y",FALSE,"OE","q","q",879,TRUE,1,"alt",-0.33848708234999
"248","CVOE updated",5,1,3,66,"J 29","Number","N",TRUE,"OE","q","q",1470,TRUE,1,"alt",0.276372060269183
"249","CVOE updated",5,1,3,67,"O 13","Letter","Y",FALSE,"CV","p","p",1118,TRUE,1,"alt",-0.0898384612231161
"250","CVOE updated",5,1,3,68,"P 82","Letter","N",FALSE,"CV","q","q",629,TRUE,1,"alt",-0.598579782273498
"251","CVOE updated",5,1,3,69,"S 72","Number","Y",FALSE,"OE","p","p",1572,TRUE,1,"alt",0.382489881837975
"252","CVOE updated",5,1,3,70,"U 84","Number","N",TRUE,"OE","p","p",1062,TRUE,1,"alt",-0.148099226005982
"253","CVOE updated",5,1,3,71,"A 49","Letter","Y",FALSE,"CV","p","p",1077,TRUE,1,"alt",-0.132493664010571
"254","CVOE updated",5,1,3,72,"D 91","Letter","N",TRUE,"CV","q","q",901,TRUE,1,"alt",-0.315598924756721
"255","CVOE updated",5,1,3,73,"E 99","Number","Y",FALSE,"OE","q","q",1131,TRUE,1,"alt",-0.0763136408270937
"256","CVOE updated",5,1,3,74,"H 16","Number","N",FALSE,"OE","p","p",887,TRUE,1,"alt",-0.330164115952438
"257","CVOE updated",5,1,3,75,"I 45","Letter","Y",FALSE,"CV","q","p",1553,FALSE,0,"alt",0.362722836643788
"258","CVOE updated",5,1,3,76,"J 70","Letter","N",FALSE,"CV","q","q",2099,TRUE,1,"alt",0.93076529327673
"259","CVOE updated",5,1,3,77,"O 22","Number","Y",TRUE,"OE","p","p",1815,TRUE,1,"alt",0.635299986163625
"260","CVOE updated",5,1,3,78,"P 41","Number","N",TRUE,"OE","p","q",937,FALSE,0,"alt",-0.278145575967736
"261","CVOE updated",5,1,3,79,"S 93","Letter","Y",TRUE,"CV","q","q",1941,TRUE,1,"alt",0.766386706925073
"262","CVOE updated",5,1,3,80,"U 70","Letter","N",TRUE,"CV","p","p",2859,TRUE,1,"alt",1.72144710104419
"263","CVOE updated",5,1,3,81,"A 42","Number","Y",TRUE,"OE","p","p",1401,TRUE,1,"alt",0.204586475090295
"264","CVOE updated",5,1,3,82,"D 85","Number","N",TRUE,"OE","q","q",3706,TRUE,1,"alt",2.60264116838504
"265","CVOE updated",5,1,3,83,"E 68","Letter","Y",TRUE,"CV","p","p",1017,TRUE,1,"alt",-0.194915911992213
"266","CVOE updated",5,1,3,84,"H 17","Letter","N",TRUE,"CV","q","q",892,TRUE,1,"alt",-0.324962261953968
"267","CVOE updated",5,1,3,85,"I 70","Number","Y",TRUE,"OE","q","p",1624,FALSE,0,"alt",0.436589163422064
"268","CVOE updated",5,1,3,86,"J 88","Number","N",FALSE,"OE","p","p",1310,TRUE,1,"alt",0.109912732318138
"269","CVOE updated",5,1,3,87,"O 32","Letter","Y",TRUE,"CV","p","p",996,TRUE,1,"alt",-0.216763698785788
"270","CVOE updated",5,1,3,88,"P 95","Letter","N",TRUE,"CV","q","q",780,TRUE,1,"alt",-0.441483791519699
"271","CVOE updated",5,1,3,89,"S 98","Number","Y",FALSE,"OE","p","p",738,TRUE,1,"alt",-0.485179365106849
"272","CVOE updated",5,1,3,90,"U 37","Number","N",FALSE,"OE","q","q",1141,TRUE,1,"alt",-0.0659099328301534
"273","CVOE updated",5,1,3,91,"A 56","Letter","Y",TRUE,"CV","p","p",667,TRUE,1,"alt",-0.559045691885125
"274","CVOE updated",5,1,3,92,"D 57","Letter","N",TRUE,"CV","q","q",993,TRUE,1,"alt",-0.21988481118487
"275","CVOE updated",5,1,3,93,"E 93","Number","Y",FALSE,"OE","q","q",1194,TRUE,1,"alt",-0.0107702804463697
"276","CVOE updated",5,1,3,94,"H 27","Number","N",TRUE,"OE","p","q",578,FALSE,0,"alt",-0.651638693057894
"277","CVOE updated",5,1,3,95,"I 35","Letter","Y",FALSE,"CV","p","p",1077,TRUE,1,"alt",-0.132493664010571
"278","CVOE updated",5,1,3,96,"J 03","Letter","N",TRUE,"CV","q","q",670,TRUE,1,"alt",-0.555924579486043
"279","CVOE updated",5,1,3,97,"O 28","Number","Y",TRUE,"OE","p","p",668,TRUE,1,"alt",-0.558005321085431
"280","CVOE updated",5,1,3,98,"P 59","Number","N",TRUE,"OE","q","q",562,TRUE,1,"alt",-0.668284625852998
"281","CVOE updated",5,1,3,99,"S 77","Letter","Y",TRUE,"CV","q","q",730,TRUE,1,"alt",-0.493502331504401
"282","CVOE updated",5,1,3,100,"U 05","Letter","N",FALSE,"CV","p","p",613,TRUE,1,"alt",-0.615225715068603
"283","CVOE updated",5,1,3,101,"A 56","Number","Y",TRUE,"OE","p","p",1048,TRUE,1,"alt",-0.162664417201698
"284","CVOE updated",5,1,3,102,"D 01","Number","N",TRUE,"OE","q","q",764,TRUE,1,"alt",-0.458129724314804
"285","CVOE updated",5,1,3,103,"E 02","Letter","Y",TRUE,"CV","p","p",1236,TRUE,1,"alt",0.0329252931407797
"286","CVOE updated",5,1,3,104,"H 68","Letter","N",FALSE,"CV","q","q",1198,TRUE,1,"alt",-0.00660879724759353
"287","CVOE updated",5,1,3,105,"I 05","Number","Y",FALSE,"OE","q","q",861,TRUE,1,"alt",-0.357213756744483
"288","CVOE updated",5,1,3,106,"J 55","Number","N",TRUE,"OE","q","q",675,TRUE,1,"alt",-0.550722725487573
"289","CVOE updated",5,1,3,107,"O 73","Letter","Y",FALSE,"CV","p","p",1060,TRUE,1,"alt",-0.15017996760537
"290","CVOE updated",5,1,3,108,"P 41","Letter","N",TRUE,"CV","q","q",738,TRUE,1,"alt",-0.485179365106849
"291","CVOE updated",5,1,3,109,"S 92","Number","Y",FALSE,"OE","p","p",1589,TRUE,1,"alt",0.400176185432773
"292","CVOE updated",5,1,3,110,"U 34","Number","N",TRUE,"OE","p","p",603,TRUE,1,"alt",-0.625629423065543
"293","CVOE updated",5,1,3,111,"A 09","Letter","Y",FALSE,"CV","p","p",1124,TRUE,1,"alt",-0.083596236424952
"294","CVOE updated",5,1,3,112,"D 92","Letter","N",FALSE,"CV","q","q",1244,TRUE,1,"alt",0.041248259538332
"295","CVOE updated",5,1,3,113,"E 48","Number","Y",TRUE,"OE","p","p",789,TRUE,1,"alt",-0.432120454322453
"296","CVOE updated",5,1,3,114,"H 76","Number","N",FALSE,"OE","q","p",626,FALSE,0,"alt",-0.60170089467258
"297","CVOE updated",5,1,3,115,"I 44","Letter","Y",TRUE,"CV","q","p",2473,FALSE,0,"alt",1.3198639723623
"298","CVOE updated",5,1,3,116,"J 67","Letter","N",TRUE,"CV","q","q",1041,TRUE,1,"alt",-0.169947012799557
"299","CVOE updated",5,1,3,117,"O 48","Number","Y",TRUE,"OE","p","p",1106,TRUE,1,"alt",-0.102322910819445
"300","CVOE updated",5,1,3,118,"P 22","Number","N",FALSE,"OE","p","p",584,TRUE,1,"alt",-0.64539646825973
"301","CVOE updated",5,1,3,119,"S 86","Letter","Y",FALSE,"CV","q","q",2470,TRUE,1,"alt",1.31674285996322
"302","CVOE updated",5,1,3,120,"U 35","Letter","N",FALSE,"CV","p","p",812,TRUE,1,"alt",-0.40819192592949
"303","CVOE updated",5,1,3,121,"A 91","Number","Y",FALSE,"OE","q","q",703,TRUE,1,"alt",-0.52159234309614
"304","CVOE updated",5,1,3,122,"D 78","Number","N",FALSE,"OE","p","p",517,TRUE,1,"alt",-0.71510131183923
"305","CVOE updated",5,1,3,123,"E 91","Letter","Y",FALSE,"CV","p","p",1109,TRUE,1,"alt",-0.0992017984203624
"306","CVOE updated",5,1,3,124,"H 54","Letter","N",FALSE,"CV","q","q",515,TRUE,1,"alt",-0.717182053438618
"307","CVOE updated",5,1,3,125,"I 65","Number","Y",FALSE,"OE","q","q",653,TRUE,1,"alt",-0.573610883080841
"308","CVOE updated",5,1,3,126,"J 52","Number","N",FALSE,"OE","p","p",479,TRUE,1,"alt",-0.754635402227603
"309","CVOE updated",5,1,3,127,"O 19","Letter","Y",FALSE,"CV","p","p",679,TRUE,1,"alt",-0.546561242288797
"310","CVOE updated",5,1,3,128,"P 48","Letter","N",FALSE,"CV","q","q",456,TRUE,1,"alt",-0.778563930620566
"311","CVOE updated",5,1,3,129,"S 45","Number","Y",TRUE,"OE","q","q",716,TRUE,1,"alt",-0.508067522700117
"312","CVOE updated",5,1,3,130,"U 26","Number","N",TRUE,"OE","p","p",627,TRUE,1,"alt",-0.600660523872886
"313","CVOE updated",5,1,4,1,"U 38","Number","N",TRUE,"OE","p","p",3589,TRUE,1,"shuf",2.48091778482084
"314","CVOE updated",5,1,4,2,"P 73","Number","N",TRUE,"OE","q","q",916,TRUE,1,"shuf",-0.299993362761311
"315","CVOE updated",5,1,4,3,"U 95","Letter","Y",FALSE,"CV","p","p",781,TRUE,1,"shuf",-0.440443420720005
"316","CVOE updated",5,1,4,4,"J 61","Number","Y",TRUE,"OE","q","q",587,TRUE,1,"shuf",-0.642275355860648
"317","CVOE updated",5,1,4,5,"D 51","Number","N",TRUE,"OE","q","q",785,TRUE,1,"shuf",-0.436281937521229
"318","CVOE updated",5,1,4,6,"S 28","Number","N",FALSE,"OE","p","p",718,TRUE,1,"shuf",-0.505986781100729
"319","CVOE updated",5,1,4,7,"A 56","Letter","Y",TRUE,"CV","p","p",679,TRUE,1,"shuf",-0.546561242288797
"320","CVOE updated",5,1,4,8,"H 78","Letter","N",FALSE,"CV","q","q",503,TRUE,1,"shuf",-0.729666503034946
"321","CVOE updated",5,1,4,9,"P 92","Letter","N",FALSE,"CV","q","q",3189,TRUE,1,"shuf",2.06476946494323
"322","CVOE updated",5,1,4,10,"E 05","Number","Y",FALSE,"OE","q","q",1220,TRUE,1,"shuf",0.0162793603456752
"323","CVOE updated",5,1,4,11,"P 57","Letter","Y",TRUE,"CV","q","q",2810,TRUE,1,"shuf",1.67046893185919
"324","CVOE updated",5,1,4,12,"D 88","Number","Y",FALSE,"OE","p","p",806,TRUE,1,"shuf",-0.414434150727654
"325","CVOE updated",5,1,4,13,"O 89","Letter","Y",FALSE,"CV","p","p",742,TRUE,1,"shuf",-0.481017881908072
"326","CVOE updated",5,1,4,14,"U 43","Number","Y",FALSE,"OE","q","q",813,TRUE,1,"shuf",-0.407151555129796
"327","CVOE updated",5,1,4,15,"H 10","Number","N",FALSE,"OE","p","p",2511,TRUE,1,"shuf",1.35939806275067
"328","CVOE updated",5,1,4,16,"S 07","Letter","Y",TRUE,"CV","q","q",1086,TRUE,1,"shuf",-0.123130326813325
"329","CVOE updated",5,1,4,17,"J 10","Letter","N",FALSE,"CV","q","q",2270,TRUE,1,"shuf",1.10866870002441
"330","CVOE updated",5,1,4,18,"H 54","Number","Y",FALSE,"OE","p","p",981,TRUE,1,"shuf",-0.232369260781199
"331","CVOE updated",5,1,4,19,"E 99","Number","N",FALSE,"OE","q","q",938,TRUE,1,"shuf",-0.277105205168042
"332","CVOE updated",5,1,4,20,"J 36","Letter","Y",FALSE,"CV","q","q",855,TRUE,1,"shuf",-0.363455981542647
"333","CVOE updated",5,1,4,21,"I 94","Letter","N",TRUE,"CV","p","p",1657,TRUE,1,"shuf",0.470921399811968
"334","CVOE updated",5,1,4,22,"A 82","Letter","N",TRUE,"CV","p","p",1781,TRUE,1,"shuf",0.599927378974028
"335","CVOE updated",5,1,4,23,"H 79","Number","Y",TRUE,"OE","q","q",715,TRUE,1,"shuf",-0.509107893499811
"336","CVOE updated",5,1,4,24,"J 60","Number","N",FALSE,"OE","p","p",987,TRUE,1,"shuf",-0.226127035983034
"337","CVOE updated",5,1,4,25,"S 28","Letter","Y",FALSE,"CV","q","q",914,TRUE,1,"shuf",-0.302074104360699
"338","CVOE updated",5,1,4,26,"P 11","Number","Y",TRUE,"OE","q","q",2194,TRUE,1,"shuf",1.02960051924766
"339","CVOE updated",5,1,4,27,"D 39","Number","N",TRUE,"OE","q","q",1915,TRUE,1,"shuf",0.739337066133028
"340","CVOE updated",5,1,4,28,"E 90","Number","N",TRUE,"OE","p","p",1028,TRUE,1,"shuf",-0.183471833195579
"341","CVOE updated",5,1,4,29,"I 38","Number","N",TRUE,"OE","p","p",994,TRUE,1,"shuf",-0.218844440385176
"342","CVOE updated",5,1,4,30,"S 35","Letter","Y",TRUE,"CV","p","q",1219,FALSE,0,"shuf",0.0152389895459812
"343","CVOE updated",5,1,4,31,"D 41","Number","Y",TRUE,"OE","q","q",1821,TRUE,1,"shuf",0.641542210961789
"344","CVOE updated",5,1,4,32,"E 06","Number","N",TRUE,"OE","p","p",988,TRUE,1,"shuf",-0.22508666518334
"345","CVOE updated",5,1,4,33,"A 27","Number","N",FALSE,"OE","q","q",977,TRUE,1,"shuf",-0.236530743979975
"346","CVOE updated",5,1,4,34,"U 95","Letter","Y",FALSE,"CV","p","p",862,TRUE,1,"shuf",-0.356173385944789
"347","CVOE updated",5,1,4,35,"A 53","Letter","N",FALSE,"CV","q","p",1162,FALSE,0,"shuf",-0.0440621460365787
"348","CVOE updated",5,1,4,36,"E 43","Letter","N",FALSE,"CV","p","p",1827,TRUE,1,"shuf",0.647784435759953
"349","CVOE updated",5,1,4,37,"P 05","Number","Y",TRUE,"OE","q","q",2562,TRUE,1,"shuf",1.41245697353507
"350","CVOE updated",5,1,4,38,"O 19","Letter","Y",FALSE,"CV","p","p",2723,TRUE,1,"shuf",1.57995667228581
"351","CVOE updated",5,1,4,39,"I 96","Number","Y",TRUE,"OE","p","p",1156,TRUE,1,"shuf",-0.0503043708347429
"352","CVOE updated",5,1,4,40,"A 88","Number","N",TRUE,"OE","p","p",821,TRUE,1,"shuf",-0.398828588732244
"353","CVOE updated",5,1,4,41,"I 67","Number","N",FALSE,"OE","q","q",827,TRUE,1,"shuf",-0.39258636393408
"354","CVOE updated",5,1,4,42,"D 40","Number","N",FALSE,"OE","p","p",2672,TRUE,1,"shuf",1.52689776150141
"355","CVOE updated",5,1,4,43,"P 79","Letter","Y",TRUE,"CV","q","q",1329,TRUE,1,"shuf",0.129679777512325
"356","CVOE updated",5,1,4,44,"U 24","Number","Y",TRUE,"OE","p","p",1262,TRUE,1,"shuf",0.0599749339328246
"357","CVOE updated",5,1,4,45,"P 74","Number","N",FALSE,"OE","p","p",819,TRUE,1,"shuf",-0.400909330331632
"358","CVOE updated",5,1,4,46,"E 70","Number","N",TRUE,"OE","p","p",918,TRUE,1,"shuf",-0.297912621161923
"359","CVOE updated",5,1,4,47,"S 27","Number","N",TRUE,"OE","q","q",926,TRUE,1,"shuf",-0.28958965476437
"360","CVOE updated",5,1,4,48,"E 54","Letter","Y",TRUE,"CV","p","p",1123,TRUE,1,"shuf",-0.084636607224646
"361","CVOE updated",5,1,4,49,"A 53","Letter","N",FALSE,"CV","p","p",778,TRUE,1,"shuf",-0.443564533119087
"362","CVOE updated",5,1,4,50,"P 34","Letter","N",FALSE,"CV","q","q",710,TRUE,1,"shuf",-0.514309747498282
"363","CVOE updated",5,1,4,51,"D 74","Number","Y",FALSE,"OE","p","p",748,TRUE,1,"shuf",-0.474775657109908
"364","CVOE updated",5,1,4,52,"A 03","Letter","Y",FALSE,"CV","q","p",641,FALSE,0,"shuf",-0.58609533267717
"365","CVOE updated",5,1,4,53,"E 24","Number","Y",TRUE,"OE","p","p",2115,TRUE,1,"shuf",0.947411226071834
"366","CVOE updated",5,1,4,54,"I 58","Letter","Y",TRUE,"CV","q","p",2963,FALSE,0,"shuf",1.82964566421237
"367","CVOE updated",5,1,4,55,"D 77","Number","Y",TRUE,"OE","q","q",1212,TRUE,1,"shuf",0.00795639394812292
"368","CVOE updated",5,1,4,56,"S 75","Number","N",TRUE,"OE","q","q",1599,TRUE,1,"shuf",0.410579893429714
"369","CVOE updated",5,1,4,57,"I 20","Letter","Y",TRUE,"CV","p","p",921,TRUE,1,"shuf",-0.294791508762841
"370","CVOE updated",5,1,4,58,"J 52","Letter","N",FALSE,"CV","q","q",953,TRUE,1,"shuf",-0.261499643172632
"371","CVOE updated",5,1,4,59,"A 38","Number","Y",TRUE,"OE","p","p",1606,TRUE,1,"shuf",0.417862489027572
"372","CVOE updated",5,1,4,60,"I 60","Letter","Y",TRUE,"CV","q","p",1483,FALSE,0,"shuf",0.289896880665206
"373","CVOE updated",5,1,4,61,"S 51","Number","Y",TRUE,"OE","q","q",2395,TRUE,1,"shuf",1.23871504998616
"374","CVOE updated",5,1,4,62,"D 63","Letter","Y",TRUE,"CV","q","q",1468,TRUE,1,"shuf",0.274291318669795
"375","CVOE updated",5,1,4,63,"U 27","Letter","N",FALSE,"CV","p","p",1226,TRUE,1,"shuf",0.0225215851438394
"376","CVOE updated",5,1,4,64,"J 77","Letter","N",TRUE,"CV","q","q",1209,TRUE,1,"shuf",0.00483528154904083
"377","CVOE updated",5,1,4,65,"O 15","Number","Y",FALSE,"OE","q","q",1235,TRUE,1,"shuf",0.0318849223410857
"378","CVOE updated",5,1,4,66,"J 20","Letter","Y",FALSE,"CV","q","q",2253,TRUE,1,"shuf",1.09098239642961
"379","CVOE updated",5,1,4,67,"U 97","Number","Y",FALSE,"OE","q","q",1440,TRUE,1,"shuf",0.245160936278362
"380","CVOE updated",5,1,4,68,"H 03","Number","N",TRUE,"OE","q","q",992,TRUE,1,"shuf",-0.220925181984564
"381","CVOE updated",5,1,4,69,"O 04","Letter","Y",TRUE,"CV","p","p",974,TRUE,1,"shuf",-0.239651856379057
"382","CVOE updated",5,1,4,70,"E 10","Letter","N",TRUE,"CV","p","p",865,TRUE,1,"shuf",-0.353052273545706
"383","CVOE updated",5,1,4,71,"I 52","Letter","N",TRUE,"CV","p","p",855,TRUE,1,"shuf",-0.363455981542647
"384","CVOE updated",5,1,4,72,"H 81","Number","Y",TRUE,"OE","q","q",1051,TRUE,1,"shuf",-0.159543304802616
"385","CVOE updated",5,1,4,73,"I 41","Number","N",FALSE,"OE","q","q",1950,TRUE,1,"shuf",0.775750044122319
"386","CVOE updated",5,1,4,74,"U 19","Letter","Y",FALSE,"CV","p","p",1892,TRUE,1,"shuf",0.715408537740065
"387","CVOE updated",5,1,4,75,"O 17","Number","Y",FALSE,"OE","p","q",937,FALSE,0,"shuf",-0.278145575967736
"388","CVOE updated",5,1,4,76,"A 10","Number","N",TRUE,"OE","p","p",2435,TRUE,1,"shuf",1.28032988197392
"389","CVOE updated",5,1,4,77,"P 93","Letter","Y",TRUE,"CV","q","q",1845,TRUE,1,"shuf",0.666511110154446
"390","CVOE updated",5,1,4,78,"E 59","Letter","N",FALSE,"CV","p","p",1973,TRUE,1,"shuf",0.799678572515282
"391","CVOE updated",5,1,4,79,"O 53","Letter","N",FALSE,"CV","p","p",801,TRUE,1,"shuf",-0.419636004726125
"392","CVOE updated",5,1,4,80,"A 96","Letter","N",TRUE,"CV","q","p",1713,FALSE,0,"shuf",0.529182164594833
"394","CVOE updated",5,1,4,82,"A 63","Letter","N",FALSE,"CV","p","p",1053,TRUE,1,"shuf",-0.157462563203228
"395","CVOE updated",5,1,4,83,"I 38","Letter","N",TRUE,"CV","p","p",1231,TRUE,1,"shuf",0.0277234391423095
"396","CVOE updated",5,1,4,84,"O 51","Number","Y",FALSE,"OE","q","q",1374,TRUE,1,"shuf",0.176496463498556
"397","CVOE updated",5,1,4,85,"J 26","Number","N",FALSE,"OE","p","p",977,TRUE,1,"shuf",-0.236530743979975
"398","CVOE updated",5,1,4,86,"S 34","Letter","Y",FALSE,"CV","q","q",740,TRUE,1,"shuf",-0.483098623507461
"399","CVOE updated",5,1,4,87,"U 85","Number","Y",FALSE,"OE","q","q",1034,TRUE,1,"shuf",-0.177229608397415
"400","CVOE updated",5,1,4,88,"J 77","Number","N",TRUE,"OE","q","q",1050,TRUE,1,"shuf",-0.16058367560231
"401","CVOE updated",5,1,4,89,"I 73","Letter","Y",FALSE,"CV","p","p",1517,TRUE,1,"shuf",0.325269487854803
"402","CVOE updated",5,1,4,90,"H 46","Number","Y",FALSE,"OE","p","p",2350,TRUE,1,"shuf",1.19189836399993
"403","CVOE updated",5,1,4,91,"D 04","Number","N",FALSE,"OE","p","p",708,TRUE,1,"shuf",-0.51639048909767
"404","CVOE updated",5,1,4,92,"P 72","Letter","Y",FALSE,"CV","q","q",1347,TRUE,1,"shuf",0.148406451906817
"405","CVOE updated",5,1,4,93,"D 99","Number","Y",TRUE,"OE","q","q",1032,TRUE,1,"shuf",-0.179310349996803
"406","CVOE updated",5,1,4,94,"U 25","Letter","Y",FALSE,"CV","p","p",1102,TRUE,1,"shuf",-0.106484394018221
"407","CVOE updated",5,1,4,95,"O 32","Letter","N",TRUE,"CV","p","p",796,TRUE,1,"shuf",-0.424837858724595
"408","CVOE updated",5,1,4,96,"E 80","Letter","N",TRUE,"CV","p","p",941,TRUE,1,"shuf",-0.27398409276896
"409","CVOE updated",5,1,4,97,"O 84","Number","Y",TRUE,"OE","p","p",1123,TRUE,1,"shuf",-0.084636607224646
"410","CVOE updated",5,1,4,98,"A 78","Number","N",TRUE,"OE","p","p",812,TRUE,1,"shuf",-0.40819192592949
"411","CVOE updated",5,1,4,99,"S 05","Number","N",TRUE,"OE","q","q",799,TRUE,1,"shuf",-0.421716746325513
"412","CVOE updated",5,1,4,100,"U 35","Letter","Y",FALSE,"CV","p","p",1071,TRUE,1,"shuf",-0.138735888808736
"413","CVOE updated",5,1,4,101,"H 14","Letter","N",FALSE,"CV","q","q",686,TRUE,1,"shuf",-0.539278646690938
"414","CVOE updated",5,1,4,102,"U 15","Number","Y",FALSE,"OE","q","q",1366,TRUE,1,"shuf",0.168173497101004
"415","CVOE updated",5,1,4,103,"E 36","Letter","Y",TRUE,"CV","p","p",1374,TRUE,1,"shuf",0.176496463498556
"416","CVOE updated",5,1,4,104,"P 70","Letter","N",FALSE,"CV","q","q",1169,TRUE,1,"shuf",-0.0367795504387205
"417","CVOE updated",5,1,4,105,"O 44","Number","Y",TRUE,"OE","p","p",1093,TRUE,1,"shuf",-0.115847731215467
"418","CVOE updated",5,1,4,106,"S 41","Letter","Y",TRUE,"CV","q","q",1352,TRUE,1,"shuf",0.153608305905288
"419","CVOE updated",5,1,4,107,"D 83","Letter","N",TRUE,"CV","q","q",1742,TRUE,1,"shuf",0.55935291778596
"420","CVOE updated",5,1,4,108,"J 39","Letter","N",TRUE,"CV","q","q",1276,TRUE,1,"shuf",0.074540125128541
"421","CVOE updated",5,1,4,109,"S 22","Number","Y",FALSE,"OE","p","p",678,TRUE,1,"shuf",-0.547601613088491
"422","CVOE updated",5,1,4,110,"D 89","Letter","Y",TRUE,"CV","q","q",1061,TRUE,1,"shuf",-0.149139596805676
"423","CVOE updated",5,1,4,111,"P 87","Letter","N",TRUE,"CV","q","q",2196,TRUE,1,"shuf",1.03168126084705
"424","CVOE updated",5,1,4,112,"H 42","Letter","N",FALSE,"CV","q","q",980,TRUE,1,"shuf",-0.233409631580893
"425","CVOE updated",5,1,4,113,"S 49","Letter","N",TRUE,"CV","q","q",1146,TRUE,1,"shuf",-0.0607080788316832
"426","CVOE updated",5,1,4,114,"J 20","Number","Y",FALSE,"OE","p","p",1384,TRUE,1,"shuf",0.186900171495497
"427","CVOE updated",5,1,4,115,"O 19","Letter","Y",FALSE,"CV","p","p",878,TRUE,1,"shuf",-0.339527453149684
"428","CVOE updated",5,1,4,116,"H 50","Letter","N",FALSE,"CV","q","q",735,TRUE,1,"shuf",-0.488300477505931
"429","CVOE updated",5,1,4,117,"I 68","Number","Y",TRUE,"OE","p","p",1074,TRUE,1,"shuf",-0.135614776409654
"430","CVOE updated",5,1,4,118,"J 72","Number","N",FALSE,"OE","q","p",1075,FALSE,0,"shuf",-0.13457440560996
"431","CVOE updated",5,1,4,119,"O 21","Number","N",FALSE,"OE","q","q",1372,TRUE,1,"shuf",0.174415721899168
"432","CVOE updated",5,1,4,120,"H 22","Number","N",FALSE,"OE","p","p",895,TRUE,1,"shuf",-0.321841149554885
"433","CVOE updated",1,1,1,11,"A 71","","",FALSE,"CV","p","p",2421,TRUE,1,"cv",1.26576469077821
"434","CVOE updated",1,1,1,12,"I 66","","",TRUE,"CV","p","p",717,TRUE,1,"cv",-0.507027151900423
"435","CVOE updated",1,1,1,13,"S 30","","",FALSE,"CV","q","q",566,TRUE,1,"cv",-0.664123142654222
"436","CVOE updated",1,1,1,14,"D 20","","",FALSE,"CV","q","q",868,TRUE,1,"cv",-0.349931161146624
"437","CVOE updated",1,1,1,15,"I 31","","",FALSE,"CV","p","p",550,TRUE,1,"cv",-0.680769075449327
"438","CVOE updated",1,1,1,16,"P 16","","",FALSE,"CV","q","q",731,TRUE,1,"cv",-0.492461960704707
"439","CVOE updated",1,1,1,17,"A 49","","",FALSE,"CV","p","p",784,TRUE,1,"cv",-0.437322308320923
"440","CVOE updated",1,1,1,18,"O 64","","",TRUE,"CV","p","p",1165,TRUE,1,"cv",-0.0409410336374966
"441","CVOE updated",1,1,1,19,"D 02","","",FALSE,"CV","q","q",1267,TRUE,1,"cv",0.0651767879312947
"442","CVOE updated",1,1,1,20,"P 81","","",TRUE,"CV","q","q",1141,TRUE,1,"cv",-0.0659099328301534
"443","CVOE updated",1,1,1,21,"J 58","","",FALSE,"CV","q","q",3512,TRUE,1,"cv",2.4008092332444
"444","CVOE updated",1,1,1,22,"A 22","","",TRUE,"CV","p","p",492,TRUE,1,"cv",-0.741110581831581
"445","CVOE updated",1,1,1,23,"J 72","","",FALSE,"CV","q","q",599,TRUE,1,"cv",-0.629790906264319
"446","CVOE updated",1,1,1,24,"P 91","","",TRUE,"CV","q","q",590,TRUE,1,"cv",-0.639154243461565
"447","CVOE updated",1,1,1,25,"E 19","","",FALSE,"CV","p","p",666,TRUE,1,"cv",-0.560086062684819
"448","CVOE updated",1,1,1,26,"I 30","","",TRUE,"CV","p","p",710,TRUE,1,"cv",-0.514309747498282
"449","CVOE updated",1,1,1,27,"D 91","","",TRUE,"CV","q","q",515,TRUE,1,"cv",-0.717182053438618
"450","CVOE updated",1,1,1,28,"O 48","","",TRUE,"CV","p","p",823,TRUE,1,"cv",-0.396747847132856
"451","CVOE updated",1,1,1,29,"A 89","","",FALSE,"CV","p","p",545,TRUE,1,"cv",-0.685970929447797
"452","CVOE updated",1,1,1,30,"U 11","","",FALSE,"CV","p","p",736,TRUE,1,"cv",-0.487260106706237
"453","CVOE updated",1,1,1,31,"I 76","","",TRUE,"CV","p","p",608,TRUE,1,"cv",-0.620427569067073
"454","CVOE updated",1,1,1,32,"U 89","","",FALSE,"CV","p","p",978,TRUE,1,"cv",-0.235490373180281
"455","CVOE updated",1,1,1,33,"D 63","","",TRUE,"CV","q","q",482,TRUE,1,"cv",-0.751514289828521
"456","CVOE updated",1,1,1,34,"H 70","","",FALSE,"CV","q","q",795,TRUE,1,"cv",-0.425878229524289
"457","CVOE updated",1,1,1,35,"D 48","","",FALSE,"CV","q","q",585,TRUE,1,"cv",-0.644356097460036
"458","CVOE updated",1,1,1,36,"P 56","","",FALSE,"CV","p","q",520,FALSE,0,"cv",-0.711980199440148
"459","CVOE updated",1,1,1,37,"O 77","","",FALSE,"CV","p","p",1241,TRUE,1,"cv",0.0381271471392499
"460","CVOE updated",1,1,1,38,"P 42","","",FALSE,"CV","q","q",601,TRUE,1,"cv",-0.627710164664931
"461","CVOE updated",1,1,1,39,"H 22","","",FALSE,"CV","q","q",808,TRUE,1,"cv",-0.412353409128266
"462","CVOE updated",1,1,1,40,"E 42","","",TRUE,"CV","p","p",579,TRUE,1,"cv",-0.6505983222582
"463","CVOE updated",1,1,1,41,"J 28","","",FALSE,"CV","q","q",537,TRUE,1,"cv",-0.694293895845349
"464","CVOE updated",1,1,1,42,"E 95","","",FALSE,"CV","p","p",698,TRUE,1,"cv",-0.52679419709461
"465","CVOE updated",1,1,1,43,"S 63","","",TRUE,"CV","q","q",1279,TRUE,1,"cv",0.0776612375276231
"466","CVOE updated",1,1,1,44,"H 50","","",FALSE,"CV","q","q",1077,TRUE,1,"cv",-0.132493664010571
"467","CVOE updated",1,1,1,45,"S 33","","",TRUE,"CV","q","q",619,TRUE,1,"cv",-0.608983490270439
"468","CVOE updated",1,1,1,46,"P 57","","",TRUE,"CV","q","q",705,TRUE,1,"cv",-0.519511601496752
"469","CVOE updated",1,1,1,47,"E 23","","",FALSE,"CV","p","p",568,TRUE,1,"cv",-0.662042401054834
"470","CVOE updated",1,1,1,48,"S 61","","",TRUE,"CV","q","q",465,TRUE,1,"cv",-0.769200593423319
"471","CVOE updated",1,1,1,49,"U 67","","",FALSE,"CV","p","p",564,TRUE,1,"cv",-0.66620388425361
"472","CVOE updated",1,1,1,50,"H 32","","",FALSE,"CV","q","q",507,TRUE,1,"cv",-0.72550501983617
"473","CVOE updated",1,1,1,51,"U 50","","",TRUE,"CV","p","p",635,TRUE,1,"cv",-0.592337557475334
"474","CVOE updated",1,1,1,52,"O 49","","",FALSE,"CV","p","p",2704,TRUE,1,"cv",1.56018962709162
"475","CVOE updated",1,1,1,53,"U 32","","",TRUE,"CV","p","p",865,TRUE,1,"cv",-0.353052273545706
"476","CVOE updated",1,1,1,54,"J 78","","",FALSE,"CV","q","q",523,TRUE,1,"cv",-0.708859087041066
"477","CVOE updated",1,1,1,55,"S 54","","",FALSE,"CV","q","q",577,TRUE,1,"cv",-0.652679063857588
"478","CVOE updated",1,1,1,56,"J 27","","",TRUE,"CV","q","q",680,TRUE,1,"cv",-0.545520871489102
"479","CVOE updated",1,1,1,57,"S 06","","",FALSE,"CV","q","q",387,TRUE,1,"cv",-0.850349515799454
"480","CVOE updated",1,1,1,58,"D 67","","",TRUE,"CV","q","q",411,TRUE,1,"cv",-0.825380616606797
"481","CVOE updated",1,1,1,59,"A 79","","",FALSE,"CV","p","p",500,TRUE,1,"cv",-0.732787615434028
"482","CVOE updated",1,1,1,60,"S 52","","",FALSE,"CV","q","q",490,TRUE,1,"cv",-0.743191323430969
"483","CVOE updated",1,1,1,61,"U 16","","",TRUE,"CV","p","p",1018,TRUE,1,"cv",-0.193875541192519
"484","CVOE updated",1,1,1,62,"O 82","","",TRUE,"CV","p","p",609,TRUE,1,"cv",-0.619387198267379
"485","CVOE updated",1,1,1,63,"H 87","","",TRUE,"CV","q","q",586,TRUE,1,"cv",-0.643315726660342
"486","CVOE updated",1,1,1,64,"I 32","","",TRUE,"CV","p","p",397,TRUE,1,"cv",-0.839945807802514
"487","CVOE updated",1,1,1,65,"U 37","","",FALSE,"CV","p","p",543,TRUE,1,"cv",-0.688051671047185
"488","CVOE updated",1,1,1,66,"I 42","","",TRUE,"CV","p","p",455,TRUE,1,"cv",-0.77960430142026
"489","CVOE updated",1,1,1,67,"D 65","","",TRUE,"CV","q","q",432,TRUE,1,"cv",-0.803532829813223
"490","CVOE updated",1,1,1,68,"U 77","","",FALSE,"CV","p","p",619,TRUE,1,"cv",-0.608983490270439
"491","CVOE updated",1,1,1,69,"E 12","","",TRUE,"CV","p","p",464,TRUE,1,"cv",-0.770240964223014
"492","CVOE updated",1,1,1,70,"I 60","","",TRUE,"CV","p","p",490,TRUE,1,"cv",-0.743191323430969
"493","CVOE updated",1,1,1,71,"J 36","","",FALSE,"CV","q","q",545,TRUE,1,"cv",-0.685970929447797
"494","CVOE updated",1,1,1,72,"H 75","","",TRUE,"CV","q","q",2057,TRUE,1,"cv",0.887069719689581
"495","CVOE updated",1,1,1,73,"I 50","","",TRUE,"CV","p","p",504,TRUE,1,"cv",-0.728626132235252
"496","CVOE updated",1,1,1,74,"E 99","","",FALSE,"CV","p","p",771,TRUE,1,"cv",-0.450847128716945
"497","CVOE updated",1,1,1,75,"A 86","","",TRUE,"CV","p","p",596,TRUE,1,"cv",-0.632912018663401
"498","CVOE updated",1,1,1,76,"U 48","","",TRUE,"CV","p","p",514,TRUE,1,"cv",-0.718222424238312
"499","CVOE updated",1,1,1,77,"E 01","","",FALSE,"CV","p","p",468,TRUE,1,"cv",-0.766079481024237
"500","CVOE updated",1,1,1,78,"A 78","","",TRUE,"CV","p","p",356,TRUE,1,"cv",-0.882601010589969
"501","CVOE updated",1,1,1,79,"P 60","","",FALSE,"CV","q","q",500,TRUE,1,"cv",-0.732787615434028
"502","CVOE updated",1,1,1,80,"E 43","","",FALSE,"CV","p","p",662,TRUE,1,"cv",-0.564247545883595
"503","CVOE updated",1,1,1,81,"D 69","","",TRUE,"CV","q","q",627,TRUE,1,"cv",-0.600660523872886
"504","CVOE updated",1,1,1,82,"H 11","","",TRUE,"CV","q","q",634,TRUE,1,"cv",-0.593377928275028
"505","CVOE updated",1,1,1,83,"P 43","","",TRUE,"CV","q","q",568,TRUE,1,"cv",-0.662042401054834
"506","CVOE updated",1,1,1,84,"O 67","","",FALSE,"CV","p","p",433,TRUE,1,"cv",-0.802492459013529
"507","CVOE updated",1,1,1,85,"S 91","","",FALSE,"CV","q","q",533,TRUE,1,"cv",-0.698455379044125
"508","CVOE updated",1,1,1,86,"J 68","","",TRUE,"CV","q","q",674,TRUE,1,"cv",-0.551763096287267
"509","CVOE updated",1,1,1,87,"S 47","","",FALSE,"CV","q","q",443,TRUE,1,"cv",-0.792088751016588
"510","CVOE updated",1,1,1,88,"I 81","","",TRUE,"CV","p","p",478,TRUE,1,"cv",-0.755675773027297
"511","CVOE updated",1,1,1,89,"J 39","","",FALSE,"CV","q","q",483,TRUE,1,"cv",-0.750473919028827
"512","CVOE updated",1,1,1,90,"A 11","","",TRUE,"CV","p","p",454,TRUE,1,"cv",-0.780644672219954
"513","CVOE updated",1,1,1,91,"O 76","","",FALSE,"CV","p","p",726,TRUE,1,"cv",-0.497663814703177
"514","CVOE updated",1,1,1,92,"A 62","","",FALSE,"CV","p","p",563,TRUE,1,"cv",-0.667244255053304
"515","CVOE updated",1,1,1,93,"O 27","","",TRUE,"CV","p","p",554,TRUE,1,"cv",-0.676607592250551
"516","CVOE updated",1,1,1,94,"E 66","","",FALSE,"CV","p","p",653,TRUE,1,"cv",-0.573610883080841
"517","CVOE updated",1,1,1,95,"J 62","","",TRUE,"CV","q","q",924,TRUE,1,"cv",-0.291670396363759
"518","CVOE updated",1,1,1,96,"H 72","","",TRUE,"CV","q","q",541,TRUE,1,"cv",-0.690132412646573
"519","CVOE updated",1,1,1,97,"E 49","","",TRUE,"CV","p","p",575,TRUE,1,"cv",-0.654759805456976
"520","CVOE updated",1,1,1,98,"D 52","","",TRUE,"CV","q","q",754,TRUE,1,"cv",-0.468533432311744
"521","CVOE updated",1,1,1,99,"H 62","","",TRUE,"CV","q","q",633,TRUE,1,"cv",-0.594418299074722
"522","CVOE updated",1,1,1,100,"I 11","","",TRUE,"CV","p","p",544,TRUE,1,"cv",-0.687011300247491
"523","CVOE updated",1,1,1,101,"A 98","","",FALSE,"CV","p","p",588,TRUE,1,"cv",-0.641234985060953
"524","CVOE updated",1,1,1,102,"H 29","","",FALSE,"CV","q","q",516,TRUE,1,"cv",-0.716141682638924
"525","CVOE updated",1,1,1,103,"E 83","","",TRUE,"CV","p","p",544,TRUE,1,"cv",-0.687011300247491
"526","CVOE updated",1,1,1,104,"D 43","","",FALSE,"CV","q","q",919,TRUE,1,"cv",-0.296872250362229
"527","CVOE updated",1,1,1,105,"P 45","","",TRUE,"CV","q","q",658,TRUE,1,"cv",-0.568409029082371
"528","CVOE updated",1,1,1,106,"J 17","","",TRUE,"CV","q","q",504,TRUE,1,"cv",-0.728626132235252
"529","CVOE updated",1,1,2,11,"A 24","","",TRUE,"OE","p","p",2299,TRUE,1,"oe",1.13883945321554
"530","CVOE updated",1,1,2,12,"O 83","","",FALSE,"OE","q","q",547,TRUE,1,"oe",-0.683890187848409
"531","CVOE updated",1,1,2,13,"H 55","","",TRUE,"OE","q","q",1340,TRUE,1,"oe",0.141123856308959
"532","CVOE updated",1,1,2,14,"P 10","","",FALSE,"OE","p","p",1936,TRUE,1,"oe",0.761184852926603
"533","CVOE updated",1,1,2,15,"D 30","","",FALSE,"OE","p","p",667,TRUE,1,"oe",-0.559045691885125
"535","CVOE updated",1,1,2,17,"P 95","","",TRUE,"OE","q","q",797,TRUE,1,"oe",-0.423797487924901
"536","CVOE updated",1,1,2,18,"U 06","","",TRUE,"OE","p","p",910,TRUE,1,"oe",-0.306235587559475
"537","CVOE updated",1,1,2,19,"E 75","","",FALSE,"OE","q","q",710,TRUE,1,"oe",-0.514309747498282
"538","CVOE updated",1,1,2,20,"I 67","","",FALSE,"OE","q","q",1126,TRUE,1,"oe",-0.0815154948255639
"539","CVOE updated",1,1,2,21,"S 13","","",TRUE,"OE","q","q",638,TRUE,1,"oe",-0.589216445076252
"540","CVOE updated",1,1,2,22,"P 78","","",FALSE,"OE","p","p",775,TRUE,1,"oe",-0.446685645518169
"541","CVOE updated",1,1,2,23,"I 15","","",FALSE,"OE","q","q",1924,TRUE,1,"oe",0.748700403330274
"542","CVOE updated",1,1,2,24,"D 27","","",TRUE,"OE","q","q",968,TRUE,1,"oe",-0.245894081177221
"543","CVOE updated",1,1,2,25,"O 94","","",TRUE,"OE","p","p",583,TRUE,1,"oe",-0.646436839059424
"544","CVOE updated",1,1,2,26,"A 65","","",FALSE,"OE","q","q",622,TRUE,1,"oe",-0.605862377871356
"545","CVOE updated",1,1,2,27,"I 42","","",TRUE,"OE","p","p",493,TRUE,1,"oe",-0.740070211031887
"546","CVOE updated",1,1,2,28,"E 25","","",FALSE,"OE","q","q",683,TRUE,1,"oe",-0.54239975909002
"547","CVOE updated",1,1,2,29,"H 49","","",TRUE,"OE","q","q",672,TRUE,1,"oe",-0.553843837886655
"548","CVOE updated",1,1,2,30,"S 18","","",FALSE,"OE","p","p",772,TRUE,1,"oe",-0.449806757917251
"549","CVOE updated",1,1,2,31,"H 51","","",TRUE,"OE","q","q",1035,TRUE,1,"oe",-0.176189237597721
"550","CVOE updated",1,1,2,32,"U 14","","",TRUE,"OE","p","p",648,TRUE,1,"oe",-0.578812737079312
"551","CVOE updated",1,1,2,33,"E 02","","",TRUE,"OE","q","p",462,FALSE,0,"oe",-0.772321705822402
"552","CVOE updated",1,1,2,34,"J 26","","",FALSE,"OE","p","p",996,TRUE,1,"oe",-0.216763698785788
"553","CVOE updated",1,1,2,35,"D 24","","",FALSE,"OE","p","p",704,TRUE,1,"oe",-0.520551972296446
"554","CVOE updated",1,1,2,36,"O 50","","",TRUE,"OE","p","p",753,TRUE,1,"oe",-0.469573803111438
"555","CVOE updated",1,1,2,37,"U 16","","",TRUE,"OE","p","p",615,TRUE,1,"oe",-0.613144973469215
"556","CVOE updated",1,1,2,38,"O 15","","",FALSE,"OE","q","q",629,TRUE,1,"oe",-0.598579782273498
"557","CVOE updated",1,1,2,39,"D 32","","",FALSE,"OE","p","p",593,TRUE,1,"oe",-0.636033131062483
"558","CVOE updated",1,1,2,40,"S 67","","",TRUE,"OE","q","q",667,TRUE,1,"oe",-0.559045691885125
"559","CVOE updated",1,1,2,41,"J 74","","",FALSE,"OE","p","p",584,TRUE,1,"oe",-0.64539646825973
"560","CVOE updated",1,1,2,42,"D 92","","",FALSE,"OE","p","p",806,TRUE,1,"oe",-0.414434150727654
"561","CVOE updated",1,1,2,43,"A 65","","",FALSE,"OE","q","q",910,TRUE,1,"oe",-0.306235587559475
"562","CVOE updated",1,1,2,44,"I 87","","",FALSE,"OE","q","q",1626,TRUE,1,"oe",0.438669905021452
"563","CVOE updated",1,1,2,45,"H 61","","",TRUE,"OE","q","q",751,TRUE,1,"oe",-0.471654544710826
"564","CVOE updated",1,1,2,46,"E 59","","",FALSE,"OE","q","q",1246,TRUE,1,"oe",0.04332900113772
"565","CVOE updated",1,1,2,47,"I 33","","",FALSE,"OE","q","q",1790,TRUE,1,"oe",0.609290716171274
"566","CVOE updated",1,1,2,48,"O 90","","",TRUE,"OE","p","p",1999,TRUE,1,"oe",0.826728213307327
"567","CVOE updated",1,1,2,49,"U 51","","",FALSE,"OE","q","q",1705,TRUE,1,"oe",0.520859198197281
"568","CVOE updated",1,1,2,50,"A 10","","",TRUE,"OE","p","p",809,TRUE,1,"oe",-0.411313038328572
"569","CVOE updated",1,1,2,51,"E 50","","",TRUE,"OE","p","p",827,TRUE,1,"oe",-0.39258636393408
"570","CVOE updated",1,1,2,52,"D 92","","",FALSE,"OE","p","p",645,TRUE,1,"oe",-0.581933849478394
"571","CVOE updated",1,1,2,53,"E 60","","",TRUE,"OE","p","p",530,TRUE,1,"oe",-0.701576491443207
"572","CVOE updated",1,1,2,54,"A 95","","",FALSE,"OE","q","q",670,TRUE,1,"oe",-0.555924579486043
"573","CVOE updated",1,1,2,55,"E 64","","",TRUE,"OE","p","p",1069,TRUE,1,"oe",-0.140816630408124
"574","CVOE updated",1,1,2,56,"P 20","","",FALSE,"OE","q","p",693,FALSE,0,"oe",-0.53199605109308
"575","CVOE updated",1,1,2,57,"S 06","","",FALSE,"OE","p","p",992,TRUE,1,"oe",-0.220925181984564
"576","CVOE updated",1,1,2,58,"P 64","","",FALSE,"OE","p","p",676,TRUE,1,"oe",-0.549682354687879
"577","CVOE updated",1,1,2,59,"U 70","","",TRUE,"OE","p","p",931,TRUE,1,"oe",-0.2843878007659
"578","CVOE updated",1,1,2,60,"S 16","","",FALSE,"OE","p","p",1158,TRUE,1,"oe",-0.0482236292353548
"579","CVOE updated",1,1,2,61,"E 35","","",FALSE,"OE","q","q",592,TRUE,1,"oe",-0.637073501862177
"580","CVOE updated",1,1,2,62,"I 93","","",FALSE,"OE","q","q",1307,TRUE,1,"oe",0.106791619919056
"581","CVOE updated",1,1,2,63,"D 63","","",TRUE,"OE","q","q",809,TRUE,1,"oe",-0.411313038328572
"582","CVOE updated",1,1,2,64,"U 89","","",FALSE,"OE","p","q",617,FALSE,0,"oe",-0.611064231869827
"583","CVOE updated",1,1,2,65,"E 91","","",FALSE,"OE","q","q",550,TRUE,1,"oe",-0.680769075449327
"584","CVOE updated",1,1,2,66,"A 12","","",TRUE,"OE","p","p",576,TRUE,1,"oe",-0.653719434657282
"585","CVOE updated",1,1,2,67,"P 56","","",FALSE,"OE","q","p",580,FALSE,0,"oe",-0.649557951458506
"586","CVOE updated",1,1,2,68,"S 65","","",TRUE,"OE","q","q",2551,TRUE,1,"oe",1.40101289473843
"587","CVOE updated",1,1,2,69,"P 07","","",TRUE,"OE","q","q",692,TRUE,1,"oe",-0.533036421892774
"588","CVOE updated",1,1,2,70,"I 77","","",FALSE,"OE","q","q",514,TRUE,1,"oe",-0.718222424238312
"589","CVOE updated",1,1,2,71,"J 19","","",TRUE,"OE","q","q",656,TRUE,1,"oe",-0.570489770681759
"590","CVOE updated",1,1,2,72,"O 59","","",FALSE,"OE","q","q",577,TRUE,1,"oe",-0.652679063857588
"591","CVOE updated",1,1,2,73,"J 15","","",TRUE,"OE","q","q",581,TRUE,1,"oe",-0.648517580658812
"592","CVOE updated",1,1,2,74,"I 89","","",FALSE,"OE","q","q",530,TRUE,1,"oe",-0.701576491443207
"593","CVOE updated",1,1,2,75,"O 97","","",FALSE,"OE","q","q",508,TRUE,1,"oe",-0.724464649036476
"594","CVOE updated",1,1,2,76,"A 92","","",TRUE,"OE","p","p",601,TRUE,1,"oe",-0.627710164664931
"595","CVOE updated",1,1,2,77,"J 90","","",FALSE,"OE","p","p",803,TRUE,1,"oe",-0.417555263126736
"596","CVOE updated",1,1,2,78,"H 65","","",TRUE,"OE","q","q",548,TRUE,1,"oe",-0.682849817048715
"597","CVOE updated",1,1,2,79,"H 17","","",TRUE,"OE","q","q",747,TRUE,1,"oe",-0.475816027909602
"598","CVOE updated",1,1,2,80,"S 26","","",FALSE,"OE","p","p",856,TRUE,1,"oe",-0.362415610742953
"599","CVOE updated",1,1,2,81,"D 56","","",FALSE,"OE","p","p",727,TRUE,1,"oe",-0.496623443903483
"600","CVOE updated",1,1,2,82,"I 91","","",FALSE,"OE","q","q",604,TRUE,1,"oe",-0.624589052265849
"601","CVOE updated",1,1,2,83,"J 11","","",TRUE,"OE","q","q",3823,TRUE,1,"oe",2.72436455194924
"602","CVOE updated",1,1,2,84,"O 28","","",TRUE,"OE","p","p",1164,TRUE,1,"oe",-0.0419814044371906
"603","CVOE updated",1,1,2,85,"H 29","","",TRUE,"OE","q","q",778,TRUE,1,"oe",-0.443564533119087
"604","CVOE updated",1,1,2,86,"J 25","","",TRUE,"OE","q","q",676,TRUE,1,"oe",-0.549682354687879
"605","CVOE updated",1,1,2,87,"A 73","","",FALSE,"OE","q","q",1936,TRUE,1,"oe",0.761184852926603
"606","CVOE updated",1,1,2,88,"J 63","","",TRUE,"OE","q","q",568,TRUE,1,"oe",-0.662042401054834
"607","CVOE updated",1,1,2,89,"U 84","","",TRUE,"OE","p","p",657,TRUE,1,"oe",-0.569449399882065
"608","CVOE updated",1,1,2,90,"A 58","","",TRUE,"OE","p","p",1580,TRUE,1,"oe",0.390812848235527
"609","CVOE updated",1,1,2,91,"S 43","","",TRUE,"OE","q","q",706,TRUE,1,"oe",-0.518471230697058
"610","CVOE updated",1,1,2,92,"H 54","","",FALSE,"OE","p","p",479,TRUE,1,"oe",-0.754635402227603
"611","CVOE updated",1,1,2,93,"D 4","","",FALSE,"OE","p","p",487,TRUE,1,"oe",-0.746312435830051
"612","CVOE updated",1,1,2,94,"J 75","","",TRUE,"OE","q","q",561,TRUE,1,"oe",-0.669324996652692
"613","CVOE updated",1,1,2,95,"D 19","","",TRUE,"OE","q","q",711,TRUE,1,"oe",-0.513269376698588
"614","CVOE updated",1,1,2,96,"J 38","","",FALSE,"OE","p","p",2268,TRUE,1,"oe",1.10658795842502
"615","CVOE updated",1,1,2,97,"I 56","","",TRUE,"OE","p","p",858,TRUE,1,"oe",-0.360334869143565
"616","CVOE updated",1,1,2,98,"P 87","","",TRUE,"OE","q","q",594,TRUE,1,"oe",-0.634992760262789
"617","CVOE updated",1,1,2,99,"O 80","","",TRUE,"OE","p","p",633,TRUE,1,"oe",-0.594418299074722
"618","CVOE updated",1,1,2,100,"U 60","","",TRUE,"OE","p","p",654,TRUE,1,"oe",-0.572570512281147
"619","CVOE updated",1,1,2,101,"P 48","","",FALSE,"OE","p","p",783,TRUE,1,"oe",-0.438362679120617
"620","CVOE updated",1,1,2,102,"H 64","","",FALSE,"OE","p","p",518,TRUE,1,"oe",-0.714060941039536
"621","CVOE updated",1,1,2,103,"A 13","","",FALSE,"OE","q","q",895,TRUE,1,"oe",-0.321841149554885
"622","CVOE updated",1,1,2,104,"H 68","","",FALSE,"OE","p","p",707,TRUE,1,"oe",-0.517430859897364
"623","CVOE updated",1,1,2,105,"E 16","","",TRUE,"OE","p","p",394,TRUE,1,"oe",-0.843066920201596
"624","CVOE updated",1,1,2,106,"S 71","","",TRUE,"OE","q","q",782,TRUE,1,"oe",-0.439403049920311
"626","CVOE updated",1,1,3,12,"D 94","Letter","N",FALSE,"CV","q","q",774,TRUE,1,"alt",-0.447726016317863
"627","CVOE updated",1,1,3,13,"E 75","Number","Y",FALSE,"OE","q","p",984,FALSE,0,"alt",-0.229248148382117
"628","CVOE updated",1,1,3,14,"H 81","Number","N",TRUE,"OE","q","p",1156,FALSE,0,"alt",-0.0503043708347429
"629","CVOE updated",1,1,3,15,"I 64","Letter","Y",TRUE,"CV","p","p",1870,TRUE,1,"alt",0.692520380146796
"630","CVOE updated",1,1,3,16,"J 54","Letter","N",FALSE,"CV","q","q",1302,TRUE,1,"alt",0.101589765920586
"631","CVOE updated",1,1,3,17,"O 23","Number","Y",FALSE,"OE","q","q",1080,TRUE,1,"alt",-0.129372551611489
"632","CVOE updated",1,1,3,18,"P 05","Number","N",TRUE,"OE","q","q",1037,TRUE,1,"alt",-0.174108495998333
"633","CVOE updated",1,1,3,19,"S 34","Letter","Y",FALSE,"CV","q","q",2284,TRUE,1,"alt",1.12323389122013
"634","CVOE updated",1,1,3,20,"U 88","Letter","N",TRUE,"CV","p","p",2358,TRUE,1,"alt",1.20022133039748
"636","CVOE updated",1,1,3,22,"D 12","Number","N",FALSE,"OE","p","p",2017,TRUE,1,"alt",0.845454887701819
"637","CVOE updated",1,1,3,23,"E 79","Letter","Y",FALSE,"CV","p","p",1120,TRUE,1,"alt",-0.0877577196237281
"638","CVOE updated",1,1,3,24,"H 72","Letter","N",FALSE,"CV","q","q",1383,TRUE,1,"alt",0.185859800695803
"639","CVOE updated",1,1,3,25,"I 41","Number","Y",FALSE,"OE","q","q",1162,TRUE,1,"alt",-0.0440621460365787
"640","CVOE updated",1,1,3,26,"J 63","Number","N",TRUE,"OE","q","q",754,TRUE,1,"alt",-0.468533432311744
"641","CVOE updated",1,1,3,27,"O 03","Letter","Y",FALSE,"CV","p","p",1394,TRUE,1,"alt",0.197303879492437
"642","CVOE updated",1,1,3,28,"P 75","Letter","N",TRUE,"CV","q","q",920,TRUE,1,"alt",-0.295831879562535
"643","CVOE updated",1,1,3,29,"S 61","Number","Y",TRUE,"OE","q","q",1259,TRUE,1,"alt",0.0568538215337425
"644","CVOE updated",1,1,3,30,"U 28","Number","N",TRUE,"OE","p","p",1628,TRUE,1,"alt",0.440750646620841
"645","CVOE updated",1,1,3,31,"A 21","Letter","Y",FALSE,"CV","p","p",1202,TRUE,1,"alt",-0.0024473140488174
"646","CVOE updated",1,1,3,32,"D 18","Letter","N",FALSE,"CV","q","q",696,TRUE,1,"alt",-0.528874938693998
"647","CVOE updated",1,1,3,33,"E 35","Number","Y",FALSE,"OE","q","q",3027,TRUE,1,"alt",1.89622939539279
"650","CVOE updated",1,1,3,36,"J 78","Letter","N",FALSE,"CV","q","q",1014,TRUE,1,"alt",-0.198037024391296
"651","CVOE updated",1,1,3,37,"O 12","Number","Y",TRUE,"OE","p","p",900,TRUE,1,"alt",-0.316639295556415
"652","CVOE updated",1,1,3,38,"P 13","Number","N",TRUE,"OE","q","q",1314,TRUE,1,"alt",0.114074215516914
"653","CVOE updated",1,1,3,39,"S 07","Letter","Y",TRUE,"CV","q","q",1870,TRUE,1,"alt",0.692520380146796
"654","CVOE updated",1,1,3,40,"U 36","Letter","N",TRUE,"CV","p","p",1065,TRUE,1,"alt",-0.1449781136069
"655","CVOE updated",1,1,3,41,"A 96","Number","Y",TRUE,"OE","p","p",1780,TRUE,1,"alt",0.598887008174333
"656","CVOE updated",1,1,3,42,"D 04","Number","N",FALSE,"OE","p","p",1409,TRUE,1,"alt",0.212909441487847
"657","CVOE updated",1,1,3,43,"E 60","Letter","Y",TRUE,"CV","p","p",3064,TRUE,1,"alt",1.93472311498147
"658","CVOE updated",1,1,3,44,"H 83","Letter","N",TRUE,"CV","q","q",3153,TRUE,1,"alt",2.02731611615424
"659","CVOE updated",1,1,3,45,"I 64","Number","Y",TRUE,"OE","p","p",876,TRUE,1,"alt",-0.341608194749072
"660","CVOE updated",1,1,3,46,"J 76","Number","N",FALSE,"OE","p","p",2779,TRUE,1,"alt",1.63821743706867
"661","CVOE updated",1,1,3,47,"O 78","Letter","Y",TRUE,"CV","p","p",1225,TRUE,1,"alt",0.0214812143441453
"662","CVOE updated",1,1,3,48,"P 09","Letter","N",TRUE,"CV","q","q",1086,TRUE,1,"alt",-0.123130326813325
"663","CVOE updated",1,1,3,49,"S 72","Number","Y",FALSE,"OE","p","p",1121,TRUE,1,"alt",-0.086717348824034
"664","CVOE updated",1,1,3,50,"U 47","Number","N",FALSE,"OE","q","q",1416,TRUE,1,"alt",0.220192037085706
"666","CVOE updated",1,1,3,52,"D 96","Letter","N",FALSE,"CV","q","q",815,TRUE,1,"alt",-0.405070813530408
"667","CVOE updated",1,1,3,53,"E 40","Number","Y",TRUE,"OE","p","p",1455,TRUE,1,"alt",0.260766498273773
"668","CVOE updated",1,1,3,54,"H 79","Number","N",TRUE,"OE","q","q",1198,TRUE,1,"alt",-0.00660879724759353
"669","CVOE updated",1,1,3,55,"I 15","Letter","Y",FALSE,"CV","p","p",1813,TRUE,1,"alt",0.633219244564237
"670","CVOE updated",1,1,3,56,"J 07","Letter","N",TRUE,"CV","q","q",659,TRUE,1,"alt",-0.567368658282677
"671","CVOE updated",1,1,3,57,"O 61","Number","Y",FALSE,"OE","q","q",1764,TRUE,1,"alt",0.582241075379229
"672","CVOE updated",1,1,3,58,"P 58","Number","N",FALSE,"OE","p","p",3112,TRUE,1,"alt",1.98466091336679
"673","CVOE updated",1,1,3,59,"S 37","Letter","Y",TRUE,"CV","q","q",1908,TRUE,1,"alt",0.73205447053517
"674","CVOE updated",1,1,3,60,"U 61","Letter","N",FALSE,"CV","p","p",2186,TRUE,1,"alt",1.02127755285011
"675","CVOE updated",1,1,3,61,"A 17","Number","Y",FALSE,"OE","q","q",2114,TRUE,1,"alt",0.94637085527214
"676","CVOE updated",1,1,3,62,"D 85","Number","N",TRUE,"OE","q","q",2260,TRUE,1,"alt",1.09826499202747
"677","CVOE updated",1,1,3,63,"E 20","Letter","Y",TRUE,"CV","p","p",1388,TRUE,1,"alt",0.191061654694273
"678","CVOE updated",1,1,3,64,"H 86","Letter","N",FALSE,"CV","q","q",1471,TRUE,1,"alt",0.277412431068877
"679","CVOE updated",1,1,3,65,"I 21","Number","Y",FALSE,"OE","q","q",1775,TRUE,1,"alt",0.593685154175863
"680","CVOE updated",1,1,3,66,"J 29","Number","N",TRUE,"OE","q","q",1514,TRUE,1,"alt",0.322148375455721
"681","CVOE updated",1,1,3,67,"O 13","Letter","Y",FALSE,"CV","p","p",1135,TRUE,1,"alt",-0.0721521576283176
"682","CVOE updated",1,1,3,68,"P 82","Letter","N",FALSE,"CV","q","q",1062,TRUE,1,"alt",-0.148099226005982
"683","CVOE updated",1,1,3,69,"S 72","Number","Y",FALSE,"OE","p","p",1697,TRUE,1,"alt",0.512536231799729
"684","CVOE updated",1,1,3,70,"U 84","Number","N",TRUE,"OE","p","p",1048,TRUE,1,"alt",-0.162664417201698
"685","CVOE updated",1,1,3,71,"A 49","Letter","Y",FALSE,"CV","p","p",1002,TRUE,1,"alt",-0.210521473987624
"686","CVOE updated",1,1,3,72,"D 91","Letter","N",TRUE,"CV","q","q",1549,TRUE,1,"alt",0.358561353445012
"687","CVOE updated",1,1,3,73,"E 99","Number","Y",FALSE,"OE","q","q",4038,TRUE,1,"alt",2.94804427388346
"689","CVOE updated",1,1,3,75,"I 45","Letter","Y",FALSE,"CV","p","p",943,TRUE,1,"alt",-0.271903351169572
"690","CVOE updated",1,1,3,76,"J 70","Letter","N",FALSE,"CV","q","q",846,TRUE,1,"alt",-0.372819318739893
"691","CVOE updated",1,1,3,77,"O 22","Number","Y",TRUE,"OE","p","p",839,TRUE,1,"alt",-0.380101914337751
"692","CVOE updated",1,1,3,78,"P 41","Number","N",TRUE,"OE","q","q",1393,TRUE,1,"alt",0.196263508692743
"693","CVOE updated",1,1,3,79,"S 93","Letter","Y",TRUE,"CV","q","q",1807,TRUE,1,"alt",0.626977019766072
"694","CVOE updated",1,1,3,80,"U 70","Letter","N",TRUE,"CV","p","p",1438,TRUE,1,"alt",0.243080194678974
"695","CVOE updated",1,1,3,81,"A 42","Number","Y",TRUE,"OE","p","p",1096,TRUE,1,"alt",-0.112726618816385
"696","CVOE updated",1,1,3,82,"D 85","Number","N",TRUE,"OE","q","q",1199,TRUE,1,"alt",-0.0055684264478995
"697","CVOE updated",1,1,3,83,"E 68","Letter","Y",TRUE,"CV","p","p",1284,TRUE,1,"alt",0.0828630915260933
"698","CVOE updated",1,1,3,84,"H 17","Letter","N",TRUE,"CV","q","q",2257,TRUE,1,"alt",1.09514387962839
"699","CVOE updated",1,1,3,85,"I 70","Number","Y",TRUE,"OE","p","p",1831,TRUE,1,"alt",0.651945918958729
"700","CVOE updated",1,1,3,86,"J 88","Number","N",FALSE,"OE","p","p",1482,TRUE,1,"alt",0.288856509865512
"701","CVOE updated",1,1,3,87,"O 32","Letter","Y",TRUE,"CV","p","p",2011,TRUE,1,"alt",0.839212662903655
"702","CVOE updated",1,1,3,88,"P 95","Letter","N",TRUE,"CV","q","q",1299,TRUE,1,"alt",0.0984686535215038
"703","CVOE updated",1,1,3,89,"S 98","Number","Y",FALSE,"OE","p","p",1619,TRUE,1,"alt",0.431387309423594
"704","CVOE updated",1,1,3,90,"U 37","Number","N",FALSE,"OE","q","q",3488,TRUE,1,"alt",2.37584033405174
"705","CVOE updated",1,1,3,91,"A 56","Letter","Y",TRUE,"CV","p","p",1727,TRUE,1,"alt",0.54374735579055
"706","CVOE updated",1,1,3,92,"D 57","Letter","N",TRUE,"CV","q","q",1528,TRUE,1,"alt",0.336713566651437
"708","CVOE updated",1,1,3,94,"H 27","Number","N",TRUE,"OE","q","q",3451,TRUE,1,"alt",2.33734661446306
"709","CVOE updated",1,1,3,95,"I 35","Letter","Y",FALSE,"CV","p","p",1576,TRUE,1,"alt",0.386651365036751
"710","CVOE updated",1,1,3,96,"J 03","Letter","N",TRUE,"CV","q","q",1591,TRUE,1,"alt",0.402256927032161
"711","CVOE updated",1,1,3,97,"O 28","Number","Y",TRUE,"OE","p","p",1625,TRUE,1,"alt",0.437629534221758
"712","CVOE updated",1,1,3,98,"P 59","Number","N",TRUE,"OE","q","q",1582,TRUE,1,"alt",0.392893589834915
"713","CVOE updated",1,1,3,99,"S 77","Letter","Y",TRUE,"CV","q","q",1615,TRUE,1,"alt",0.427225826224818
"714","CVOE updated",1,1,3,100,"U 05","Letter","N",FALSE,"CV","p","p",1443,TRUE,1,"alt",0.248282048677444
"715","CVOE updated",1,1,3,101,"A 56","Number","Y",TRUE,"OE","p","p",762,TRUE,1,"alt",-0.460210465914192
"717","CVOE updated",1,1,3,103,"E 02","Letter","Y",TRUE,"CV","p","p",1375,TRUE,1,"alt",0.17753683429825
"718","CVOE updated",1,1,3,104,"H 68","Letter","N",FALSE,"CV","q","q",629,TRUE,1,"alt",-0.598579782273498
"719","CVOE updated",1,1,3,105,"I 05","Number","Y",FALSE,"OE","q","q",2611,TRUE,1,"alt",1.46343514272007
"720","CVOE updated",1,1,3,106,"J 55","Number","N",TRUE,"OE","q","q",3697,TRUE,1,"alt",2.59327783118779
"721","CVOE updated",1,1,3,107,"O 73","Letter","Y",FALSE,"CV","p","p",1232,TRUE,1,"alt",0.0287638099420036
"722","CVOE updated",1,1,3,108,"P 41","Letter","N",TRUE,"CV","q","q",853,TRUE,1,"alt",-0.365536723142035
"723","CVOE updated",1,1,3,109,"S 92","Number","Y",FALSE,"OE","p","p",750,TRUE,1,"alt",-0.47269491551052
"724","CVOE updated",1,1,3,110,"U 34","Number","N",TRUE,"OE","p","p",1159,TRUE,1,"alt",-0.0471832584356608
"725","CVOE updated",1,1,3,111,"A 09","Letter","Y",FALSE,"CV","p","p",762,TRUE,1,"alt",-0.460210465914192
"726","CVOE updated",1,1,3,112,"D 92","Letter","N",FALSE,"CV","q","q",895,TRUE,1,"alt",-0.321841149554885
"727","CVOE updated",1,1,3,113,"E 48","Number","Y",TRUE,"OE","p","p",1284,TRUE,1,"alt",0.0828630915260933
"728","CVOE updated",1,1,3,114,"H 76","Number","N",FALSE,"OE","p","p",1240,TRUE,1,"alt",0.0370867763395558
"729","CVOE updated",1,1,3,115,"I 44","Letter","Y",TRUE,"CV","p","p",1313,TRUE,1,"alt",0.11303384471722
"730","CVOE updated",1,1,3,116,"J 67","Letter","N",TRUE,"CV","q","q",1384,TRUE,1,"alt",0.186900171495497
"731","CVOE updated",1,1,3,117,"O 48","Number","Y",TRUE,"OE","p","p",1539,TRUE,1,"alt",0.348157645448072
"732","CVOE updated",1,1,3,118,"P 22","Number","N",FALSE,"OE","p","p",733,TRUE,1,"alt",-0.490381219105319
"733","CVOE updated",1,1,3,119,"S 86","Letter","Y",FALSE,"CV","q","q",772,TRUE,1,"alt",-0.449806757917251
"735","CVOE updated",1,1,3,121,"A 91","Number","Y",FALSE,"OE","q","q",1633,TRUE,1,"alt",0.445952500619311
"736","CVOE updated",1,1,3,122,"D 78","Number","N",FALSE,"OE","p","p",2228,TRUE,1,"alt",1.06497312643726
"737","CVOE updated",1,1,3,123,"E 91","Letter","Y",FALSE,"CV","p","p",2778,TRUE,1,"alt",1.63717706626898
"738","CVOE updated",1,1,3,124,"H 54","Letter","N",FALSE,"CV","q","q",2236,TRUE,1,"alt",1.07329609283481
"739","CVOE updated",1,1,3,125,"I 65","Number","Y",FALSE,"OE","q","q",1487,TRUE,1,"alt",0.294058363863982
"740","CVOE updated",1,1,3,126,"J 52","Number","N",FALSE,"OE","p","p",1996,TRUE,1,"alt",0.823607100908245
"741","CVOE updated",1,1,3,127,"O 19","Letter","Y",FALSE,"CV","q","p",3051,FALSE,0,"alt",1.92119829458545
"743","CVOE updated",1,1,3,129,"S 45","Number","Y",TRUE,"OE","q","q",1531,TRUE,1,"alt",0.339834679050519
"744","CVOE updated",1,1,3,130,"U 26","Number","N",TRUE,"OE","p","p",1440,TRUE,1,"alt",0.245160936278362
"746","CVOE updated",1,1,4,2,"P 73","Number","N",TRUE,"OE","q","q",1932,TRUE,1,"shuf",0.757023369727826
"747","CVOE updated",1,1,4,3,"U 95","Letter","Y",FALSE,"CV","p","p",1226,TRUE,1,"shuf",0.0225215851438394
"748","CVOE updated",1,1,4,4,"J 61","Number","Y",TRUE,"OE","q","q",2957,TRUE,1,"shuf",1.82340343941421
"749","CVOE updated",1,1,4,5,"D 51","Number","N",TRUE,"OE","q","q",987,TRUE,1,"shuf",-0.226127035983034
"750","CVOE updated",1,1,4,6,"S 28","Number","N",FALSE,"OE","p","p",1200,TRUE,1,"shuf",-0.00452805564820547
"751","CVOE updated",1,1,4,7,"A 56","Letter","Y",TRUE,"CV","p","p",3599,TRUE,1,"shuf",2.49132149281778
"752","CVOE updated",1,1,4,8,"H 78","Letter","N",FALSE,"CV","q","q",808,TRUE,1,"shuf",-0.412353409128266
"753","CVOE updated",1,1,4,9,"P 92","Letter","N",FALSE,"CV","q","q",1335,TRUE,1,"shuf",0.135922002310489
"754","CVOE updated",1,1,4,10,"E 05","Number","Y",FALSE,"OE","q","q",1172,TRUE,1,"shuf",-0.0336584380396384
"755","CVOE updated",1,1,4,11,"P 57","Letter","Y",TRUE,"CV","q","q",2877,TRUE,1,"shuf",1.74017377543869
"756","CVOE updated",1,1,4,12,"D 88","Number","Y",FALSE,"OE","p","p",1027,TRUE,1,"shuf",-0.184512203995273
"758","CVOE updated",1,1,4,14,"U 43","Number","Y",FALSE,"OE","q","q",1175,TRUE,1,"shuf",-0.0305373256405563
"759","CVOE updated",1,1,4,15,"H 10","Number","N",FALSE,"OE","q","p",1280,FALSE,0,"shuf",0.0787016083273172
"761","CVOE updated",1,1,4,17,"J 10","Letter","N",FALSE,"CV","q","q",3833,TRUE,1,"shuf",2.73476825994618
"762","CVOE updated",1,1,4,18,"H 54","Number","Y",FALSE,"OE","p","p",2301,TRUE,1,"shuf",1.14092019481492
"763","CVOE updated",1,1,4,19,"E 99","Number","N",FALSE,"OE","q","q",1059,TRUE,1,"shuf",-0.151220338405064
"764","CVOE updated",1,1,4,20,"J 36","Letter","Y",FALSE,"CV","q","q",783,TRUE,1,"shuf",-0.438362679120617
"765","CVOE updated",1,1,4,21,"I 94","Letter","N",TRUE,"CV","p","p",817,TRUE,1,"shuf",-0.40299007193102
"766","CVOE updated",1,1,4,22,"A 82","Letter","N",TRUE,"CV","q","p",726,FALSE,0,"shuf",-0.497663814703177
"767","CVOE updated",1,1,4,23,"H 79","Number","Y",TRUE,"OE","q","q",1530,TRUE,1,"shuf",0.338794308250825
"768","CVOE updated",1,1,4,24,"J 60","Number","N",FALSE,"OE","p","p",1129,TRUE,1,"shuf",-0.0783943824264818
"769","CVOE updated",1,1,4,25,"S 28","Letter","Y",FALSE,"CV","q","q",1179,TRUE,1,"shuf",-0.0263758424417802
"770","CVOE updated",1,1,4,26,"P 11","Number","Y",TRUE,"OE","q","q",1071,TRUE,1,"shuf",-0.138735888808736
"771","CVOE updated",1,1,4,27,"D 39","Number","N",TRUE,"OE","q","q",1155,TRUE,1,"shuf",-0.0513447416344369
"772","CVOE updated",1,1,4,28,"E 90","Number","N",TRUE,"OE","p","p",981,TRUE,1,"shuf",-0.232369260781199
"773","CVOE updated",1,1,4,29,"I 38","Number","N",TRUE,"OE","p","p",963,TRUE,1,"shuf",-0.251095935175691
"774","CVOE updated",1,1,4,30,"S 35","Letter","Y",TRUE,"CV","q","q",1658,TRUE,1,"shuf",0.471961770611662
"775","CVOE updated",1,1,4,31,"D 41","Number","Y",TRUE,"OE","q","q",973,TRUE,1,"shuf",-0.240692227178751
"776","CVOE updated",1,1,4,32,"E 06","Number","N",TRUE,"OE","p","p",1234,TRUE,1,"shuf",0.0308445515413916
"777","CVOE updated",1,1,4,33,"A 27","Number","N",FALSE,"OE","q","q",1374,TRUE,1,"shuf",0.176496463498556
"778","CVOE updated",1,1,4,34,"U 95","Letter","Y",FALSE,"CV","p","p",938,TRUE,1,"shuf",-0.277105205168042
"780","CVOE updated",1,1,4,36,"E 43","Letter","N",FALSE,"CV","p","p",1022,TRUE,1,"shuf",-0.189714057993743
"781","CVOE updated",1,1,4,37,"P 05","Number","Y",TRUE,"OE","q","q",979,TRUE,1,"shuf",-0.234450002380587
"782","CVOE updated",1,1,4,38,"O 19","Letter","Y",FALSE,"CV","p","p",1300,TRUE,1,"shuf",0.0995090243211978
"783","CVOE updated",1,1,4,39,"I 96","Number","Y",TRUE,"OE","p","p",1439,TRUE,1,"shuf",0.244120565478668
"784","CVOE updated",1,1,4,40,"A 88","Number","N",TRUE,"OE","p","p",864,TRUE,1,"shuf",-0.3540926443454
"785","CVOE updated",1,1,4,41,"I 67","Number","N",FALSE,"OE","q","q",905,TRUE,1,"shuf",-0.311437441557945
"786","CVOE updated",1,1,4,42,"D 40","Number","N",FALSE,"OE","p","p",1213,TRUE,1,"shuf",0.00899676474781696
"787","CVOE updated",1,1,4,43,"P 79","Letter","Y",TRUE,"CV","q","q",1144,TRUE,1,"shuf",-0.0627888204310713
"788","CVOE updated",1,1,4,44,"U 24","Number","Y",TRUE,"OE","p","p",858,TRUE,1,"shuf",-0.360334869143565
"789","CVOE updated",1,1,4,45,"P 74","Number","N",FALSE,"OE","p","p",926,TRUE,1,"shuf",-0.28958965476437
"790","CVOE updated",1,1,4,46,"E 70","Number","N",TRUE,"OE","p","p",1649,TRUE,1,"shuf",0.462598433414415
"791","CVOE updated",1,1,4,47,"S 27","Number","N",TRUE,"OE","q","q",2335,TRUE,1,"shuf",1.17629280200452
"792","CVOE updated",1,1,4,48,"E 54","Letter","Y",TRUE,"CV","p","p",1254,TRUE,1,"shuf",0.0516519675352723
"793","CVOE updated",1,1,4,49,"A 53","Letter","N",FALSE,"CV","p","p",1707,TRUE,1,"shuf",0.522939939796669
"794","CVOE updated",1,1,4,50,"P 34","Letter","N",FALSE,"CV","q","q",1039,TRUE,1,"shuf",-0.172027754398945
"795","CVOE updated",1,1,4,51,"D 74","Number","Y",FALSE,"OE","p","p",985,TRUE,1,"shuf",-0.228207777582422
"796","CVOE updated",1,1,4,52,"A 03","Letter","Y",FALSE,"CV","p","p",1161,TRUE,1,"shuf",-0.0451025168362727
"797","CVOE updated",1,1,4,53,"E 24","Number","Y",TRUE,"OE","p","p",2948,TRUE,1,"shuf",1.81404010221696
"798","CVOE updated",1,1,4,54,"I 58","Letter","Y",TRUE,"CV","p","p",1091,TRUE,1,"shuf",-0.117928472814855
"799","CVOE updated",1,1,4,55,"D 77","Number","Y",TRUE,"OE","q","q",2110,TRUE,1,"shuf",0.942209372073364
"800","CVOE updated",1,1,4,56,"S 75","Number","N",TRUE,"OE","q","q",918,TRUE,1,"shuf",-0.297912621161923
"801","CVOE updated",1,1,4,57,"I 20","Letter","Y",TRUE,"CV","p","p",710,TRUE,1,"shuf",-0.514309747498282
"802","CVOE updated",1,1,4,58,"J 52","Letter","N",FALSE,"CV","q","q",975,TRUE,1,"shuf",-0.238611485579363
"803","CVOE updated",1,1,4,59,"A 38","Number","Y",TRUE,"OE","p","p",1220,TRUE,1,"shuf",0.0162793603456752
"804","CVOE updated",1,1,4,60,"I 60","Letter","Y",TRUE,"CV","p","p",2420,TRUE,1,"shuf",1.26472431997851
"805","CVOE updated",1,1,4,61,"S 51","Number","Y",TRUE,"OE","q","q",1665,TRUE,1,"shuf",0.47924436620952
"806","CVOE updated",1,1,4,62,"D 63","Letter","Y",TRUE,"CV","q","q",2185,TRUE,1,"shuf",1.02023718205042
"808","CVOE updated",1,1,4,64,"J 77","Letter","N",TRUE,"CV","q","q",1186,TRUE,1,"shuf",-0.0190932468439219
"809","CVOE updated",1,1,4,65,"O 15","Number","Y",FALSE,"OE","q","q",1133,TRUE,1,"shuf",-0.0742328992277057
"810","CVOE updated",1,1,4,66,"J 20","Letter","Y",FALSE,"CV","q","q",1726,TRUE,1,"shuf",0.542706984990856
"812","CVOE updated",1,1,4,68,"H 03","Number","N",TRUE,"OE","q","q",1239,TRUE,1,"shuf",0.0360464055398618
"813","CVOE updated",1,1,4,69,"O 04","Letter","Y",TRUE,"CV","p","p",1319,TRUE,1,"shuf",0.119276069515384
"814","CVOE updated",1,1,4,70,"E 10","Letter","N",TRUE,"CV","q","p",3155,FALSE,0,"shuf",2.02939685775363
"815","CVOE updated",1,1,4,71,"I 52","Letter","N",TRUE,"CV","p","p",1806,TRUE,1,"shuf",0.625936648966378
"817","CVOE updated",1,1,4,73,"I 41","Number","N",FALSE,"OE","q","q",1291,TRUE,1,"shuf",0.0901456871239515
"818","CVOE updated",1,1,4,74,"U 19","Letter","Y",FALSE,"CV","p","p",647,TRUE,1,"shuf",-0.579853107879006
"819","CVOE updated",1,1,4,75,"O 17","Number","Y",FALSE,"OE","q","q",824,TRUE,1,"shuf",-0.395707476333162
"821","CVOE updated",1,1,4,77,"P 93","Letter","Y",TRUE,"CV","q","q",869,TRUE,1,"shuf",-0.34889079034693
"822","CVOE updated",1,1,4,78,"E 59","Letter","N",FALSE,"CV","p","p",798,TRUE,1,"shuf",-0.422757117125207
"823","CVOE updated",1,1,4,79,"O 53","Letter","N",FALSE,"CV","p","p",879,TRUE,1,"shuf",-0.33848708234999
"824","CVOE updated",1,1,4,80,"A 96","Letter","N",TRUE,"CV","p","p",485,TRUE,1,"shuf",-0.748393177429439
"825","CVOE updated",1,1,4,81,"H 36","Letter","Y",FALSE,"CV","q","q",579,TRUE,1,"shuf",-0.6505983222582
"826","CVOE updated",1,1,4,82,"A 63","Letter","N",FALSE,"CV","p","p",678,TRUE,1,"shuf",-0.547601613088491
"827","CVOE updated",1,1,4,83,"I 38","Letter","N",TRUE,"CV","p","p",718,TRUE,1,"shuf",-0.505986781100729
"828","CVOE updated",1,1,4,84,"O 51","Number","Y",FALSE,"OE","p","q",1197,FALSE,0,"shuf",-0.00764916804728757
"829","CVOE updated",1,1,4,85,"J 26","Number","N",FALSE,"OE","p","p",2397,TRUE,1,"shuf",1.24079579158555
"830","CVOE updated",1,1,4,86,"S 34","Letter","Y",FALSE,"CV","q","q",1180,TRUE,1,"shuf",-0.0253354716420861
"831","CVOE updated",1,1,4,87,"U 85","Number","Y",FALSE,"OE","q","q",1321,TRUE,1,"shuf",0.121356811114772
"832","CVOE updated",1,1,4,88,"J 77","Number","N",TRUE,"OE","p","q",838,FALSE,0,"shuf",-0.381142285137445
"833","CVOE updated",1,1,4,89,"I 73","Letter","Y",FALSE,"CV","q","p",878,FALSE,0,"shuf",-0.339527453149684
"834","CVOE updated",1,1,4,90,"H 46","Number","Y",FALSE,"OE","p","p",1878,TRUE,1,"shuf",0.700843346544349
"835","CVOE updated",1,1,4,91,"D 04","Number","N",FALSE,"OE","p","p",708,TRUE,1,"shuf",-0.51639048909767
"836","CVOE updated",1,1,4,92,"P 72","Letter","Y",FALSE,"CV","q","q",1689,TRUE,1,"shuf",0.504213265402176
"837","CVOE updated",1,1,4,93,"D 99","Number","Y",TRUE,"OE","q","q",1797,TRUE,1,"shuf",0.616573311769132
"838","CVOE updated",1,1,4,94,"U 25","Letter","Y",FALSE,"CV","p","p",3180,TRUE,1,"shuf",2.05540612774598
"839","CVOE updated",1,1,4,95,"O 32","Letter","N",TRUE,"CV","p","p",1867,TRUE,1,"shuf",0.689399267747714
"840","CVOE updated",1,1,4,96,"E 80","Letter","N",TRUE,"CV","p","p",2146,TRUE,1,"shuf",0.97966272086235
"841","CVOE updated",1,1,4,97,"O 84","Number","Y",TRUE,"OE","p","p",1198,TRUE,1,"shuf",-0.00660879724759353
"842","CVOE updated",1,1,4,98,"A 78","Number","N",TRUE,"OE","p","p",832,TRUE,1,"shuf",-0.38738450993561
"843","CVOE updated",1,1,4,99,"S 05","Number","N",TRUE,"OE","q","q",743,TRUE,1,"shuf",-0.479977511108378
"844","CVOE updated",1,1,4,100,"U 35","Letter","Y",FALSE,"CV","p","p",1013,TRUE,1,"shuf",-0.19907739519099
"845","CVOE updated",1,1,4,101,"H 14","Letter","N",FALSE,"CV","q","q",935,TRUE,1,"shuf",-0.280226317567124
"846","CVOE updated",1,1,4,102,"U 15","Number","Y",FALSE,"OE","q","q",1025,TRUE,1,"shuf",-0.186592945594661
"847","CVOE updated",1,1,4,103,"E 36","Letter","Y",TRUE,"CV","p","p",836,TRUE,1,"shuf",-0.383223026736833
"848","CVOE updated",1,1,4,104,"P 70","Letter","N",FALSE,"CV","q","q",657,TRUE,1,"shuf",-0.569449399882065
"849","CVOE updated",1,1,4,105,"O 44","Number","Y",TRUE,"OE","p","p",843,TRUE,1,"shuf",-0.375940431138975
"850","CVOE updated",1,1,4,106,"S 41","Letter","Y",TRUE,"CV","q","q",761,TRUE,1,"shuf",-0.461250836713886
"851","CVOE updated",1,1,4,107,"D 83","Letter","N",TRUE,"CV","q","q",883,TRUE,1,"shuf",-0.334325599151214
"852","CVOE updated",1,1,4,108,"J 39","Letter","N",TRUE,"CV","q","q",579,TRUE,1,"shuf",-0.6505983222582
"853","CVOE updated",1,1,4,109,"S 22","Number","Y",FALSE,"OE","q","p",604,FALSE,0,"shuf",-0.624589052265849
"854","CVOE updated",1,1,4,110,"D 89","Letter","Y",TRUE,"CV","q","q",1851,TRUE,1,"shuf",0.67275333495261
"855","CVOE updated",1,1,4,111,"P 87","Letter","N",TRUE,"CV","q","q",915,TRUE,1,"shuf",-0.301033733561005
"856","CVOE updated",1,1,4,112,"H 42","Letter","N",FALSE,"CV","q","q",630,TRUE,1,"shuf",-0.597539411473804
"857","CVOE updated",1,1,4,113,"S 49","Letter","N",TRUE,"CV","q","q",1074,TRUE,1,"shuf",-0.135614776409654
"858","CVOE updated",1,1,4,114,"J 20","Number","Y",FALSE,"OE","p","p",1095,TRUE,1,"shuf",-0.113766989616079
"859","CVOE updated",1,1,4,115,"O 19","Letter","Y",FALSE,"CV","q","p",3728,FALSE,0,"shuf",2.62552932597831
"861","CVOE updated",1,1,4,117,"I 68","Number","Y",TRUE,"OE","p","p",2103,TRUE,1,"shuf",0.934926776475506
"862","CVOE updated",1,1,4,118,"J 72","Number","N",FALSE,"OE","p","p",4069,TRUE,1,"shuf",2.98029576867397
"863","CVOE updated",1,1,4,119,"O 21","Number","N",FALSE,"OE","q","q",831,TRUE,1,"shuf",-0.388424880735304
"864","CVOE updated",1,1,4,120,"H 22","Number","N",FALSE,"OE","p","p",987,TRUE,1,"shuf",-0.226127035983034
"865","CVOE updated",9,1,1,11,"A 71","","",FALSE,"CV","p","p",1803,TRUE,1,"cv",0.622815536567296
"866","CVOE updated",9,1,1,12,"I 66","","",TRUE,"CV","p","p",612,TRUE,1,"cv",-0.616266085868297
"867","CVOE updated",9,1,1,13,"S 30","","",FALSE,"CV","q","q",487,TRUE,1,"cv",-0.746312435830051
"868","CVOE updated",9,1,1,14,"D 20","","",FALSE,"CV","q","q",571,TRUE,1,"cv",-0.658921288655752
"869","CVOE updated",9,1,1,15,"I 31","","",FALSE,"CV","p","p",526,TRUE,1,"cv",-0.705737974641984
"870","CVOE updated",9,1,1,16,"P 16","","",FALSE,"CV","q","q",590,TRUE,1,"cv",-0.639154243461565
"871","CVOE updated",9,1,1,17,"A 49","","",FALSE,"CV","p","p",524,TRUE,1,"cv",-0.707818716241372
"872","CVOE updated",9,1,1,18,"O 64","","",TRUE,"CV","p","p",612,TRUE,1,"cv",-0.616266085868297
"873","CVOE updated",9,1,1,19,"D 02","","",FALSE,"CV","q","q",471,TRUE,1,"cv",-0.762958368625155
"874","CVOE updated",9,1,1,20,"P 81","","",TRUE,"CV","q","q",765,TRUE,1,"cv",-0.45708935351511
"875","CVOE updated",9,1,1,21,"J 58","","",FALSE,"CV","q","q",749,TRUE,1,"cv",-0.473735286310214
"876","CVOE updated",9,1,1,22,"A 22","","",TRUE,"CV","p","p",475,TRUE,1,"cv",-0.758796885426379
"877","CVOE updated",9,1,1,23,"J 72","","",FALSE,"CV","q","q",532,TRUE,1,"cv",-0.699495749843819
"878","CVOE updated",9,1,1,24,"P 91","","",TRUE,"CV","q","q",535,TRUE,1,"cv",-0.696374637444737
"879","CVOE updated",9,1,1,25,"E 19","","",FALSE,"CV","p","p",450,TRUE,1,"cv",-0.78480615541873
"880","CVOE updated",9,1,1,26,"I 30","","",TRUE,"CV","p","p",453,TRUE,1,"cv",-0.781685043019648
"881","CVOE updated",9,1,1,27,"D 91","","",TRUE,"CV","q","q",488,TRUE,1,"cv",-0.745272065030357
"882","CVOE updated",9,1,1,28,"O 48","","",TRUE,"CV","p","p",531,TRUE,1,"cv",-0.700536120643513
"883","CVOE updated",9,1,1,29,"A 89","","",FALSE,"CV","p","p",566,TRUE,1,"cv",-0.664123142654222
"884","CVOE updated",9,1,1,30,"U 11","","",FALSE,"CV","p","p",542,TRUE,1,"cv",-0.689092041846879
"885","CVOE updated",9,1,1,31,"I 76","","",TRUE,"CV","p","p",420,TRUE,1,"cv",-0.816017279409551
"886","CVOE updated",9,1,1,32,"U 89","","",FALSE,"CV","p","p",450,TRUE,1,"cv",-0.78480615541873
"887","CVOE updated",9,1,1,33,"D 63","","",TRUE,"CV","q","q",461,TRUE,1,"cv",-0.773362076622096
"888","CVOE updated",9,1,1,34,"H 70","","",FALSE,"CV","q","q",475,TRUE,1,"cv",-0.758796885426379
"889","CVOE updated",9,1,1,35,"D 48","","",FALSE,"CV","q","q",451,TRUE,1,"cv",-0.783765784619036
"890","CVOE updated",9,1,1,36,"P 56","","",FALSE,"CV","q","q",502,TRUE,1,"cv",-0.73070687383464
"891","CVOE updated",9,1,1,37,"O 77","","",FALSE,"CV","p","p",444,TRUE,1,"cv",-0.791048380216894
"892","CVOE updated",9,1,1,38,"P 42","","",FALSE,"CV","q","q",756,TRUE,1,"cv",-0.466452690712356
"893","CVOE updated",9,1,1,39,"H 22","","",FALSE,"CV","q","q",693,TRUE,1,"cv",-0.53199605109308
"894","CVOE updated",9,1,1,40,"E 42","","",TRUE,"CV","p","p",344,TRUE,1,"cv",-0.895085460186297
"895","CVOE updated",9,1,1,41,"J 28","","",FALSE,"CV","q","q",1029,TRUE,1,"cv",-0.182431462395885
"896","CVOE updated",9,1,1,42,"E 95","","",FALSE,"CV","p","p",595,TRUE,1,"cv",-0.633952389463095
"897","CVOE updated",9,1,1,43,"S 63","","",TRUE,"CV","q","q",508,TRUE,1,"cv",-0.724464649036476
"898","CVOE updated",9,1,1,44,"H 50","","",FALSE,"CV","q","q",449,TRUE,1,"cv",-0.785846526218424
"899","CVOE updated",9,1,1,45,"S 33","","",TRUE,"CV","q","q",476,TRUE,1,"cv",-0.757756514626685
"900","CVOE updated",9,1,1,46,"P 57","","",TRUE,"CV","q","q",541,TRUE,1,"cv",-0.690132412646573
"901","CVOE updated",9,1,1,47,"E 23","","",FALSE,"CV","p","p",459,TRUE,1,"cv",-0.775442818221484
"902","CVOE updated",9,1,1,48,"S 61","","",TRUE,"CV","q","q",422,TRUE,1,"cv",-0.813936537810163
"903","CVOE updated",9,1,1,49,"U 67","","",FALSE,"CV","p","p",515,TRUE,1,"cv",-0.717182053438618
"904","CVOE updated",9,1,1,50,"H 32","","",FALSE,"CV","q","q",540,TRUE,1,"cv",-0.691172783446267
"905","CVOE updated",9,1,1,51,"U 50","","",TRUE,"CV","p","p",575,TRUE,1,"cv",-0.654759805456976
"906","CVOE updated",9,1,1,52,"O 49","","",FALSE,"CV","p","p",554,TRUE,1,"cv",-0.676607592250551
"907","CVOE updated",9,1,1,53,"U 32","","",TRUE,"CV","p","p",530,TRUE,1,"cv",-0.701576491443207
"908","CVOE updated",9,1,1,54,"J 78","","",FALSE,"CV","q","q",509,TRUE,1,"cv",-0.723424278236782
"909","CVOE updated",9,1,1,55,"S 54","","",FALSE,"CV","q","q",571,TRUE,1,"cv",-0.658921288655752
"910","CVOE updated",9,1,1,56,"J 27","","",TRUE,"CV","q","q",550,TRUE,1,"cv",-0.680769075449327
"911","CVOE updated",9,1,1,57,"S 06","","",FALSE,"CV","q","q",612,TRUE,1,"cv",-0.616266085868297
"912","CVOE updated",9,1,1,58,"D 67","","",TRUE,"CV","q","q",487,TRUE,1,"cv",-0.746312435830051
"913","CVOE updated",9,1,1,59,"A 79","","",FALSE,"CV","p","p",482,TRUE,1,"cv",-0.751514289828521
"914","CVOE updated",9,1,1,60,"S 52","","",FALSE,"CV","q","q",498,TRUE,1,"cv",-0.734868357033416
"915","CVOE updated",9,1,1,61,"U 16","","",TRUE,"CV","p","p",526,TRUE,1,"cv",-0.705737974641984
"916","CVOE updated",9,1,1,62,"O 82","","",TRUE,"CV","p","p",430,TRUE,1,"cv",-0.805613571412611
"917","CVOE updated",9,1,1,63,"H 87","","",TRUE,"CV","q","q",516,TRUE,1,"cv",-0.716141682638924
"918","CVOE updated",9,1,1,64,"I 32","","",TRUE,"CV","p","p",372,TRUE,1,"cv",-0.865955077794865
"919","CVOE updated",9,1,1,65,"U 37","","",FALSE,"CV","p","p",455,TRUE,1,"cv",-0.77960430142026
"920","CVOE updated",9,1,1,66,"I 42","","",TRUE,"CV","p","p",466,TRUE,1,"cv",-0.768160222623625
"921","CVOE updated",9,1,1,67,"D 65","","",TRUE,"CV","q","q",400,TRUE,1,"cv",-0.836824695403432
"922","CVOE updated",9,1,1,68,"U 77","","",FALSE,"CV","p","p",472,TRUE,1,"cv",-0.761917997825461
"923","CVOE updated",9,1,1,69,"E 12","","",TRUE,"CV","p","p",462,TRUE,1,"cv",-0.772321705822402
"924","CVOE updated",9,1,1,70,"I 60","","",TRUE,"CV","p","p",452,TRUE,1,"cv",-0.782725413819342
"925","CVOE updated",9,1,1,71,"J 36","","",FALSE,"CV","q","q",423,TRUE,1,"cv",-0.812896167010469
"926","CVOE updated",9,1,1,72,"H 75","","",TRUE,"CV","q","q",492,TRUE,1,"cv",-0.741110581831581
"927","CVOE updated",9,1,1,73,"I 50","","",TRUE,"CV","p","p",535,TRUE,1,"cv",-0.696374637444737
"928","CVOE updated",9,1,1,74,"E 99","","",FALSE,"CV","p","p",450,TRUE,1,"cv",-0.78480615541873
"929","CVOE updated",9,1,1,75,"A 86","","",TRUE,"CV","p","p",437,TRUE,1,"cv",-0.798330975814752
"930","CVOE updated",9,1,1,76,"U 48","","",TRUE,"CV","p","p",510,TRUE,1,"cv",-0.722383907437088
"931","CVOE updated",9,1,1,77,"E 01","","",FALSE,"CV","p","p",484,TRUE,1,"cv",-0.749433548229133
"932","CVOE updated",9,1,1,78,"A 78","","",TRUE,"CV","p","p",444,TRUE,1,"cv",-0.791048380216894
"933","CVOE updated",9,1,1,79,"P 60","","",FALSE,"CV","q","q",468,TRUE,1,"cv",-0.766079481024237
"934","CVOE updated",9,1,1,80,"E 43","","",FALSE,"CV","p","p",458,TRUE,1,"cv",-0.776483189021178
"935","CVOE updated",9,1,1,81,"D 69","","",TRUE,"CV","q","q",413,TRUE,1,"cv",-0.823299875007409
"936","CVOE updated",9,1,1,82,"H 11","","",TRUE,"CV","q","q",520,TRUE,1,"cv",-0.711980199440148
"937","CVOE updated",9,1,1,83,"P 43","","",TRUE,"CV","q","q",1016,TRUE,1,"cv",-0.195956282791907
"938","CVOE updated",9,1,1,84,"O 67","","",FALSE,"CV","p","p",484,TRUE,1,"cv",-0.749433548229133
"939","CVOE updated",9,1,1,85,"S 91","","",FALSE,"CV","q","q",476,TRUE,1,"cv",-0.757756514626685
"940","CVOE updated",9,1,1,86,"J 68","","",TRUE,"CV","q","q",444,TRUE,1,"cv",-0.791048380216894
"941","CVOE updated",9,1,1,87,"S 47","","",FALSE,"CV","q","q",501,TRUE,1,"cv",-0.731747244634334
"942","CVOE updated",9,1,1,88,"I 81","","",TRUE,"CV","p","p",499,TRUE,1,"cv",-0.733827986233722
"943","CVOE updated",9,1,1,89,"J 39","","",FALSE,"CV","q","q",438,TRUE,1,"cv",-0.797290605015058
"944","CVOE updated",9,1,1,90,"A 11","","",TRUE,"CV","p","p",526,TRUE,1,"cv",-0.705737974641984
"945","CVOE updated",9,1,1,91,"O 76","","",FALSE,"CV","p","p",398,TRUE,1,"cv",-0.83890543700282
"946","CVOE updated",9,1,1,92,"A 62","","",FALSE,"CV","p","p",415,TRUE,1,"cv",-0.821219133408021
"947","CVOE updated",9,1,1,93,"O 27","","",TRUE,"CV","p","p",394,TRUE,1,"cv",-0.843066920201596
"948","CVOE updated",9,1,1,94,"E 66","","",FALSE,"CV","p","p",466,TRUE,1,"cv",-0.768160222623625
"949","CVOE updated",9,1,1,95,"J 62","","",TRUE,"CV","q","q",448,TRUE,1,"cv",-0.786886897018118
"950","CVOE updated",9,1,1,96,"H 72","","",TRUE,"CV","q","q",507,TRUE,1,"cv",-0.72550501983617
"951","CVOE updated",9,1,1,97,"E 49","","",TRUE,"CV","p","p",417,TRUE,1,"cv",-0.819138391808633
"952","CVOE updated",9,1,1,98,"D 52","","",TRUE,"CV","q","q",460,TRUE,1,"cv",-0.77440244742179
"953","CVOE updated",9,1,1,99,"H 62","","",TRUE,"CV","q","q",383,TRUE,1,"cv",-0.85451099899823
"954","CVOE updated",9,1,1,100,"I 11","","",TRUE,"CV","p","p",372,TRUE,1,"cv",-0.865955077794865
"955","CVOE updated",9,1,1,101,"A 98","","",FALSE,"CV","p","p",367,TRUE,1,"cv",-0.871156931793335
"956","CVOE updated",9,1,1,102,"H 29","","",FALSE,"CV","q","q",426,TRUE,1,"cv",-0.809775054611387
"957","CVOE updated",9,1,1,103,"E 83","","",TRUE,"CV","p","p",488,TRUE,1,"cv",-0.745272065030357
"958","CVOE updated",9,1,1,104,"D 43","","",FALSE,"CV","q","q",459,TRUE,1,"cv",-0.775442818221484
"959","CVOE updated",9,1,1,105,"P 45","","",TRUE,"CV","q","q",502,TRUE,1,"cv",-0.73070687383464
"960","CVOE updated",9,1,1,106,"J 17","","",TRUE,"CV","q","q",420,TRUE,1,"cv",-0.816017279409551
"961","CVOE updated",9,1,2,11,"A 24","","",TRUE,"OE","p","p",1538,TRUE,1,"oe",0.347117274648378
"962","CVOE updated",9,1,2,12,"O 83","","",FALSE,"OE","q","q",509,TRUE,1,"oe",-0.723424278236782
"963","CVOE updated",9,1,2,13,"H 55","","",TRUE,"OE","q","q",502,TRUE,1,"oe",-0.73070687383464
"964","CVOE updated",9,1,2,14,"P 10","","",FALSE,"OE","p","p",708,TRUE,1,"oe",-0.51639048909767
"965","CVOE updated",9,1,2,15,"D 30","","",FALSE,"OE","p","p",409,TRUE,1,"oe",-0.827461358206185
"966","CVOE updated",9,1,2,16,"U 62","","",TRUE,"OE","p","p",516,TRUE,1,"oe",-0.716141682638924
"967","CVOE updated",9,1,2,17,"P 95","","",TRUE,"OE","q","q",421,TRUE,1,"oe",-0.814976908609857
"968","CVOE updated",9,1,2,18,"U 06","","",TRUE,"OE","p","p",459,TRUE,1,"oe",-0.775442818221484
"969","CVOE updated",9,1,2,19,"E 75","","",FALSE,"OE","q","q",446,TRUE,1,"oe",-0.788967638617506
"970","CVOE updated",9,1,2,20,"I 67","","",FALSE,"OE","q","q",710,TRUE,1,"oe",-0.514309747498282
"971","CVOE updated",9,1,2,21,"S 13","","",TRUE,"OE","q","q",524,TRUE,1,"oe",-0.707818716241372
"972","CVOE updated",9,1,2,22,"P 78","","",FALSE,"OE","p","p",612,TRUE,1,"oe",-0.616266085868297
"973","CVOE updated",9,1,2,23,"I 15","","",FALSE,"OE","q","q",503,TRUE,1,"oe",-0.729666503034946
"974","CVOE updated",9,1,2,24,"D 27","","",TRUE,"OE","p","q",485,FALSE,0,"oe",-0.748393177429439
"975","CVOE updated",9,1,2,25,"O 94","","",TRUE,"OE","p","p",701,TRUE,1,"oe",-0.523673084695528
"976","CVOE updated",9,1,2,26,"A 65","","",FALSE,"OE","q","q",555,TRUE,1,"oe",-0.675567221450857
"977","CVOE updated",9,1,2,27,"I 42","","",TRUE,"OE","p","p",628,TRUE,1,"oe",-0.599620153073192
"978","CVOE updated",9,1,2,28,"E 25","","",FALSE,"OE","q","q",505,TRUE,1,"oe",-0.727585761435558
"979","CVOE updated",9,1,2,29,"H 49","","",TRUE,"OE","q","q",687,TRUE,1,"oe",-0.538238275891244
"980","CVOE updated",9,1,2,30,"S 18","","",FALSE,"OE","p","p",514,TRUE,1,"oe",-0.718222424238312
"981","CVOE updated",9,1,2,31,"H 51","","",TRUE,"OE","q","q",563,TRUE,1,"oe",-0.667244255053304
"982","CVOE updated",9,1,2,32,"U 14","","",TRUE,"OE","p","p",555,TRUE,1,"oe",-0.675567221450857
"983","CVOE updated",9,1,2,33,"E 02","","",TRUE,"OE","p","p",707,TRUE,1,"oe",-0.517430859897364
"984","CVOE updated",9,1,2,34,"J 26","","",FALSE,"OE","p","p",409,TRUE,1,"oe",-0.827461358206185
"985","CVOE updated",9,1,2,35,"D 24","","",FALSE,"OE","p","p",380,TRUE,1,"oe",-0.857632111397312
"986","CVOE updated",9,1,2,36,"O 50","","",TRUE,"OE","p","p",538,TRUE,1,"oe",-0.693253525045655
"987","CVOE updated",9,1,2,37,"U 16","","",TRUE,"OE","p","p",565,TRUE,1,"oe",-0.665163513453916
"988","CVOE updated",9,1,2,38,"O 15","","",FALSE,"OE","q","q",485,TRUE,1,"oe",-0.748393177429439
"989","CVOE updated",9,1,2,39,"D 32","","",FALSE,"OE","p","p",726,TRUE,1,"oe",-0.497663814703177
"990","CVOE updated",9,1,2,40,"S 67","","",TRUE,"OE","q","q",470,TRUE,1,"oe",-0.763998739424849
"991","CVOE updated",9,1,2,41,"J 74","","",FALSE,"OE","p","p",524,TRUE,1,"oe",-0.707818716241372
"992","CVOE updated",9,1,2,42,"D 92","","",FALSE,"OE","p","p",500,TRUE,1,"oe",-0.732787615434028
"993","CVOE updated",9,1,2,43,"A 65","","",FALSE,"OE","q","q",546,TRUE,1,"oe",-0.684930558648103
"994","CVOE updated",9,1,2,44,"I 87","","",FALSE,"OE","q","q",416,TRUE,1,"oe",-0.820178762608327
"995","CVOE updated",9,1,2,45,"H 61","","",TRUE,"OE","q","q",523,TRUE,1,"oe",-0.708859087041066
"996","CVOE updated",9,1,2,46,"E 59","","",FALSE,"OE","q","q",483,TRUE,1,"oe",-0.750473919028827
"997","CVOE updated",9,1,2,47,"I 33","","",FALSE,"OE","q","q",548,TRUE,1,"oe",-0.682849817048715
"998","CVOE updated",9,1,2,48,"O 90","","",TRUE,"OE","p","p",473,TRUE,1,"oe",-0.760877627025767
"999","CVOE updated",9,1,2,49,"U 51","","",FALSE,"OE","q","q",535,TRUE,1,"oe",-0.696374637444737
"1000","CVOE updated",9,1,2,50,"A 10","","",TRUE,"OE","p","p",578,TRUE,1,"oe",-0.651638693057894
"1001","CVOE updated",9,1,2,51,"E 50","","",TRUE,"OE","p","p",493,TRUE,1,"oe",-0.740070211031887
"1002","CVOE updated",9,1,2,52,"D 92","","",FALSE,"OE","p","p",416,TRUE,1,"oe",-0.820178762608327
"1003","CVOE updated",9,1,2,53,"E 60","","",TRUE,"OE","p","p",403,TRUE,1,"oe",-0.83370358300435
"1004","CVOE updated",9,1,2,54,"A 95","","",FALSE,"OE","q","q",436,TRUE,1,"oe",-0.799371346614446
"1005","CVOE updated",9,1,2,55,"E 64","","",TRUE,"OE","p","p",828,TRUE,1,"oe",-0.391545993134386
"1006","CVOE updated",9,1,2,56,"P 20","","",FALSE,"OE","p","p",490,TRUE,1,"oe",-0.743191323430969
"1007","CVOE updated",9,1,2,57,"S 06","","",FALSE,"OE","p","p",397,TRUE,1,"oe",-0.839945807802514
"1008","CVOE updated",9,1,2,58,"P 64","","",FALSE,"OE","p","p",581,TRUE,1,"oe",-0.648517580658812
"1009","CVOE updated",9,1,2,59,"U 70","","",TRUE,"OE","p","p",611,TRUE,1,"oe",-0.617306456667991
"1010","CVOE updated",9,1,2,60,"S 16","","",FALSE,"OE","p","p",518,TRUE,1,"oe",-0.714060941039536
"1011","CVOE updated",9,1,2,61,"E 35","","",FALSE,"OE","q","q",599,TRUE,1,"oe",-0.629790906264319
"1012","CVOE updated",9,1,2,62,"I 93","","",FALSE,"OE","q","q",503,TRUE,1,"oe",-0.729666503034946
"1013","CVOE updated",9,1,2,63,"D 63","","",TRUE,"OE","q","q",429,TRUE,1,"oe",-0.806653942212305
"1014","CVOE updated",9,1,2,64,"U 89","","",FALSE,"OE","q","q",562,TRUE,1,"oe",-0.668284625852998
"1015","CVOE updated",9,1,2,65,"E 91","","",FALSE,"OE","q","q",555,TRUE,1,"oe",-0.675567221450857
