"ExperimentName","Subject","Group","Block","Trial","STIM","TASK","Switch","Congruent","CVOE","Response","RT","block_type","letter","number","key2","response2","match2","score2","zRT"
"CVOE updated",5,1,1,11,"A 71","","",FALSE,"CV","p",2144,"cv","A",1,"v","v",TRUE,1,1.1876582074152
"CVOE updated",5,1,1,12,"I 66","","",TRUE,"CV","q",783,"cv","I",6,"v","c",FALSE,0,-0.354337381041298
"CVOE updated",5,1,1,13,"S 30","","",FALSE,"CV","q",636,"cv","S",0,"c","c",TRUE,1,-0.520886500441082
"CVOE updated",5,1,1,14,"D 20","","",FALSE,"CV","q",1261,"cv","D",0,"c","c",TRUE,1,0.187230503809697
"CVOE updated",5,1,1,15,"I 31","","",FALSE,"CV","p",611,"cv","I",1,"v","v",TRUE,1,-0.549211180611113
"CVOE updated",5,1,1,16,"P 16","","",FALSE,"CV","q",574,"cv","P",6,"c","c",TRUE,1,-0.591131707262759
"CVOE updated",5,1,1,17,"A 49","","",FALSE,"CV","p",777,"cv","A",9,"v","v",TRUE,1,-0.361135304282106
"CVOE updated",5,1,1,18,"O 64","","",TRUE,"CV","p",420,"cv","O",4,"v","v",TRUE,1,-0.765611737110151
"CVOE updated",5,1,1,19,"D 02","","",FALSE,"CV","q",466,"cv","D",2,"c","c",TRUE,1,-0.713494325597293
"CVOE updated",5,1,1,20,"P 81","","",TRUE,"CV","q",904,"cv","P",1,"c","c",TRUE,1,-0.217245929018348
"CVOE updated",5,1,1,21,"J 58","","",FALSE,"CV","q",693,"cv","J",8,"c","c",TRUE,1,-0.456306229653411
"CVOE updated",5,1,1,22,"A 22","","",TRUE,"CV","p",633,"cv","A",2,"v","v",TRUE,1,-0.524285462061485
"CVOE updated",5,1,1,23,"J 72","","",FALSE,"CV","q",582,"cv","J",2,"c","c",TRUE,1,-0.582067809608349
"CVOE updated",5,1,1,24,"P 91","","",TRUE,"CV","q",868,"cv","P",1,"c","c",TRUE,1,-0.258033468463193
"CVOE updated",5,1,1,25,"E 19","","",FALSE,"CV","p",642,"cv","E",9,"v","v",TRUE,1,-0.514088577200274
"CVOE updated",5,1,1,26,"I 30","","",TRUE,"CV","q",602,"cv","I",0,"v","c",FALSE,0,-0.559408065472324
"CVOE updated",5,1,1,27,"D 91","","",TRUE,"CV","q",587,"cv","D",1,"c","c",TRUE,1,-0.576402873574343
"CVOE updated",5,1,1,28,"O 48","","",TRUE,"CV","p",441,"cv","O",8,"v","v",TRUE,1,-0.741819005767325
"CVOE updated",5,1,1,29,"A 89","","",FALSE,"CV","p",921,"cv","A",9,"v","v",TRUE,1,-0.197985146502726
"CVOE updated",5,1,1,30,"U 11","","",FALSE,"CV","p",826,"cv","U",1,"v","v",TRUE,1,-0.305618931148845
"CVOE updated",5,1,1,31,"I 76","","",TRUE,"CV","q",1015,"cv","I",6,"v","c",FALSE,0,-0.0914843490634093
"CVOE updated",5,1,1,32,"U 89","","",FALSE,"CV","p",827,"cv","U",9,"v","v",TRUE,1,-0.304485943942044
"CVOE updated",5,1,1,33,"D 63","","",TRUE,"CV","q",960,"cv","D",3,"c","c",TRUE,1,-0.153798645437478
"CVOE updated",5,1,1,34,"H 70","","",FALSE,"CV","q",689,"cv","H",0,"c","c",TRUE,1,-0.460838178480616
"CVOE updated",5,1,1,35,"D 48","","",FALSE,"CV","q",732,"cv","D",8,"c","c",TRUE,1,-0.412119728588162
"CVOE updated",5,1,1,36,"P 56","","",FALSE,"CV","q",895,"cv","P",6,"c","c",TRUE,1,-0.227442813879559
"CVOE updated",5,1,1,37,"O 77","","",FALSE,"CV","p",658,"cv","O",7,"v","v",TRUE,1,-0.495960781891454
"CVOE updated",5,1,1,38,"P 42","","",FALSE,"CV","q",766,"cv","P",2,"c","c",TRUE,1,-0.37359816355692
"CVOE updated",5,1,1,39,"H 22","","",FALSE,"CV","q",870,"cv","H",2,"c","c",TRUE,1,-0.25576749404959
"CVOE updated",5,1,1,40,"E 42","","",TRUE,"CV","p",716,"cv","E",2,"v","v",TRUE,1,-0.430247523896982
"CVOE updated",5,1,1,41,"J 28","","",FALSE,"CV","q",588,"cv","J",8,"c","c",TRUE,1,-0.575269886367541
"CVOE updated",5,1,1,42,"E 95","","",FALSE,"CV","p",506,"cv","E",5,"v","v",TRUE,1,-0.668174837325244
"CVOE updated",5,1,1,43,"S 63","","",TRUE,"CV","q",640,"cv","S",3,"c","c",TRUE,1,-0.516354551613877
"CVOE updated",5,1,1,44,"H 50","","",FALSE,"CV","q",1032,"cv","H",0,"c","c",TRUE,1,-0.0722235665477881
"CVOE updated",5,1,1,45,"S 33","","",TRUE,"CV","q",470,"cv","S",3,"c","c",TRUE,1,-0.708962376770088
"CVOE updated",5,1,1,46,"P 57","","",TRUE,"CV","q",836,"cv","P",7,"c","c",TRUE,1,-0.294289059080832
"CVOE updated",5,1,1,47,"E 23","","",FALSE,"CV","p",828,"cv","E",3,"v","v",TRUE,1,-0.303352956735242
"CVOE updated",5,1,1,48,"S 61","","",TRUE,"CV","q",1066,"cv","S",1,"c","c",TRUE,1,-0.0337020015165458
"CVOE updated",5,1,1,49,"U 67","","",FALSE,"CV","p",528,"cv","U",7,"v","v",TRUE,1,-0.643249118775616
"CVOE updated",5,1,1,50,"H 32","","",FALSE,"CV","q",547,"cv","H",2,"c","c",TRUE,1,-0.621722361846393
"CVOE updated",5,1,1,51,"U 50","","",TRUE,"CV","p",609,"cv","U",0,"v","v",TRUE,1,-0.551477155024715
"CVOE updated",5,1,1,52,"O 49","","",FALSE,"CV","p",452,"cv","O",9,"v","v",TRUE,1,-0.729356146492511
"CVOE updated",5,1,1,53,"U 32","","",TRUE,"CV","p",479,"cv","U",2,"v","v",TRUE,1,-0.698765491908877
"CVOE updated",5,1,1,54,"J 78","","",FALSE,"CV","q",560,"cv","J",8,"c","c",TRUE,1,-0.606993528157976
"CVOE updated",5,1,1,55,"S 54","","",FALSE,"CV","q",504,"cv","S",4,"c","c",TRUE,1,-0.670440811738846
"CVOE updated",5,1,1,56,"J 27","","",TRUE,"CV","q",638,"cv","J",7,"c","c",TRUE,1,-0.518620526027479
"CVOE updated",5,1,1,57,"S 06","","",FALSE,"CV","q",470,"cv","S",6,"c","c",TRUE,1,-0.708962376770088
"CVOE updated",5,1,1,58,"D 67","","",TRUE,"CV","q",644,"cv","D",7,"c","c",TRUE,1,-0.511822602786672
"CVOE updated",5,1,1,59,"A 79","","",FALSE,"CV","p",580,"cv","A",9,"v","v",TRUE,1,-0.584333784021951
"CVOE updated",5,1,1,60,"S 52","","",FALSE,"CV","q",466,"cv","S",2,"c","c",TRUE,1,-0.713494325597293
"CVOE updated",5,1,1,61,"U 16","","",TRUE,"CV","p",912,"cv","U",6,"v","v",TRUE,1,-0.208182031363938
"CVOE updated",5,1,1,62,"O 82","","",TRUE,"CV","p",670,"cv","O",2,"v","v",TRUE,1,-0.482364935409839
"CVOE updated",5,1,1,63,"H 87","","",TRUE,"CV","q",547,"cv","H",7,"c","c",TRUE,1,-0.621722361846393
"CVOE updated",5,1,1,64,"I 32","","",TRUE,"CV","p",881,"cv","I",2,"v","v",TRUE,1,-0.243304634774776
"CVOE updated",5,1,1,65,"U 37","","",FALSE,"CV","p",562,"cv","U",7,"v","v",TRUE,1,-0.604727553744374
"CVOE updated",5,1,1,66,"I 42","","",TRUE,"CV","p",946,"cv","I",2,"v","v",TRUE,1,-0.169660466332695
"CVOE updated",5,1,1,67,"D 65","","",TRUE,"CV","q",416,"cv","D",5,"c","c",TRUE,1,-0.770143685937356
"CVOE updated",5,1,1,68,"U 77","","",FALSE,"CV","p",491,"cv","U",7,"v","v",TRUE,1,-0.685169645427262
"CVOE updated",5,1,1,69,"E 12","","",TRUE,"CV","q",590,"cv","E",2,"v","c",FALSE,0,-0.573003911953939
"CVOE updated",5,1,1,70,"I 60","","",TRUE,"CV","p",964,"cv","I",0,"v","v",TRUE,1,-0.149266696610273
"CVOE updated",5,1,1,71,"J 36","","",FALSE,"CV","q",1332,"cv","J",6,"c","c",TRUE,1,0.267672595492586
"CVOE updated",5,1,1,72,"H 75","","",TRUE,"CV","q",1288,"cv","H",5,"c","c",TRUE,1,0.217821158393331
"CVOE updated",5,1,1,73,"I 50","","",TRUE,"CV","q",555,"cv","I",0,"v","c",FALSE,0,-0.612658464191983
"CVOE updated",5,1,1,74,"E 99","","",FALSE,"CV","p",956,"cv","E",9,"v","v",TRUE,1,-0.158330594264683
"CVOE updated",5,1,1,75,"A 86","","",TRUE,"CV","q",716,"cv","A",6,"v","c",FALSE,0,-0.430247523896982
"CVOE updated",5,1,1,76,"U 48","","",TRUE,"CV","p",533,"cv","U",8,"v","v",TRUE,1,-0.63758418274161
"CVOE updated",5,1,1,77,"E 01","","",FALSE,"CV","p",656,"cv","E",1,"v","v",TRUE,1,-0.498226756305057
"CVOE updated",5,1,1,78,"A 78","","",TRUE,"CV","q",731,"cv","A",8,"v","c",FALSE,0,-0.413252715794963
"CVOE updated",5,1,1,79,"P 60","","",FALSE,"CV","q",598,"cv","P",0,"c","c",TRUE,1,-0.563940014299529
"CVOE updated",5,1,1,80,"E 43","","",FALSE,"CV","p",958,"cv","E",3,"v","v",TRUE,1,-0.15606461985108
"CVOE updated",5,1,1,81,"D 69","","",TRUE,"CV","q",559,"cv","D",9,"c","c",TRUE,1,-0.608126515364778
"CVOE updated",5,1,1,82,"H 11","","",TRUE,"CV","q",895,"cv","H",1,"c","c",TRUE,1,-0.227442813879559
"CVOE updated",5,1,1,83,"P 43","","",TRUE,"CV","q",619,"cv","P",3,"c","c",TRUE,1,-0.540147282956703
"CVOE updated",5,1,1,84,"O 67","","",FALSE,"CV","p",1134,"cv","O",7,"v","v",TRUE,1,0.043341128545939
"CVOE updated",5,1,1,85,"S 91","","",FALSE,"CV","q",505,"cv","S",1,"c","c",TRUE,1,-0.669307824532045
"CVOE updated",5,1,1,86,"J 68","","",TRUE,"CV","q",647,"cv","J",8,"c","c",TRUE,1,-0.508423641166268
"CVOE updated",5,1,1,87,"S 47","","",FALSE,"CV","q",762,"cv","S",7,"c","c",TRUE,1,-0.378130112384125
"CVOE updated",5,1,1,88,"I 81","","",TRUE,"CV","p",690,"cv","I",1,"v","v",TRUE,1,-0.459705191273814
"CVOE updated",5,1,1,89,"J 39","","",FALSE,"CV","q",621,"cv","J",9,"c","c",TRUE,1,-0.5378813085431
"CVOE updated",5,1,1,90,"A 11","","",TRUE,"CV","p",811,"cv","A",1,"v","v",TRUE,1,-0.322613739250864
"CVOE updated",5,1,1,91,"O 76","","",FALSE,"CV","p",510,"cv","O",6,"v","v",TRUE,1,-0.663642888498039
"CVOE updated",5,1,1,92,"A 62","","",FALSE,"CV","p",1260,"cv","A",2,"v","v",TRUE,1,0.186097516602896
"CVOE updated",5,1,1,93,"O 27","","",TRUE,"CV","p",466,"cv","O",7,"v","v",TRUE,1,-0.713494325597293
"CVOE updated",5,1,1,94,"E 66","","",FALSE,"CV","q",552,"cv","E",6,"v","c",FALSE,0,-0.616057425812386
"CVOE updated",5,1,1,95,"J 62","","",TRUE,"CV","q",774,"cv","J",2,"c","c",TRUE,1,-0.36453426590251
"CVOE updated",5,1,1,96,"H 72","","",TRUE,"CV","q",609,"cv","H",2,"c","c",TRUE,1,-0.551477155024715
"CVOE updated",5,1,1,97,"E 49","","",TRUE,"CV","p",948,"cv","E",9,"v","v",TRUE,1,-0.167394491919093
"CVOE updated",5,1,1,98,"D 52","","",TRUE,"CV","q",466,"cv","D",2,"c","c",TRUE,1,-0.713494325597293
"CVOE updated",5,1,1,99,"H 62","","",TRUE,"CV","q",551,"cv","H",2,"c","c",TRUE,1,-0.617190413019188
"CVOE updated",5,1,1,100,"I 11","","",TRUE,"CV","p",637,"cv","I",1,"v","v",TRUE,1,-0.51975351323428
"CVOE updated",5,1,1,101,"A 98","","",FALSE,"CV","p",1494,"cv","A",8,"v","v",TRUE,1,0.451216522994388
"CVOE updated",5,1,1,102,"H 29","","",FALSE,"CV","q",1457,"cv","H",9,"c","c",TRUE,1,0.409295996342741
"CVOE updated",5,1,1,103,"E 83","","",TRUE,"CV","p",596,"cv","E",3,"v","v",TRUE,1,-0.566205988713131
"CVOE updated",5,1,1,104,"D 43","","",FALSE,"CV","q",501,"cv","D",3,"c","c",TRUE,1,-0.67383977335925
"CVOE updated",5,1,1,105,"P 45","","",TRUE,"CV","q",491,"cv","P",5,"c","c",TRUE,1,-0.685169645427262
"CVOE updated",5,1,1,106,"J 17","","",TRUE,"CV","q",462,"cv","J",7,"c","c",TRUE,1,-0.718026274424498
"CVOE updated",1,1,1,11,"A 71","","",FALSE,"CV","p",2421,"cv","A",1,"v","v",TRUE,1,1.50149566369914
"CVOE updated",1,1,1,12,"I 66","","",TRUE,"CV","p",717,"cv","I",6,"v","v",TRUE,1,-0.429114536690181
"CVOE updated",1,1,1,13,"S 30","","",FALSE,"CV","q",566,"cv","S",0,"c","c",TRUE,1,-0.600195604917169
"CVOE updated",1,1,1,14,"D 20","","",FALSE,"CV","q",868,"cv","D",0,"c","c",TRUE,1,-0.258033468463193
"CVOE updated",1,1,1,15,"I 31","","",FALSE,"CV","p",550,"cv","I",1,"v","v",TRUE,1,-0.618323400225989
"CVOE updated",1,1,1,16,"P 16","","",FALSE,"CV","q",731,"cv","P",6,"c","c",TRUE,1,-0.413252715794963
"CVOE updated",1,1,1,17,"A 49","","",FALSE,"CV","p",784,"cv","A",9,"v","v",TRUE,1,-0.353204393834497
"CVOE updated",1,1,1,18,"O 64","","",TRUE,"CV","p",1165,"cv","O",4,"v","v",TRUE,1,0.0784637319567776
"CVOE updated",1,1,1,19,"D 02","","",FALSE,"CV","q",1267,"cv","D",2,"c","c",TRUE,1,0.194028427050505
"CVOE updated",1,1,1,20,"P 81","","",TRUE,"CV","q",1141,"cv","P",1,"c","c",TRUE,1,0.0512720389935477
"CVOE updated",1,1,1,21,"J 58","","",FALSE,"CV","q",3512,"cv","J",8,"c","c",TRUE,1,2.7375847063193
"CVOE updated",1,1,1,22,"A 22","","",TRUE,"CV","p",492,"cv","A",2,"v","v",TRUE,1,-0.684036658220461
"CVOE updated",1,1,1,23,"J 72","","",FALSE,"CV","q",599,"cv","J",2,"c","c",TRUE,1,-0.562807027092728
"CVOE updated",1,1,1,24,"P 91","","",TRUE,"CV","q",590,"cv","P",1,"c","c",TRUE,1,-0.573003911953939
"CVOE updated",1,1,1,25,"E 19","","",FALSE,"CV","p",666,"cv","E",9,"v","v",TRUE,1,-0.486896884237044
"CVOE updated",1,1,1,26,"I 30","","",TRUE,"CV","p",710,"cv","I",0,"v","v",TRUE,1,-0.437045447137789
"CVOE updated",1,1,1,27,"D 91","","",TRUE,"CV","q",515,"cv","D",1,"c","c",TRUE,1,-0.657977952464032
"CVOE updated",1,1,1,28,"O 48","","",TRUE,"CV","p",823,"cv","O",8,"v","v",TRUE,1,-0.309017892769249
"CVOE updated",1,1,1,29,"A 89","","",FALSE,"CV","p",545,"cv","A",9,"v","v",TRUE,1,-0.623988336259995
"CVOE updated",1,1,1,30,"U 11","","",FALSE,"CV","p",736,"cv","U",1,"v","v",TRUE,1,-0.407587779760957
"CVOE updated",1,1,1,31,"I 76","","",TRUE,"CV","p",608,"cv","I",6,"v","v",TRUE,1,-0.552610142231516
"CVOE updated",1,1,1,32,"U 89","","",FALSE,"CV","p",978,"cv","U",9,"v","v",TRUE,1,-0.133404875715055
"CVOE updated",1,1,1,33,"D 63","","",TRUE,"CV","q",482,"cv","D",3,"c","c",TRUE,1,-0.695366530288474
"CVOE updated",1,1,1,34,"H 70","","",FALSE,"CV","q",795,"cv","H",0,"c","c",TRUE,1,-0.340741534559683
"CVOE updated",1,1,1,35,"D 48","","",FALSE,"CV","q",585,"cv","D",8,"c","c",TRUE,1,-0.578668847987945
"CVOE updated",1,1,1,36,"P 56","","",FALSE,"CV","p",520,"cv","P",6,"c","v",FALSE,0,-0.652313016430026
"CVOE updated",1,1,1,37,"O 77","","",FALSE,"CV","p",1241,"cv","O",7,"v","v",TRUE,1,0.164570759673672
"CVOE updated",1,1,1,38,"P 42","","",FALSE,"CV","q",601,"cv","P",2,"c","c",TRUE,1,-0.560541052679125
"CVOE updated",1,1,1,39,"H 22","","",FALSE,"CV","q",808,"cv","H",2,"c","c",TRUE,1,-0.326012700871267
"CVOE updated",1,1,1,40,"E 42","","",TRUE,"CV","p",579,"cv","E",2,"v","v",TRUE,1,-0.585466771228753
"CVOE updated",1,1,1,41,"J 28","","",FALSE,"CV","q",537,"cv","J",8,"c","c",TRUE,1,-0.633052233914405
"CVOE updated",1,1,1,42,"E 95","","",FALSE,"CV","p",698,"cv","E",5,"v","v",TRUE,1,-0.450641293619404
"CVOE updated",1,1,1,43,"S 63","","",TRUE,"CV","q",1279,"cv","S",3,"c","c",TRUE,1,0.20762427353212
"CVOE updated",1,1,1,44,"H 50","","",FALSE,"CV","q",1077,"cv","H",0,"c","c",TRUE,1,-0.0212391422417321
"CVOE updated",1,1,1,45,"S 33","","",TRUE,"CV","q",619,"cv","S",3,"c","c",TRUE,1,-0.540147282956703
"CVOE updated",1,1,1,46,"P 57","","",TRUE,"CV","q",705,"cv","P",7,"c","c",TRUE,1,-0.442710383171796
"CVOE updated",1,1,1,47,"E 23","","",FALSE,"CV","p",568,"cv","E",3,"v","v",TRUE,1,-0.597929630503566
"CVOE updated",1,1,1,48,"S 61","","",TRUE,"CV","q",465,"cv","S",1,"c","c",TRUE,1,-0.714627312804095
"CVOE updated",1,1,1,49,"U 67","","",FALSE,"CV","p",564,"cv","U",7,"v","v",TRUE,1,-0.602461579330771
"CVOE updated",1,1,1,50,"H 32","","",FALSE,"CV","q",507,"cv","H",2,"c","c",TRUE,1,-0.667041850118442
"CVOE updated",1,1,1,51,"U 50","","",TRUE,"CV","p",635,"cv","U",0,"v","v",TRUE,1,-0.522019487647883
"CVOE updated",1,1,1,52,"O 49","","",FALSE,"CV","p",2704,"cv","O",9,"v","v",TRUE,1,1.8221310432239
"CVOE updated",1,1,1,53,"U 32","","",TRUE,"CV","p",865,"cv","U",2,"v","v",TRUE,1,-0.261432430083596
"CVOE updated",1,1,1,54,"J 78","","",FALSE,"CV","q",523,"cv","J",8,"c","c",TRUE,1,-0.648914054809622
"CVOE updated",1,1,1,55,"S 54","","",FALSE,"CV","q",577,"cv","S",4,"c","c",TRUE,1,-0.587732745642355
"CVOE updated",1,1,1,56,"J 27","","",TRUE,"CV","q",680,"cv","J",7,"c","c",TRUE,1,-0.471035063341827
"CVOE updated",1,1,1,57,"S 06","","",FALSE,"CV","q",387,"cv","S",6,"c","c",TRUE,1,-0.803000314934592
"CVOE updated",1,1,1,58,"D 67","","",TRUE,"CV","q",411,"cv","D",7,"c","c",TRUE,1,-0.775808621971362
"CVOE updated",1,1,1,59,"A 79","","",FALSE,"CV","p",500,"cv","A",9,"v","v",TRUE,1,-0.674972760566051
"CVOE updated",1,1,1,60,"S 52","","",FALSE,"CV","q",490,"cv","S",2,"c","c",TRUE,1,-0.686302632634064
"CVOE updated",1,1,1,61,"U 16","","",TRUE,"CV","p",1018,"cv","U",6,"v","v",TRUE,1,-0.0880853874430056
"CVOE updated",1,1,1,62,"O 82","","",TRUE,"CV","p",609,"cv","O",2,"v","v",TRUE,1,-0.551477155024715
"CVOE updated",1,1,1,63,"H 87","","",TRUE,"CV","q",586,"cv","H",7,"c","c",TRUE,1,-0.577535860781144
"CVOE updated",1,1,1,64,"I 32","","",TRUE,"CV","p",397,"cv","I",2,"v","v",TRUE,1,-0.791670442866579
"CVOE updated",1,1,1,65,"U 37","","",FALSE,"CV","p",543,"cv","U",7,"v","v",TRUE,1,-0.626254310673597
"CVOE updated",1,1,1,66,"I 42","","",TRUE,"CV","p",455,"cv","I",2,"v","v",TRUE,1,-0.725957184872107
"CVOE updated",1,1,1,67,"D 65","","",TRUE,"CV","q",432,"cv","D",5,"c","c",TRUE,1,-0.752015890628536
"CVOE updated",1,1,1,68,"U 77","","",FALSE,"CV","p",619,"cv","U",7,"v","v",TRUE,1,-0.540147282956703
"CVOE updated",1,1,1,69,"E 12","","",TRUE,"CV","p",464,"cv","E",2,"v","v",TRUE,1,-0.715760300010896
"CVOE updated",1,1,1,70,"I 60","","",TRUE,"CV","p",490,"cv","I",0,"v","v",TRUE,1,-0.686302632634064
"CVOE updated",1,1,1,71,"J 36","","",FALSE,"CV","q",545,"cv","J",6,"c","c",TRUE,1,-0.623988336259995
"CVOE updated",1,1,1,72,"H 75","","",TRUE,"CV","q",2057,"cv","H",5,"c","c",TRUE,1,1.08908832042349
"CVOE updated",1,1,1,73,"I 50","","",TRUE,"CV","p",504,"cv","I",0,"v","v",TRUE,1,-0.670440811738846
"CVOE updated",1,1,1,74,"E 99","","",FALSE,"CV","p",771,"cv","E",9,"v","v",TRUE,1,-0.367933227522913
"CVOE updated",1,1,1,75,"A 86","","",TRUE,"CV","p",596,"cv","A",6,"v","v",TRUE,1,-0.566205988713131
"CVOE updated",1,1,1,76,"U 48","","",TRUE,"CV","p",514,"cv","U",8,"v","v",TRUE,1,-0.659110939670834
"CVOE updated",1,1,1,77,"E 01","","",FALSE,"CV","p",468,"cv","E",1,"v","v",TRUE,1,-0.711228351183691
"CVOE updated",1,1,1,78,"A 78","","",TRUE,"CV","p",356,"cv","A",8,"v","v",TRUE,1,-0.838122918345431
"CVOE updated",1,1,1,79,"P 60","","",FALSE,"CV","q",500,"cv","P",0,"c","c",TRUE,1,-0.674972760566051
"CVOE updated",1,1,1,80,"E 43","","",FALSE,"CV","p",662,"cv","E",3,"v","v",TRUE,1,-0.491428833064249
"CVOE updated",1,1,1,81,"D 69","","",TRUE,"CV","q",627,"cv","D",9,"c","c",TRUE,1,-0.531083385302293
"CVOE updated",1,1,1,82,"H 11","","",TRUE,"CV","q",634,"cv","H",1,"c","c",TRUE,1,-0.523152474854684
"CVOE updated",1,1,1,83,"P 43","","",TRUE,"CV","q",568,"cv","P",3,"c","c",TRUE,1,-0.597929630503566
"CVOE updated",1,1,1,84,"O 67","","",FALSE,"CV","p",433,"cv","O",7,"v","v",TRUE,1,-0.750882903421735
"CVOE updated",1,1,1,85,"S 91","","",FALSE,"CV","q",533,"cv","S",1,"c","c",TRUE,1,-0.63758418274161
"CVOE updated",1,1,1,86,"J 68","","",TRUE,"CV","q",674,"cv","J",8,"c","c",TRUE,1,-0.477832986582634
"CVOE updated",1,1,1,87,"S 47","","",FALSE,"CV","q",443,"cv","S",7,"c","c",TRUE,1,-0.739553031353722
"CVOE updated",1,1,1,88,"I 81","","",TRUE,"CV","p",478,"cv","I",1,"v","v",TRUE,1,-0.699898479115678
"CVOE updated",1,1,1,89,"J 39","","",FALSE,"CV","q",483,"cv","J",9,"c","c",TRUE,1,-0.694233543081672
"CVOE updated",1,1,1,90,"A 11","","",TRUE,"CV","p",454,"cv","A",1,"v","v",TRUE,1,-0.727090172078908
"CVOE updated",1,1,1,91,"O 76","","",FALSE,"CV","p",726,"cv","O",6,"v","v",TRUE,1,-0.418917651828969
"CVOE updated",1,1,1,92,"A 62","","",FALSE,"CV","p",563,"cv","A",2,"v","v",TRUE,1,-0.603594566537573
"CVOE updated",1,1,1,93,"O 27","","",TRUE,"CV","p",554,"cv","O",7,"v","v",TRUE,1,-0.613791451398784
"CVOE updated",1,1,1,94,"E 66","","",FALSE,"CV","p",653,"cv","E",6,"v","v",TRUE,1,-0.50162571792546
"CVOE updated",1,1,1,95,"J 62","","",TRUE,"CV","q",924,"cv","J",2,"c","c",TRUE,1,-0.194586184882323
"CVOE updated",1,1,1,96,"H 72","","",TRUE,"CV","q",541,"cv","H",2,"c","c",TRUE,1,-0.6285202850872
"CVOE updated",1,1,1,97,"E 49","","",TRUE,"CV","p",575,"cv","E",9,"v","v",TRUE,1,-0.589998720055958
"CVOE updated",1,1,1,98,"D 52","","",TRUE,"CV","q",754,"cv","D",2,"c","c",TRUE,1,-0.387194010038535
"CVOE updated",1,1,1,99,"H 62","","",TRUE,"CV","q",633,"cv","H",2,"c","c",TRUE,1,-0.524285462061485
"CVOE updated",1,1,1,100,"I 11","","",TRUE,"CV","p",544,"cv","I",1,"v","v",TRUE,1,-0.625121323466796
"CVOE updated",1,1,1,101,"A 98","","",FALSE,"CV","p",588,"cv","A",8,"v","v",TRUE,1,-0.575269886367541
"CVOE updated",1,1,1,102,"H 29","","",FALSE,"CV","q",516,"cv","H",9,"c","c",TRUE,1,-0.656844965257231
"CVOE updated",1,1,1,103,"E 83","","",TRUE,"CV","p",544,"cv","E",3,"v","v",TRUE,1,-0.625121323466796
"CVOE updated",1,1,1,104,"D 43","","",FALSE,"CV","q",919,"cv","D",3,"c","c",TRUE,1,-0.200251120916329
"CVOE updated",1,1,1,105,"P 45","","",TRUE,"CV","q",658,"cv","P",5,"c","c",TRUE,1,-0.495960781891454
"CVOE updated",1,1,1,106,"J 17","","",TRUE,"CV","q",504,"cv","J",7,"c","c",TRUE,1,-0.670440811738846
"CVOE updated",9,1,1,11,"A 71","","",FALSE,"CV","p",1803,"cv","A",1,"v","v",TRUE,1,0.801309569895973
"CVOE updated",9,1,1,12,"I 66","","",TRUE,"CV","p",612,"cv","I",6,"v","v",TRUE,1,-0.548078193404312
"CVOE updated",9,1,1,13,"S 30","","",FALSE,"CV","q",487,"cv","S",0,"c","c",TRUE,1,-0.689701594254467
"CVOE updated",9,1,1,14,"D 20","","",FALSE,"CV","q",571,"cv","D",0,"c","c",TRUE,1,-0.594530668883163
"CVOE updated",9,1,1,15,"I 31","","",FALSE,"CV","p",526,"cv","I",1,"v","v",TRUE,1,-0.645515093189219
"CVOE updated",9,1,1,16,"P 16","","",FALSE,"CV","q",590,"cv","P",6,"c","c",TRUE,1,-0.573003911953939
"CVOE updated",9,1,1,17,"A 49","","",FALSE,"CV","p",524,"cv","A",9,"v","v",TRUE,1,-0.647781067602821
"CVOE updated",9,1,1,18,"O 64","","",TRUE,"CV","p",612,"cv","O",4,"v","v",TRUE,1,-0.548078193404312
"CVOE updated",9,1,1,19,"D 02","","",FALSE,"CV","q",471,"cv","D",2,"c","c",TRUE,1,-0.707829389563287
"CVOE updated",9,1,1,20,"P 81","","",TRUE,"CV","q",765,"cv","P",1,"c","c",TRUE,1,-0.374731150763721
"CVOE updated",9,1,1,21,"J 58","","",FALSE,"CV","q",749,"cv","J",8,"c","c",TRUE,1,-0.392858946072541
"CVOE updated",9,1,1,22,"A 22","","",TRUE,"CV","p",475,"cv","A",2,"v","v",TRUE,1,-0.703297440736082
"CVOE updated",9,1,1,23,"J 72","","",FALSE,"CV","q",532,"cv","J",2,"c","c",TRUE,1,-0.638717169948411
"CVOE updated",9,1,1,24,"P 91","","",TRUE,"CV","q",535,"cv","P",1,"c","c",TRUE,1,-0.635318208328007
"CVOE updated",9,1,1,25,"E 19","","",FALSE,"CV","p",450,"cv","E",9,"v","v",TRUE,1,-0.731622120906113
"CVOE updated",9,1,1,26,"I 30","","",TRUE,"CV","p",453,"cv","I",0,"v","v",TRUE,1,-0.72822315928571
"CVOE updated",9,1,1,27,"D 91","","",TRUE,"CV","q",488,"cv","D",1,"c","c",TRUE,1,-0.688568607047666
"CVOE updated",9,1,1,28,"O 48","","",TRUE,"CV","p",531,"cv","O",8,"v","v",TRUE,1,-0.639850157155212
"CVOE updated",9,1,1,29,"A 89","","",FALSE,"CV","p",566,"cv","A",9,"v","v",TRUE,1,-0.600195604917169
"CVOE updated",9,1,1,30,"U 11","","",FALSE,"CV","p",542,"cv","U",1,"v","v",TRUE,1,-0.627387297880399
"CVOE updated",9,1,1,31,"I 76","","",TRUE,"CV","p",420,"cv","I",6,"v","v",TRUE,1,-0.765611737110151
"CVOE updated",9,1,1,32,"U 89","","",FALSE,"CV","p",450,"cv","U",9,"v","v",TRUE,1,-0.731622120906113
"CVOE updated",9,1,1,33,"D 63","","",TRUE,"CV","q",461,"cv","D",3,"c","c",TRUE,1,-0.7191592616313
"CVOE updated",9,1,1,34,"H 70","","",FALSE,"CV","q",475,"cv","H",0,"c","c",TRUE,1,-0.703297440736082
"CVOE updated",9,1,1,35,"D 48","","",FALSE,"CV","q",451,"cv","D",8,"c","c",TRUE,1,-0.730489133699312
"CVOE updated",9,1,1,36,"P 56","","",FALSE,"CV","q",502,"cv","P",6,"c","c",TRUE,1,-0.672706786152449
"CVOE updated",9,1,1,37,"O 77","","",FALSE,"CV","p",444,"cv","O",7,"v","v",TRUE,1,-0.738420044146921
"CVOE updated",9,1,1,38,"P 42","","",FALSE,"CV","q",756,"cv","P",2,"c","c",TRUE,1,-0.384928035624932
"CVOE updated",9,1,1,39,"H 22","","",FALSE,"CV","q",693,"cv","H",2,"c","c",TRUE,1,-0.456306229653411
"CVOE updated",9,1,1,40,"E 42","","",TRUE,"CV","p",344,"cv","E",2,"v","v",TRUE,1,-0.851718764827045
"CVOE updated",9,1,1,41,"J 28","","",FALSE,"CV","q",1029,"cv","J",8,"c","c",TRUE,1,-0.0756225281681919
"CVOE updated",9,1,1,42,"E 95","","",FALSE,"CV","p",595,"cv","E",5,"v","v",TRUE,1,-0.567338975919933
"CVOE updated",9,1,1,43,"S 63","","",TRUE,"CV","q",508,"cv","S",3,"c","c",TRUE,1,-0.665908862911641
"CVOE updated",9,1,1,44,"H 50","","",FALSE,"CV","q",449,"cv","H",0,"c","c",TRUE,1,-0.732755108112915
"CVOE updated",9,1,1,45,"S 33","","",TRUE,"CV","q",476,"cv","S",3,"c","c",TRUE,1,-0.702164453529281
"CVOE updated",9,1,1,46,"P 57","","",TRUE,"CV","q",541,"cv","P",7,"c","c",TRUE,1,-0.6285202850872
"CVOE updated",9,1,1,47,"E 23","","",FALSE,"CV","p",459,"cv","E",3,"v","v",TRUE,1,-0.721425236044902
"CVOE updated",9,1,1,48,"S 61","","",TRUE,"CV","q",422,"cv","S",1,"c","c",TRUE,1,-0.763345762696548
"CVOE updated",9,1,1,49,"U 67","","",FALSE,"CV","p",515,"cv","U",7,"v","v",TRUE,1,-0.657977952464032
"CVOE updated",9,1,1,50,"H 32","","",FALSE,"CV","q",540,"cv","H",2,"c","c",TRUE,1,-0.629653272294001
"CVOE updated",9,1,1,51,"U 50","","",TRUE,"CV","p",575,"cv","U",0,"v","v",TRUE,1,-0.589998720055958
"CVOE updated",9,1,1,52,"O 49","","",FALSE,"CV","p",554,"cv","O",9,"v","v",TRUE,1,-0.613791451398784
"CVOE updated",9,1,1,53,"U 32","","",TRUE,"CV","p",530,"cv","U",2,"v","v",TRUE,1,-0.640983144362014
"CVOE updated",9,1,1,54,"J 78","","",FALSE,"CV","q",509,"cv","J",8,"c","c",TRUE,1,-0.66477587570484
"CVOE updated",9,1,1,55,"S 54","","",FALSE,"CV","q",571,"cv","S",4,"c","c",TRUE,1,-0.594530668883163
"CVOE updated",9,1,1,56,"J 27","","",TRUE,"CV","q",550,"cv","J",7,"c","c",TRUE,1,-0.618323400225989
"CVOE updated",9,1,1,57,"S 06","","",FALSE,"CV","q",612,"cv","S",6,"c","c",TRUE,1,-0.548078193404312
"CVOE updated",9,1,1,58,"D 67","","",TRUE,"CV","q",487,"cv","D",7,"c","c",TRUE,1,-0.689701594254467
"CVOE updated",9,1,1,59,"A 79","","",FALSE,"CV","p",482,"cv","A",9,"v","v",TRUE,1,-0.695366530288474
"CVOE updated",9,1,1,60,"S 52","","",FALSE,"CV","q",498,"cv","S",2,"c","c",TRUE,1,-0.677238734979654
"CVOE updated",9,1,1,61,"U 16","","",TRUE,"CV","p",526,"cv","U",6,"v","v",TRUE,1,-0.645515093189219
"CVOE updated",9,1,1,62,"O 82","","",TRUE,"CV","p",430,"cv","O",2,"v","v",TRUE,1,-0.754281865042138
"CVOE updated",9,1,1,63,"H 87","","",TRUE,"CV","q",516,"cv","H",7,"c","c",TRUE,1,-0.656844965257231
"CVOE updated",9,1,1,64,"I 32","","",TRUE,"CV","p",372,"cv","I",2,"v","v",TRUE,1,-0.819995123036611
"CVOE updated",9,1,1,65,"U 37","","",FALSE,"CV","p",455,"cv","U",7,"v","v",TRUE,1,-0.725957184872107
"CVOE updated",9,1,1,66,"I 42","","",TRUE,"CV","p",466,"cv","I",2,"v","v",TRUE,1,-0.713494325597293
"CVOE updated",9,1,1,67,"D 65","","",TRUE,"CV","q",400,"cv","D",5,"c","c",TRUE,1,-0.788271481246176
"CVOE updated",9,1,1,68,"U 77","","",FALSE,"CV","p",472,"cv","U",7,"v","v",TRUE,1,-0.706696402356486
"CVOE updated",9,1,1,69,"E 12","","",TRUE,"CV","p",462,"cv","E",2,"v","v",TRUE,1,-0.718026274424498
"CVOE updated",9,1,1,70,"I 60","","",TRUE,"CV","p",452,"cv","I",0,"v","v",TRUE,1,-0.729356146492511
"CVOE updated",9,1,1,71,"J 36","","",FALSE,"CV","q",423,"cv","J",6,"c","c",TRUE,1,-0.762212775489747
"CVOE updated",9,1,1,72,"H 75","","",TRUE,"CV","q",492,"cv","H",5,"c","c",TRUE,1,-0.684036658220461
"CVOE updated",9,1,1,73,"I 50","","",TRUE,"CV","p",535,"cv","I",0,"v","v",TRUE,1,-0.635318208328007
"CVOE updated",9,1,1,74,"E 99","","",FALSE,"CV","p",450,"cv","E",9,"v","v",TRUE,1,-0.731622120906113
"CVOE updated",9,1,1,75,"A 86","","",TRUE,"CV","p",437,"cv","A",6,"v","v",TRUE,1,-0.74635095459453
"CVOE updated",9,1,1,76,"U 48","","",TRUE,"CV","p",510,"cv","U",8,"v","v",TRUE,1,-0.663642888498039
"CVOE updated",9,1,1,77,"E 01","","",FALSE,"CV","p",484,"cv","E",1,"v","v",TRUE,1,-0.693100555874871
"CVOE updated",9,1,1,78,"A 78","","",TRUE,"CV","p",444,"cv","A",8,"v","v",TRUE,1,-0.738420044146921
"CVOE updated",9,1,1,79,"P 60","","",FALSE,"CV","q",468,"cv","P",0,"c","c",TRUE,1,-0.711228351183691
"CVOE updated",9,1,1,80,"E 43","","",FALSE,"CV","p",458,"cv","E",3,"v","v",TRUE,1,-0.722558223251703
"CVOE updated",9,1,1,81,"D 69","","",TRUE,"CV","q",413,"cv","D",9,"c","c",TRUE,1,-0.773542647557759
"CVOE updated",9,1,1,82,"H 11","","",TRUE,"CV","q",520,"cv","H",1,"c","c",TRUE,1,-0.652313016430026
"CVOE updated",9,1,1,83,"P 43","","",TRUE,"CV","q",1016,"cv","P",3,"c","c",TRUE,1,-0.0903513618566081
"CVOE updated",9,1,1,84,"O 67","","",FALSE,"CV","p",484,"cv","O",7,"v","v",TRUE,1,-0.693100555874871
"CVOE updated",9,1,1,85,"S 91","","",FALSE,"CV","q",476,"cv","S",1,"c","c",TRUE,1,-0.702164453529281
"CVOE updated",9,1,1,86,"J 68","","",TRUE,"CV","q",444,"cv","J",8,"c","c",TRUE,1,-0.738420044146921
"CVOE updated",9,1,1,87,"S 47","","",FALSE,"CV","q",501,"cv","S",7,"c","c",TRUE,1,-0.67383977335925
"CVOE updated",9,1,1,88,"I 81","","",TRUE,"CV","p",499,"cv","I",1,"v","v",TRUE,1,-0.676105747772852
"CVOE updated",9,1,1,89,"J 39","","",FALSE,"CV","q",438,"cv","J",9,"c","c",TRUE,1,-0.745217967387728
"CVOE updated",9,1,1,90,"A 11","","",TRUE,"CV","p",526,"cv","A",1,"v","v",TRUE,1,-0.645515093189219
"CVOE updated",9,1,1,91,"O 76","","",FALSE,"CV","p",398,"cv","O",6,"v","v",TRUE,1,-0.790537455659778
"CVOE updated",9,1,1,92,"A 62","","",FALSE,"CV","p",415,"cv","A",2,"v","v",TRUE,1,-0.771276673144157
"CVOE updated",9,1,1,93,"O 27","","",TRUE,"CV","p",394,"cv","O",7,"v","v",TRUE,1,-0.795069404486983
"CVOE updated",9,1,1,94,"E 66","","",FALSE,"CV","p",466,"cv","E",6,"v","v",TRUE,1,-0.713494325597293
"CVOE updated",9,1,1,95,"J 62","","",TRUE,"CV","q",448,"cv","J",2,"c","c",TRUE,1,-0.733888095319716
"CVOE updated",9,1,1,96,"H 72","","",TRUE,"CV","q",507,"cv","H",2,"c","c",TRUE,1,-0.667041850118442
"CVOE updated",9,1,1,97,"E 49","","",TRUE,"CV","p",417,"cv","E",9,"v","v",TRUE,1,-0.769010698730554
"CVOE updated",9,1,1,98,"D 52","","",TRUE,"CV","q",460,"cv","D",2,"c","c",TRUE,1,-0.720292248838101
"CVOE updated",9,1,1,99,"H 62","","",TRUE,"CV","q",383,"cv","H",2,"c","c",TRUE,1,-0.807532263761797
"CVOE updated",9,1,1,100,"I 11","","",TRUE,"CV","p",372,"cv","I",1,"v","v",TRUE,1,-0.819995123036611
"CVOE updated",9,1,1,101,"A 98","","",FALSE,"CV","p",367,"cv","A",8,"v","v",TRUE,1,-0.825660059070617
"CVOE updated",9,1,1,102,"H 29","","",FALSE,"CV","q",426,"cv","H",9,"c","c",TRUE,1,-0.758813813869343
"CVOE updated",9,1,1,103,"E 83","","",TRUE,"CV","p",488,"cv","E",3,"v","v",TRUE,1,-0.688568607047666
"CVOE updated",9,1,1,104,"D 43","","",FALSE,"CV","q",459,"cv","D",3,"c","c",TRUE,1,-0.721425236044902
"CVOE updated",9,1,1,105,"P 45","","",TRUE,"CV","q",502,"cv","P",5,"c","c",TRUE,1,-0.672706786152449
"CVOE updated",9,1,1,106,"J 17","","",TRUE,"CV","q",420,"cv","J",7,"c","c",TRUE,1,-0.765611737110151
"CVOE_B",2,1,2,11,"A 71","","",FALSE,"CV","p",1063,"cv","A",1,"v","v",TRUE,1,-0.0371009631369495
"CVOE_B",2,1,2,12,"I 66","","",TRUE,"CV","p",574,"cv","I",6,"v","v",TRUE,1,-0.591131707262759
"CVOE_B",2,1,2,13,"S 30","","",FALSE,"CV","q",481,"cv","S",0,"c","c",TRUE,1,-0.696499517495275
"CVOE_B",2,1,2,14,"D 20","","",FALSE,"CV","q",577,"cv","D",0,"c","c",TRUE,1,-0.587732745642355
"CVOE_B",2,1,2,15,"I 31","","",FALSE,"CV","p",621,"cv","I",1,"v","v",TRUE,1,-0.5378813085431
"CVOE_B",2,1,2,16,"P 16","","",FALSE,"CV","q",706,"cv","P",6,"c","c",TRUE,1,-0.441577395964994
"CVOE_B",2,1,2,17,"A 49","","",FALSE,"CV","p",583,"cv","A",9,"v","v",TRUE,1,-0.580934822401548
"CVOE_B",2,1,2,18,"O 64","","",TRUE,"CV","p",1661,"cv","O",4,"v","v",TRUE,1,0.640425386530196
"CVOE_B",2,1,2,19,"D 02","","",FALSE,"CV","q",580,"cv","D",2,"c","c",TRUE,1,-0.584333784021951
"CVOE_B",2,1,2,20,"P 81","","",TRUE,"CV","q",1006,"cv","P",1,"c","c",TRUE,1,-0.101681233924621
"CVOE_B",2,1,2,21,"J 58","","",FALSE,"CV","q",537,"cv","J",8,"c","c",TRUE,1,-0.633052233914405
"CVOE_B",2,1,2,22,"A 22","","",TRUE,"CV","p",572,"cv","A",2,"v","v",TRUE,1,-0.593397681676361
"CVOE_B",2,1,2,23,"J 72","","",FALSE,"CV","q",505,"cv","J",2,"c","c",TRUE,1,-0.669307824532045
"CVOE_B",2,1,2,24,"P 91","","",TRUE,"CV","q",485,"cv","P",1,"c","c",TRUE,1,-0.69196756866807
"CVOE_B",2,1,2,25,"E 19","","",FALSE,"CV","p",414,"cv","E",9,"v","v",TRUE,1,-0.772409660350958
"CVOE_B",2,1,2,26,"I 30","","",TRUE,"CV","p",585,"cv","I",0,"v","v",TRUE,1,-0.578668847987945
"CVOE_B",2,1,2,27,"D 91","","",TRUE,"CV","q",414,"cv","D",1,"c","c",TRUE,1,-0.772409660350958
"CVOE_B",2,1,2,28,"O 48","","",TRUE,"CV","p",401,"cv","O",8,"v","v",TRUE,1,-0.787138494039374
"CVOE_B",2,1,2,29,"A 89","","",FALSE,"CV","p",578,"cv","A",9,"v","v",TRUE,1,-0.586599758435554
"CVOE_B",2,1,2,30,"U 11","","",FALSE,"CV","p",606,"cv","U",1,"v","v",TRUE,1,-0.554876116645119
"CVOE_B",2,1,2,31,"I 76","","",TRUE,"CV","p",485,"cv","I",6,"v","v",TRUE,1,-0.69196756866807
"CVOE_B",2,1,2,32,"U 89","","",FALSE,"CV","p",431,"cv","U",9,"v","v",TRUE,1,-0.753148877835337
"CVOE_B",2,1,2,33,"D 63","","",TRUE,"CV","q",443,"cv","D",3,"c","c",TRUE,1,-0.739553031353722
"CVOE_B",2,1,2,34,"H 70","","",FALSE,"CV","q",564,"cv","H",0,"c","c",TRUE,1,-0.602461579330771
"CVOE_B",2,1,2,35,"D 48","","",FALSE,"CV","q",508,"cv","D",8,"c","c",TRUE,1,-0.665908862911641
"CVOE_B",2,1,2,36,"P 56","","",FALSE,"CV","q",498,"cv","P",6,"c","c",TRUE,1,-0.677238734979654
"CVOE_B",2,1,2,37,"O 77","","",FALSE,"CV","p",445,"cv","O",7,"v","v",TRUE,1,-0.73728705694012
"CVOE_B",2,1,2,38,"P 42","","",FALSE,"CV","q",461,"cv","P",2,"c","c",TRUE,1,-0.7191592616313
"CVOE_B",2,1,2,39,"H 22","","",FALSE,"CV","q",443,"cv","H",2,"c","c",TRUE,1,-0.739553031353722
"CVOE_B",2,1,2,40,"E 42","","",TRUE,"CV","p",491,"cv","E",2,"v","v",TRUE,1,-0.685169645427262
"CVOE_B",2,1,2,41,"J 28","","",FALSE,"CV","q",663,"cv","J",8,"c","c",TRUE,1,-0.490295845857448
"CVOE_B",2,1,2,42,"E 95","","",FALSE,"CV","p",692,"cv","E",5,"v","v",TRUE,1,-0.457439216860212
"CVOE_B",2,1,2,43,"S 63","","",TRUE,"CV","q",559,"cv","S",3,"c","c",TRUE,1,-0.608126515364778
"CVOE_B",2,1,2,44,"H 50","","",FALSE,"CV","q",480,"cv","H",0,"c","c",TRUE,1,-0.697632504702076
"CVOE_B",2,1,2,45,"S 33","","",TRUE,"CV","q",408,"cv","S",3,"c","c",TRUE,1,-0.779207583591766
"CVOE_B",2,1,2,46,"P 57","","",TRUE,"CV","q",459,"cv","P",7,"c","c",TRUE,1,-0.721425236044902
"CVOE_B",2,1,2,47,"E 23","","",FALSE,"CV","p",543,"cv","E",3,"v","v",TRUE,1,-0.626254310673597
"CVOE_B",2,1,2,48,"S 61","","",TRUE,"CV","q",549,"cv","S",1,"c","c",TRUE,1,-0.61945638743279
"CVOE_B",2,1,2,49,"U 67","","",FALSE,"CV","p",602,"cv","U",7,"v","v",TRUE,1,-0.559408065472324
"CVOE_B",2,1,2,50,"H 32","","",FALSE,"CV","q",467,"cv","H",2,"c","c",TRUE,1,-0.712361338390492
"CVOE_B",2,1,2,51,"U 50","","",TRUE,"CV","p",593,"cv","U",0,"v","v",TRUE,1,-0.569604950333535
"CVOE_B",2,1,2,52,"O 49","","",FALSE,"CV","p",542,"cv","O",9,"v","v",TRUE,1,-0.627387297880399
"CVOE_B",2,1,2,53,"U 32","","",TRUE,"CV","p",516,"cv","U",2,"v","v",TRUE,1,-0.656844965257231
"CVOE_B",2,1,2,54,"J 78","","",FALSE,"CV","q",477,"cv","J",8,"c","c",TRUE,1,-0.70103146632248
"CVOE_B",2,1,2,55,"S 54","","",FALSE,"CV","q",500,"cv","S",4,"c","c",TRUE,1,-0.674972760566051
"CVOE_B",2,1,2,56,"J 27","","",TRUE,"CV","q",491,"cv","J",7,"c","c",TRUE,1,-0.685169645427262
"CVOE_B",2,1,2,57,"S 06","","",FALSE,"CV","q",437,"cv","S",6,"c","c",TRUE,1,-0.74635095459453
"CVOE_B",2,1,2,58,"D 67","","",TRUE,"CV","q",421,"cv","D",7,"c","c",TRUE,1,-0.76447874990335
"CVOE_B",2,1,2,59,"A 79","","",FALSE,"CV","p",563,"cv","A",9,"v","v",TRUE,1,-0.603594566537573
"CVOE_B",2,1,2,60,"S 52","","",FALSE,"CV","q",556,"cv","S",2,"c","c",TRUE,1,-0.611525476985181
"CVOE_B",2,1,2,61,"U 16","","",TRUE,"CV","p",581,"cv","U",6,"v","v",TRUE,1,-0.58320079681515
"CVOE_B",2,1,2,62,"O 82","","",TRUE,"CV","p",577,"cv","O",2,"v","v",TRUE,1,-0.587732745642355
"CVOE_B",2,1,2,63,"H 87","","",TRUE,"CV","q",582,"cv","H",7,"c","c",TRUE,1,-0.582067809608349
"CVOE_B",2,1,2,64,"I 32","","",TRUE,"CV","p",610,"cv","I",2,"v","v",TRUE,1,-0.550344167817914
"CVOE_B",2,1,2,65,"U 37","","",FALSE,"CV","q",598,"cv","U",7,"v","c",FALSE,0,-0.563940014299529
"CVOE_B",2,1,2,66,"I 42","","",TRUE,"CV","p",743,"cv","I",2,"v","v",TRUE,1,-0.399656869313348
"CVOE_B",2,1,2,67,"D 65","","",TRUE,"CV","q",517,"cv","D",5,"c","c",TRUE,1,-0.65571197805043
"CVOE_B",2,1,2,68,"U 77","","",FALSE,"CV","q",549,"cv","U",7,"v","c",FALSE,0,-0.61945638743279
"CVOE_B",2,1,2,69,"E 12","","",TRUE,"CV","p",530,"cv","E",2,"v","v",TRUE,1,-0.640983144362014
"CVOE_B",2,1,2,70,"I 60","","",TRUE,"CV","p",605,"cv","I",0,"v","v",TRUE,1,-0.55600910385192
"CVOE_B",2,1,2,71,"J 36","","",FALSE,"CV","q",542,"cv","J",6,"c","c",TRUE,1,-0.627387297880399
"CVOE_B",2,1,2,72,"H 75","","",TRUE,"CV","q",724,"cv","H",5,"c","c",TRUE,1,-0.421183626242572
"CVOE_B",2,1,2,73,"I 50","","",TRUE,"CV","p",588,"cv","I",0,"v","v",TRUE,1,-0.575269886367541
"CVOE_B",2,1,2,74,"E 99","","",FALSE,"CV","p",706,"cv","E",9,"v","v",TRUE,1,-0.441577395964994
"CVOE_B",2,1,2,75,"A 86","","",TRUE,"CV","p",527,"cv","A",6,"v","v",TRUE,1,-0.644382105982417
"CVOE_B",2,1,2,76,"U 48","","",TRUE,"CV","p",522,"cv","U",8,"v","v",TRUE,1,-0.650047042016424
"CVOE_B",2,1,2,77,"E 01","","",FALSE,"CV","p",468,"cv","E",1,"v","v",TRUE,1,-0.711228351183691
"CVOE_B",2,1,2,78,"A 78","","",TRUE,"CV","p",449,"cv","A",8,"v","v",TRUE,1,-0.732755108112915
"CVOE_B",2,1,2,79,"P 60","","",FALSE,"CV","q",476,"cv","P",0,"c","c",TRUE,1,-0.702164453529281
"CVOE_B",2,1,2,80,"E 43","","",FALSE,"CV","p",780,"cv","E",3,"v","v",TRUE,1,-0.357736342661702
"CVOE_B",2,1,2,81,"D 69","","",TRUE,"CV","q",538,"cv","D",9,"c","c",TRUE,1,-0.631919246707604
"CVOE_B",2,1,2,82,"H 11","","",TRUE,"CV","q",605,"cv","H",1,"c","c",TRUE,1,-0.55600910385192
"CVOE_B",2,1,2,83,"P 43","","",TRUE,"CV","q",830,"cv","P",3,"c","c",TRUE,1,-0.30108698232164
"CVOE_B",2,1,2,84,"O 67","","",FALSE,"CV","p",508,"cv","O",7,"v","v",TRUE,1,-0.665908862911641
"CVOE_B",2,1,2,85,"S 91","","",FALSE,"CV","q",497,"cv","S",1,"c","c",TRUE,1,-0.678371722186455
"CVOE_B",2,1,2,86,"J 68","","",TRUE,"CV","q",588,"cv","J",8,"c","c",TRUE,1,-0.575269886367541
"CVOE_B",2,1,2,87,"S 47","","",FALSE,"CV","q",497,"cv","S",7,"c","c",TRUE,1,-0.678371722186455
"CVOE_B",2,1,2,88,"I 81","","",TRUE,"CV","p",548,"cv","I",1,"v","v",TRUE,1,-0.620589374639591
"CVOE_B",2,1,2,89,"J 39","","",FALSE,"CV","q",443,"cv","J",9,"c","c",TRUE,1,-0.739553031353722
"CVOE_B",2,1,2,90,"A 11","","",TRUE,"CV","p",564,"cv","A",1,"v","v",TRUE,1,-0.602461579330771
"CVOE_B",2,1,2,91,"O 76","","",FALSE,"CV","p",540,"cv","O",6,"v","v",TRUE,1,-0.629653272294001
"CVOE_B",2,1,2,92,"A 62","","",FALSE,"CV","p",543,"cv","A",2,"v","v",TRUE,1,-0.626254310673597
"CVOE_B",2,1,2,93,"O 27","","",TRUE,"CV","p",541,"cv","O",7,"v","v",TRUE,1,-0.6285202850872
"CVOE_B",2,1,2,94,"E 66","","",FALSE,"CV","p",481,"cv","E",6,"v","v",TRUE,1,-0.696499517495275
"CVOE_B",2,1,2,95,"J 62","","",TRUE,"CV","q",459,"cv","J",2,"c","c",TRUE,1,-0.721425236044902
"CVOE_B",2,1,2,96,"H 72","","",TRUE,"CV","q",565,"cv","H",2,"c","c",TRUE,1,-0.60132859212397
"CVOE_B",2,1,2,97,"E 49","","",TRUE,"CV","p",750,"cv","E",9,"v","v",TRUE,1,-0.39172595886574
"CVOE_B",2,1,2,98,"D 52","","",TRUE,"CV","q",1780,"cv","D",2,"c","c",TRUE,1,0.775250864139544
"CVOE_B",2,1,2,99,"H 62","","",TRUE,"CV","q",482,"cv","H",2,"c","c",TRUE,1,-0.695366530288474
"CVOE_B",2,1,2,100,"I 11","","",TRUE,"CV","p",507,"cv","I",1,"v","v",TRUE,1,-0.667041850118442
"CVOE_B",2,1,2,101,"A 98","","",FALSE,"CV","p",472,"cv","A",8,"v","v",TRUE,1,-0.706696402356486
"CVOE_B",2,1,2,102,"H 29","","",FALSE,"CV","q",557,"cv","H",9,"c","c",TRUE,1,-0.61039248977838
"CVOE_B",2,1,2,103,"E 83","","",TRUE,"CV","p",502,"cv","E",3,"v","v",TRUE,1,-0.672706786152449
"CVOE_B",2,1,2,104,"D 43","","",FALSE,"CV","q",548,"cv","D",3,"c","c",TRUE,1,-0.620589374639591
"CVOE_B",2,1,2,105,"P 45","","",TRUE,"CV","q",634,"cv","P",5,"c","c",TRUE,1,-0.523152474854684
"CVOE_B",2,1,2,106,"J 17","","",TRUE,"CV","q",481,"cv","J",7,"c","c",TRUE,1,-0.696499517495275
"CVOE_B",10,1,2,11,"A 71","","",FALSE,"CV","p",1228,"cv","A",1,"v","v",TRUE,1,0.149841925985256
"CVOE_B",10,1,2,12,"I 66","","",TRUE,"CV","p",930,"cv","I",6,"v","v",TRUE,1,-0.187788261641515
"CVOE_B",10,1,2,13,"S 30","","",FALSE,"CV","q",950,"cv","S",0,"c","c",TRUE,1,-0.16512851750549
"CVOE_B",10,1,2,14,"D 20","","",FALSE,"CV","q",643,"cv","D",0,"c","c",TRUE,1,-0.512955589993473
"CVOE_B",10,1,2,15,"I 31","","",FALSE,"CV","p",732,"cv","I",1,"v","v",TRUE,1,-0.412119728588162
"CVOE_B",10,1,2,16,"P 16","","",FALSE,"CV","q",1455,"cv","P",6,"c","c",TRUE,1,0.407030021929139
"CVOE_B",10,1,2,17,"A 49","","",FALSE,"CV","p",658,"cv","A",9,"v","v",TRUE,1,-0.495960781891454
"CVOE_B",10,1,2,18,"O 64","","",TRUE,"CV","p",758,"cv","O",4,"v","v",TRUE,1,-0.38266206121133
"CVOE_B",10,1,2,19,"D 02","","",FALSE,"CV","q",694,"cv","D",2,"c","c",TRUE,1,-0.455173242446609
"CVOE_B",10,1,2,20,"P 81","","",TRUE,"CV","p",577,"cv","P",1,"c","v",FALSE,0,-0.587732745642355
"CVOE_B",10,1,2,21,"J 58","","",FALSE,"CV","q",1428,"cv","J",8,"c","c",TRUE,1,0.376439367345505
"CVOE_B",10,1,2,22,"A 22","","",TRUE,"CV","p",610,"cv","A",2,"v","v",TRUE,1,-0.550344167817914
"CVOE_B",10,1,2,23,"J 72","","",FALSE,"CV","q",533,"cv","J",2,"c","c",TRUE,1,-0.63758418274161
"CVOE_B",10,1,2,24,"P 91","","",TRUE,"CV","q",696,"cv","P",1,"c","c",TRUE,1,-0.452907268033007
"CVOE_B",10,1,2,25,"E 19","","",FALSE,"CV","p",780,"cv","E",9,"v","v",TRUE,1,-0.357736342661702
"CVOE_B",10,1,2,26,"I 30","","",TRUE,"CV","p",1223,"cv","I",0,"v","v",TRUE,1,0.14417698995125
"CVOE_B",10,1,2,27,"D 91","","",TRUE,"CV","q",557,"cv","D",1,"c","c",TRUE,1,-0.61039248977838
"CVOE_B",10,1,2,28,"O 48","","",TRUE,"CV","p",1861,"cv","O",8,"v","v",TRUE,1,0.867022827890445
"CVOE_B",10,1,2,29,"A 89","","",FALSE,"CV","p",651,"cv","A",9,"v","v",TRUE,1,-0.503891692339063
"CVOE_B",10,1,2,30,"U 11","","",FALSE,"CV","p",822,"cv","U",1,"v","v",TRUE,1,-0.31015087997605
"CVOE_B",10,1,2,31,"I 76","","",TRUE,"CV","p",652,"cv","I",6,"v","v",TRUE,1,-0.502758705132262
"CVOE_B",10,1,2,32,"U 89","","",FALSE,"CV","p",815,"cv","U",9,"v","v",TRUE,1,-0.318081790423659
"CVOE_B",10,1,2,33,"D 63","","",TRUE,"CV","q",603,"cv","D",3,"c","c",TRUE,1,-0.558275078265523
"CVOE_B",10,1,2,34,"H 70","","",FALSE,"CV","q",731,"cv","H",0,"c","c",TRUE,1,-0.413252715794963
"CVOE_B",10,1,2,35,"D 48","","",FALSE,"CV","q",630,"cv","D",8,"c","c",TRUE,1,-0.527684423681889
"CVOE_B",10,1,2,36,"P 56","","",FALSE,"CV","q",404,"cv","P",6,"c","c",TRUE,1,-0.783739532418971
"CVOE_B",10,1,2,37,"O 77","","",FALSE,"CV","p",948,"cv","O",7,"v","v",TRUE,1,-0.167394491919093
"CVOE_B",10,1,2,38,"P 42","","",FALSE,"CV","q",674,"cv","P",2,"c","c",TRUE,1,-0.477832986582634
"CVOE_B",10,1,2,39,"H 22","","",FALSE,"CV","q",1475,"cv","H",2,"c","c",TRUE,1,0.429689766065164
"CVOE_B",10,1,2,40,"E 42","","",TRUE,"CV","p",555,"cv","E",2,"v","v",TRUE,1,-0.612658464191983
"CVOE_B",10,1,2,41,"J 28","","",FALSE,"CV","q",460,"cv","J",8,"c","c",TRUE,1,-0.720292248838101
"CVOE_B",10,1,2,42,"E 95","","",FALSE,"CV","p",679,"cv","E",5,"v","v",TRUE,1,-0.472168050548628
"CVOE_B",10,1,2,43,"S 63","","",TRUE,"CV","q",335,"cv","S",3,"c","c",TRUE,1,-0.861915649688257
"CVOE_B",10,1,2,44,"H 50","","",FALSE,"CV","q",554,"cv","H",0,"c","c",TRUE,1,-0.613791451398784
"CVOE_B",10,1,2,45,"S 33","","",TRUE,"CV","q",579,"cv","S",3,"c","c",TRUE,1,-0.585466771228753
"CVOE_B",10,1,2,46,"P 57","","",TRUE,"CV","q",574,"cv","P",7,"c","c",TRUE,1,-0.591131707262759
"CVOE_B",10,1,2,47,"E 23","","",FALSE,"CV","p",601,"cv","E",3,"v","v",TRUE,1,-0.560541052679125
"CVOE_B",10,1,2,48,"S 61","","",TRUE,"CV","q",697,"cv","S",1,"c","c",TRUE,1,-0.451774280826206
"CVOE_B",10,1,2,49,"U 67","","",FALSE,"CV","p",700,"cv","U",7,"v","v",TRUE,1,-0.448375319205802
"CVOE_B",10,1,2,50,"H 32","","",FALSE,"CV","q",600,"cv","H",2,"c","c",TRUE,1,-0.561674039885926
"CVOE_B",10,1,2,51,"U 50","","",TRUE,"CV","p",336,"cv","U",0,"v","v",TRUE,1,-0.860782662481455
"CVOE_B",10,1,2,52,"O 49","","",FALSE,"CV","p",1555,"cv","O",9,"v","v",TRUE,1,0.520328742609264
"CVOE_B",10,1,2,53,"U 32","","",TRUE,"CV","p",580,"cv","U",2,"v","v",TRUE,1,-0.584333784021951
"CVOE_B",10,1,2,54,"J 78","","",FALSE,"CV","q",623,"cv","J",8,"c","c",TRUE,1,-0.535615334129498
"CVOE_B",10,1,2,55,"S 54","","",FALSE,"CV","q",613,"cv","S",4,"c","c",TRUE,1,-0.54694520619751
"CVOE_B",10,1,2,56,"J 27","","",TRUE,"CV","q",608,"cv","J",7,"c","c",TRUE,1,-0.552610142231516
"CVOE_B",10,1,2,57,"S 06","","",FALSE,"CV","q",1251,"cv","S",6,"c","c",TRUE,1,0.175900631741685
"CVOE_B",10,1,2,58,"D 67","","",TRUE,"CV","q",1094,"cv","D",7,"c","c",TRUE,1,-0.00197835972611088
"CVOE_B",10,1,2,59,"A 79","","",FALSE,"CV","p",513,"cv","A",9,"v","v",TRUE,1,-0.660243926877635
"CVOE_B",10,1,2,60,"S 52","","",FALSE,"CV","q",535,"cv","S",2,"c","c",TRUE,1,-0.635318208328007
"CVOE_B",10,1,2,61,"U 16","","",TRUE,"CV","p",1610,"cv","U",6,"v","v",TRUE,1,0.582643038983332
"CVOE_B",10,1,2,62,"O 82","","",TRUE,"CV","p",1174,"cv","O",2,"v","v",TRUE,1,0.0886606168179888
"CVOE_B",10,1,2,63,"H 87","","",TRUE,"CV","q",801,"cv","H",7,"c","c",TRUE,1,-0.333943611318876
"CVOE_B",10,1,2,64,"I 32","","",TRUE,"CV","p",489,"cv","I",2,"v","v",TRUE,1,-0.687435619840865
"CVOE_B",10,1,2,65,"U 37","","",FALSE,"CV","p",541,"cv","U",7,"v","v",TRUE,1,-0.6285202850872
"CVOE_B",10,1,2,66,"I 42","","",TRUE,"CV","p",522,"cv","I",2,"v","v",TRUE,1,-0.650047042016424
"CVOE_B",10,1,2,67,"D 65","","",TRUE,"CV","q",939,"cv","D",5,"c","c",TRUE,1,-0.177591376780304
"CVOE_B",10,1,2,68,"U 77","","",FALSE,"CV","p",2078,"cv","U",7,"v","v",TRUE,1,1.11288105176632
"CVOE_B",10,1,2,69,"E 12","","",TRUE,"CV","p",439,"cv","E",2,"v","v",TRUE,1,-0.744084980180927
"CVOE_B",10,1,2,70,"I 60","","",TRUE,"CV","p",375,"cv","I",0,"v","v",TRUE,1,-0.816596161416207
"CVOE_B",10,1,2,71,"J 36","","",FALSE,"CV","q",586,"cv","J",6,"c","c",TRUE,1,-0.577535860781144
"CVOE_B",10,1,2,72,"H 75","","",TRUE,"CV","q",640,"cv","H",5,"c","c",TRUE,1,-0.516354551613877
"CVOE_B",10,1,2,73,"I 50","","",TRUE,"CV","p",664,"cv","I",0,"v","v",TRUE,1,-0.489162858650647
"CVOE_B",10,1,2,74,"E 99","","",FALSE,"CV","p",2926,"cv","E",9,"v","v",TRUE,1,2.07365420313377
"CVOE_B",10,1,2,75,"A 86","","",TRUE,"CV","p",720,"cv","A",6,"v","v",TRUE,1,-0.425715575069777
"CVOE_B",10,1,2,76,"U 48","","",TRUE,"CV","p",752,"cv","U",8,"v","v",TRUE,1,-0.389459984452137
"CVOE_B",10,1,2,77,"E 01","","",FALSE,"CV","p",574,"cv","E",1,"v","v",TRUE,1,-0.591131707262759
"CVOE_B",10,1,2,78,"A 78","","",TRUE,"CV","p",409,"cv","A",8,"v","v",TRUE,1,-0.778074596384964
"CVOE_B",10,1,2,79,"P 60","","",FALSE,"CV","q",588,"cv","P",0,"c","c",TRUE,1,-0.575269886367541
"CVOE_B",10,1,2,80,"E 43","","",FALSE,"CV","p",538,"cv","E",3,"v","v",TRUE,1,-0.631919246707604
"CVOE_B",10,1,2,81,"D 69","","",TRUE,"CV","q",1317,"cv","D",9,"c","c",TRUE,1,0.250677787390567
"CVOE_B",10,1,2,82,"H 11","","",TRUE,"CV","q",637,"cv","H",1,"c","c",TRUE,1,-0.51975351323428
"CVOE_B",10,1,2,83,"P 43","","",TRUE,"CV","q",534,"cv","P",3,"c","c",TRUE,1,-0.636451195534809
"CVOE_B",10,1,2,84,"O 67","","",FALSE,"CV","p",433,"cv","O",7,"v","v",TRUE,1,-0.750882903421735
"CVOE_B",10,1,2,85,"S 91","","",FALSE,"CV","q",599,"cv","S",1,"c","c",TRUE,1,-0.562807027092728
"CVOE_B",10,1,2,86,"J 68","","",TRUE,"CV","q",647,"cv","J",8,"c","c",TRUE,1,-0.508423641166268
"CVOE_B",10,1,2,87,"S 47","","",FALSE,"CV","q",903,"cv","S",7,"c","c",TRUE,1,-0.218378916225149
"CVOE_B",10,1,2,88,"I 81","","",TRUE,"CV","p",629,"cv","I",1,"v","v",TRUE,1,-0.52881741088869
"CVOE_B",10,1,2,89,"J 39","","",FALSE,"CV","q",2691,"cv","J",9,"c","c",TRUE,1,1.80740220953548
"CVOE_B",10,1,2,90,"A 11","","",TRUE,"CV","p",359,"cv","A",1,"v","v",TRUE,1,-0.834723956725027
"CVOE_B",10,1,2,91,"O 76","","",FALSE,"CV","p",343,"cv","O",6,"v","v",TRUE,1,-0.852851752033847
"CVOE_B",10,1,2,92,"A 62","","",FALSE,"CV","p",629,"cv","A",2,"v","v",TRUE,1,-0.52881741088869
"CVOE_B",10,1,2,93,"O 27","","",TRUE,"CV","p",1347,"cv","O",7,"v","v",TRUE,1,0.284667403594604
"CVOE_B",10,1,2,94,"E 66","","",FALSE,"CV","p",1249,"cv","E",6,"v","v",TRUE,1,0.173634657328082
"CVOE_B",10,1,2,95,"J 62","","",TRUE,"CV","q",476,"cv","J",2,"c","c",TRUE,1,-0.702164453529281
"CVOE_B",10,1,2,96,"H 72","","",TRUE,"CV","q",549,"cv","H",2,"c","c",TRUE,1,-0.61945638743279
"CVOE_B",10,1,2,97,"E 49","","",TRUE,"CV","p",762,"cv","E",9,"v","v",TRUE,1,-0.378130112384125
"CVOE_B",10,1,2,98,"D 52","","",TRUE,"CV","q",747,"cv","D",2,"c","c",TRUE,1,-0.395124920486143
"CVOE_B",10,1,2,99,"H 62","","",TRUE,"CV","q",673,"cv","H",2,"c","c",TRUE,1,-0.478965973789436
"CVOE_B",10,1,2,100,"I 11","","",TRUE,"CV","p",1182,"cv","I",1,"v","v",TRUE,1,0.0977245144723988
"CVOE_B",10,1,2,101,"A 98","","",FALSE,"CV","p",580,"cv","A",8,"v","v",TRUE,1,-0.584333784021951
"CVOE_B",10,1,2,102,"H 29","","",FALSE,"CV","q",631,"cv","H",9,"c","c",TRUE,1,-0.526551436475088
"CVOE_B",10,1,2,103,"E 83","","",TRUE,"CV","p",437,"cv","E",3,"v","v",TRUE,1,-0.74635095459453
"CVOE_B",10,1,2,104,"D 43","","",FALSE,"CV","q",694,"cv","D",3,"c","c",TRUE,1,-0.455173242446609
"CVOE_B",10,1,2,105,"P 45","","",TRUE,"CV","q",2057,"cv","P",5,"c","c",TRUE,1,1.08908832042349
"CVOE_B",10,1,2,106,"J 17","","",TRUE,"CV","q",524,"cv","J",7,"c","c",TRUE,1,-0.647781067602821
"CVOE_B",6,1,2,12,"I 66","","",TRUE,"CV","p",1477,"cv","I",6,"v","v",TRUE,1,0.431955740478766
"CVOE_B",6,1,2,13,"S 30","","",FALSE,"CV","q",894,"cv","S",0,"c","c",TRUE,1,-0.22857580108636
"CVOE_B",6,1,2,14,"D 20","","",FALSE,"CV","q",1961,"cv","D",0,"c","c",TRUE,1,0.98032154857057
"CVOE_B",6,1,2,15,"I 31","","",FALSE,"CV","p",978,"cv","I",1,"v","v",TRUE,1,-0.133404875715055
"CVOE_B",6,1,2,16,"P 16","","",FALSE,"CV","q",885,"cv","P",6,"c","c",TRUE,1,-0.238772685947571
"CVOE_B",6,1,2,17,"A 49","","",FALSE,"CV","p",934,"cv","A",9,"v","v",TRUE,1,-0.18325631281431
"CVOE_B",6,1,2,18,"O 64","","",TRUE,"CV","p",721,"cv","O",4,"v","v",TRUE,1,-0.424582587862976
"CVOE_B",6,1,2,19,"D 02","","",FALSE,"CV","q",770,"cv","D",2,"c","c",TRUE,1,-0.369066214729715
"CVOE_B",6,1,2,20,"P 81","","",TRUE,"CV","q",805,"cv","P",1,"c","c",TRUE,1,-0.329411662491671
"CVOE_B",6,1,2,21,"J 58","","",FALSE,"CV","q",749,"cv","J",8,"c","c",TRUE,1,-0.392858946072541
"CVOE_B",6,1,2,22,"A 22","","",TRUE,"CV","p",763,"cv","A",2,"v","v",TRUE,1,-0.376997125177323
"CVOE_B",6,1,2,23,"J 72","","",FALSE,"CV","q",972,"cv","J",2,"c","c",TRUE,1,-0.140202798955863
"CVOE_B",6,1,2,24,"P 91","","",TRUE,"CV","q",1671,"cv","P",1,"c","c",TRUE,1,0.651755258598208
"CVOE_B",6,1,2,25,"E 19","","",FALSE,"CV","p",773,"cv","E",9,"v","v",TRUE,1,-0.365667253109311
"CVOE_B",6,1,2,26,"I 30","","",TRUE,"CV","p",936,"cv","I",0,"v","v",TRUE,1,-0.180990338400708
"CVOE_B",6,1,2,27,"D 91","","",TRUE,"CV","q",675,"cv","D",1,"c","c",TRUE,1,-0.476699999375833
"CVOE_B",6,1,2,28,"O 48","","",TRUE,"CV","p",892,"cv","O",8,"v","v",TRUE,1,-0.230841775499963
"CVOE_B",6,1,2,29,"A 89","","",FALSE,"CV","p",807,"cv","A",9,"v","v",TRUE,1,-0.327145688078069
"CVOE_B",6,1,2,30,"U 11","","",FALSE,"CV","p",882,"cv","U",1,"v","v",TRUE,1,-0.242171647567975
"CVOE_B",6,1,2,31,"I 76","","",TRUE,"CV","p",715,"cv","I",6,"v","v",TRUE,1,-0.431380511103783
"CVOE_B",6,1,2,32,"U 89","","",FALSE,"CV","p",859,"cv","U",9,"v","v",TRUE,1,-0.268230353324404
"CVOE_B",6,1,2,33,"D 63","","",TRUE,"CV","q",654,"cv","D",3,"c","c",TRUE,1,-0.500492730718659
"CVOE_B",6,1,2,34,"H 70","","",FALSE,"CV","q",1257,"cv","H",0,"c","c",TRUE,1,0.182698554982492
"CVOE_B",6,1,2,35,"D 48","","",FALSE,"CV","q",1205,"cv","D",8,"c","c",TRUE,1,0.123783220228827
"CVOE_B",6,1,2,36,"P 56","","",FALSE,"CV","q",1117,"cv","P",6,"c","c",TRUE,1,0.0240803460303178
"CVOE_B",6,1,2,37,"O 77","","",FALSE,"CV","p",606,"cv","O",7,"v","v",TRUE,1,-0.554876116645119
"CVOE_B",6,1,2,38,"P 42","","",FALSE,"CV","q",1230,"cv","P",2,"c","c",TRUE,1,0.152107900398859
"CVOE_B",6,1,2,39,"H 22","","",FALSE,"CV","q",2244,"cv","H",2,"c","c",TRUE,1,1.30095692809532
"CVOE_B",6,1,2,40,"E 42","","",TRUE,"CV","p",654,"cv","E",2,"v","v",TRUE,1,-0.500492730718659
"CVOE_B",6,1,2,41,"J 28","","",FALSE,"CV","q",657,"cv","J",8,"c","c",TRUE,1,-0.497093769098255
"CVOE_B",6,1,2,42,"E 95","","",FALSE,"CV","p",604,"cv","E",5,"v","v",TRUE,1,-0.557142091058721
"CVOE_B",6,1,2,43,"S 63","","",TRUE,"CV","q",668,"cv","S",3,"c","c",TRUE,1,-0.484630909823442
"CVOE_B",6,1,2,44,"H 50","","",FALSE,"CV","q",746,"cv","H",0,"c","c",TRUE,1,-0.396257907692945
"CVOE_B",6,1,2,45,"S 33","","",TRUE,"CV","p",696,"cv","S",3,"c","v",FALSE,0,-0.452907268033007
"CVOE_B",6,1,2,46,"P 57","","",TRUE,"CV","q",3707,"cv","P",7,"c","c",TRUE,1,2.95851721164555
"CVOE_B",6,1,2,47,"E 23","","",FALSE,"CV","p",850,"cv","E",3,"v","v",TRUE,1,-0.278427238185615
"CVOE_B",6,1,2,48,"S 61","","",TRUE,"CV","q",2413,"cv","S",1,"c","c",TRUE,1,1.49243176604473
"CVOE_B",6,1,2,49,"U 67","","",FALSE,"CV","p",761,"cv","U",7,"v","v",TRUE,1,-0.379263099590926
"CVOE_B",6,1,2,50,"H 32","","",FALSE,"CV","q",913,"cv","H",2,"c","c",TRUE,1,-0.207049044157136
"CVOE_B",6,1,2,51,"U 50","","",TRUE,"CV","p",679,"cv","U",0,"v","v",TRUE,1,-0.472168050548628
"CVOE_B",6,1,2,52,"O 49","","",FALSE,"CV","p",920,"cv","O",9,"v","v",TRUE,1,-0.199118133709528
"CVOE_B",6,1,2,53,"U 32","","",TRUE,"CV","p",688,"cv","U",2,"v","v",TRUE,1,-0.461971165687417
"CVOE_B",6,1,2,54,"J 78","","",FALSE,"CV","q",747,"cv","J",8,"c","c",TRUE,1,-0.395124920486143
"CVOE_B",6,1,2,55,"S 54","","",FALSE,"CV","q",881,"cv","S",4,"c","c",TRUE,1,-0.243304634774776
"CVOE_B",6,1,2,56,"J 27","","",TRUE,"CV","q",762,"cv","J",7,"c","c",TRUE,1,-0.378130112384125
"CVOE_B",6,1,2,57,"S 06","","",FALSE,"CV","q",906,"cv","S",6,"c","c",TRUE,1,-0.214979954604745
"CVOE_B",6,1,2,58,"D 67","","",TRUE,"CV","q",744,"cv","D",7,"c","c",TRUE,1,-0.398523882106547
"CVOE_B",6,1,2,59,"A 79","","",FALSE,"CV","p",766,"cv","A",9,"v","v",TRUE,1,-0.37359816355692
"CVOE_B",6,1,2,60,"S 52","","",FALSE,"CV","q",894,"cv","S",2,"c","c",TRUE,1,-0.22857580108636
"CVOE_B",6,1,2,61,"U 16","","",TRUE,"CV","p",874,"cv","U",6,"v","v",TRUE,1,-0.251235545222385
"CVOE_B",6,1,2,62,"O 82","","",TRUE,"CV","p",1402,"cv","O",2,"v","v",TRUE,1,0.346981699968673
"CVOE_B",6,1,2,63,"H 87","","",TRUE,"CV","q",779,"cv","H",7,"c","c",TRUE,1,-0.358869329868503
"CVOE_B",6,1,2,64,"I 32","","",TRUE,"CV","p",894,"cv","I",2,"v","v",TRUE,1,-0.22857580108636
"CVOE_B",6,1,2,65,"U 37","","",FALSE,"CV","p",752,"cv","U",7,"v","v",TRUE,1,-0.389459984452137
"CVOE_B",6,1,2,66,"I 42","","",TRUE,"CV","p",2095,"cv","I",2,"v","v",TRUE,1,1.13214183428194
"CVOE_B",6,1,2,67,"D 65","","",TRUE,"CV","q",875,"cv","D",5,"c","c",TRUE,1,-0.250102558015584
"CVOE_B",6,1,2,68,"U 77","","",FALSE,"CV","p",691,"cv","U",7,"v","v",TRUE,1,-0.458572204067013
"CVOE_B",6,1,2,69,"E 12","","",TRUE,"CV","p",758,"cv","E",2,"v","v",TRUE,1,-0.38266206121133
"CVOE_B",6,1,2,70,"I 60","","",TRUE,"CV","p",783,"cv","I",0,"v","v",TRUE,1,-0.354337381041298
"CVOE_B",6,1,2,71,"J 36","","",FALSE,"CV","q",741,"cv","J",6,"c","c",TRUE,1,-0.401922843726951
"CVOE_B",6,1,2,72,"H 75","","",TRUE,"CV","q",802,"cv","H",5,"c","c",TRUE,1,-0.332810624112075
"CVOE_B",6,1,2,73,"I 50","","",TRUE,"CV","p",675,"cv","I",0,"v","v",TRUE,1,-0.476699999375833
"CVOE_B",6,1,2,74,"E 99","","",FALSE,"CV","p",907,"cv","E",9,"v","v",TRUE,1,-0.213846967397944
"CVOE_B",6,1,2,75,"A 86","","",TRUE,"CV","p",873,"cv","A",6,"v","v",TRUE,1,-0.252368532429186
"CVOE_B",6,1,2,76,"U 48","","",TRUE,"CV","p",791,"cv","U",8,"v","v",TRUE,1,-0.345273483386888
"CVOE_B",6,1,2,77,"E 01","","",FALSE,"CV","p",693,"cv","E",1,"v","v",TRUE,1,-0.456306229653411
"CVOE_B",6,1,2,78,"A 78","","",TRUE,"CV","p",752,"cv","A",8,"v","v",TRUE,1,-0.389459984452137
"CVOE_B",6,1,2,79,"P 60","","",FALSE,"CV","q",814,"cv","P",0,"c","c",TRUE,1,-0.31921477763046
"CVOE_B",6,1,2,80,"E 43","","",FALSE,"CV","p",673,"cv","E",3,"v","v",TRUE,1,-0.478965973789436
"CVOE_B",6,1,2,81,"D 69","","",TRUE,"CV","q",1798,"cv","D",9,"c","c",TRUE,1,0.795644633861966
"CVOE_B",6,1,2,82,"H 11","","",TRUE,"CV","q",935,"cv","H",1,"c","c",TRUE,1,-0.182123325607509
"CVOE_B",6,1,2,83,"P 43","","",TRUE,"CV","q",955,"cv","P",3,"c","c",TRUE,1,-0.159463581471484
"CVOE_B",6,1,2,84,"O 67","","",FALSE,"CV","p",660,"cv","O",7,"v","v",TRUE,1,-0.493694807477852
"CVOE_B",6,1,2,85,"S 91","","",FALSE,"CV","q",678,"cv","S",1,"c","c",TRUE,1,-0.473301037755429
"CVOE_B",6,1,2,86,"J 68","","",TRUE,"CV","q",1574,"cv","J",8,"c","c",TRUE,1,0.541855499538487
"CVOE_B",6,1,2,87,"S 47","","",FALSE,"CV","q",499,"cv","S",7,"c","c",TRUE,1,-0.676105747772852
"CVOE_B",6,1,2,88,"I 81","","",TRUE,"CV","p",678,"cv","I",1,"v","v",TRUE,1,-0.473301037755429
"CVOE_B",6,1,2,89,"J 39","","",FALSE,"CV","q",806,"cv","J",9,"c","c",TRUE,1,-0.32827867528487
"CVOE_B",6,1,2,90,"A 11","","",TRUE,"CV","p",663,"cv","A",1,"v","v",TRUE,1,-0.490295845857448
"CVOE_B",6,1,2,91,"O 76","","",FALSE,"CV","p",1491,"cv","O",6,"v","v",TRUE,1,0.447817561373984
"CVOE_B",6,1,2,92,"A 62","","",FALSE,"CV","p",720,"cv","A",2,"v","v",TRUE,1,-0.425715575069777
"CVOE_B",6,1,2,93,"O 27","","",TRUE,"CV","p",920,"cv","O",7,"v","v",TRUE,1,-0.199118133709528
"CVOE_B",6,1,2,94,"E 66","","",FALSE,"CV","p",641,"cv","E",6,"v","v",TRUE,1,-0.515221564407075
"CVOE_B",6,1,2,95,"J 62","","",TRUE,"CV","q",769,"cv","J",2,"c","c",TRUE,1,-0.370199201936516
"CVOE_B",6,1,2,96,"H 72","","",TRUE,"CV","q",620,"cv","H",2,"c","c",TRUE,1,-0.539014295749902
"CVOE_B",6,1,2,97,"E 49","","",TRUE,"CV","p",530,"cv","E",9,"v","v",TRUE,1,-0.640983144362014
"CVOE_B",6,1,2,98,"D 52","","",TRUE,"CV","q",653,"cv","D",2,"c","c",TRUE,1,-0.50162571792546
"CVOE_B",6,1,2,99,"H 62","","",TRUE,"CV","q",568,"cv","H",2,"c","c",TRUE,1,-0.597929630503566
"CVOE_B",6,1,2,100,"I 11","","",TRUE,"CV","p",660,"cv","I",1,"v","v",TRUE,1,-0.493694807477852
"CVOE_B",6,1,2,101,"A 98","","",FALSE,"CV","p",1054,"cv","A",8,"v","v",TRUE,1,-0.0472978479981607
"CVOE_B",6,1,2,102,"H 29","","",FALSE,"CV","q",890,"cv","H",9,"c","c",TRUE,1,-0.233107749913565
"CVOE_B",6,1,2,103,"E 83","","",TRUE,"CV","p",789,"cv","E",3,"v","v",TRUE,1,-0.347539457800491
"CVOE_B",6,1,2,104,"D 43","","",FALSE,"CV","q",1587,"cv","D",3,"c","c",TRUE,1,0.556584333226903
"CVOE_B",6,1,2,105,"P 45","","",TRUE,"CV","q",681,"cv","P",5,"c","c",TRUE,1,-0.469902076135026
"CVOE_B",6,1,2,106,"J 17","","",TRUE,"CV","q",546,"cv","J",7,"c","c",TRUE,1,-0.622855349053194
"CVOE_C",3,1,2,12,"I 66","","",TRUE,"CV","p",678,"cv","I",6,"v","v",TRUE,1,-0.473301037755429
"CVOE_C",3,1,2,13,"S 30","","",FALSE,"CV","q",743,"cv","S",0,"c","c",TRUE,1,-0.399656869313348
"CVOE_C",3,1,2,14,"D 20","","",FALSE,"CV","q",765,"cv","D",0,"c","c",TRUE,1,-0.374731150763721
"CVOE_C",3,1,2,15,"I 31","","",FALSE,"CV","p",533,"cv","I",1,"v","v",TRUE,1,-0.63758418274161
"CVOE_C",3,1,2,16,"P 16","","",FALSE,"CV","q",568,"cv","P",6,"c","c",TRUE,1,-0.597929630503566
"CVOE_C",3,1,2,17,"A 49","","",FALSE,"CV","p",643,"cv","A",9,"v","v",TRUE,1,-0.512955589993473
"CVOE_C",3,1,2,18,"O 64","","",TRUE,"CV","p",524,"cv","O",4,"v","v",TRUE,1,-0.647781067602821
"CVOE_C",3,1,2,19,"D 02","","",FALSE,"CV","q",532,"cv","D",2,"c","c",TRUE,1,-0.638717169948411
"CVOE_C",3,1,2,20,"P 81","","",TRUE,"CV","q",871,"cv","P",1,"c","c",TRUE,1,-0.254634506842789
"CVOE_C",3,1,2,21,"J 58","","",FALSE,"CV","q",797,"cv","J",8,"c","c",TRUE,1,-0.338475560146081
"CVOE_C",3,1,2,22,"A 22","","",TRUE,"CV","p",557,"cv","A",2,"v","v",TRUE,1,-0.61039248977838
"CVOE_C",3,1,2,23,"J 72","","",FALSE,"CV","q",678,"cv","J",2,"c","c",TRUE,1,-0.473301037755429
"CVOE_C",3,1,2,24,"P 91","","",TRUE,"CV","q",454,"cv","P",1,"c","c",TRUE,1,-0.727090172078908
"CVOE_C",3,1,2,25,"E 19","","",FALSE,"CV","p",513,"cv","E",9,"v","v",TRUE,1,-0.660243926877635
"CVOE_C",3,1,2,26,"I 30","","",TRUE,"CV","p",482,"cv","I",0,"v","v",TRUE,1,-0.695366530288474
"CVOE_C",3,1,2,27,"D 91","","",TRUE,"CV","q",378,"cv","D",1,"c","c",TRUE,1,-0.813197199795803
"CVOE_C",3,1,2,28,"O 48","","",TRUE,"CV","p",589,"cv","O",8,"v","v",TRUE,1,-0.57413689916074
"CVOE_C",3,1,2,29,"A 89","","",FALSE,"CV","p",531,"cv","A",9,"v","v",TRUE,1,-0.639850157155212
"CVOE_C",3,1,2,30,"U 11","","",FALSE,"CV","q",382,"cv","U",1,"v","c",FALSE,0,-0.808665250968598
"CVOE_C",3,1,2,31,"I 76","","",TRUE,"CV","p",684,"cv","I",6,"v","v",TRUE,1,-0.466503114514622
"CVOE_C",3,1,2,32,"U 89","","",FALSE,"CV","p",380,"cv","U",9,"v","v",TRUE,1,-0.810931225382201
"CVOE_C",3,1,2,33,"D 63","","",TRUE,"CV","q",562,"cv","D",3,"c","c",TRUE,1,-0.604727553744374
"CVOE_C",3,1,2,34,"H 70","","",FALSE,"CV","q",874,"cv","H",0,"c","c",TRUE,1,-0.251235545222385
"CVOE_C",3,1,2,35,"D 48","","",FALSE,"CV","q",475,"cv","D",8,"c","c",TRUE,1,-0.703297440736082
"CVOE_C",3,1,2,36,"P 56","","",FALSE,"CV","q",475,"cv","P",6,"c","c",TRUE,1,-0.703297440736082
"CVOE_C",3,1,2,37,"O 77","","",FALSE,"CV","p",643,"cv","O",7,"v","v",TRUE,1,-0.512955589993473
"CVOE_C",3,1,2,38,"P 42","","",FALSE,"CV","q",804,"cv","P",2,"c","c",TRUE,1,-0.330544649698472
"CVOE_C",3,1,2,39,"H 22","","",FALSE,"CV","q",484,"cv","H",2,"c","c",TRUE,1,-0.693100555874871
"CVOE_C",3,1,2,40,"E 42","","",TRUE,"CV","p",485,"cv","E",2,"v","v",TRUE,1,-0.69196756866807
"CVOE_C",3,1,2,41,"J 28","","",FALSE,"CV","q",389,"cv","J",8,"c","c",TRUE,1,-0.800734340520989
"CVOE_C",3,1,2,42,"E 95","","",FALSE,"CV","q",491,"cv","E",5,"v","c",FALSE,0,-0.685169645427262
"CVOE_C",3,1,2,43,"S 63","","",TRUE,"CV","q",814,"cv","S",3,"c","c",TRUE,1,-0.31921477763046
"CVOE_C",3,1,2,44,"H 50","","",FALSE,"CV","q",521,"cv","H",0,"c","c",TRUE,1,-0.651180029223225
"CVOE_C",3,1,2,45,"S 33","","",TRUE,"CV","q",985,"cv","S",3,"c","c",TRUE,1,-0.125473965267447
"CVOE_C",3,1,2,46,"P 57","","",TRUE,"CV","q",543,"cv","P",7,"c","c",TRUE,1,-0.626254310673597
"CVOE_C",3,1,2,47,"E 23","","",FALSE,"CV","p",901,"cv","E",3,"v","v",TRUE,1,-0.220644890638751
"CVOE_C",3,1,2,48,"S 61","","",TRUE,"CV","q",763,"cv","S",1,"c","c",TRUE,1,-0.376997125177323
"CVOE_C",3,1,2,49,"U 67","","",FALSE,"CV","p",771,"cv","U",7,"v","v",TRUE,1,-0.367933227522913
"CVOE_C",3,1,2,50,"H 32","","",FALSE,"CV","q",607,"cv","H",2,"c","c",TRUE,1,-0.553743129438318
"CVOE_C",3,1,2,51,"U 50","","",TRUE,"CV","p",498,"cv","U",0,"v","v",TRUE,1,-0.677238734979654
"CVOE_C",3,1,2,52,"O 49","","",FALSE,"CV","p",469,"cv","O",9,"v","v",TRUE,1,-0.71009536397689
"CVOE_C",3,1,2,53,"U 32","","",TRUE,"CV","p",434,"cv","U",2,"v","v",TRUE,1,-0.749749916214933
"CVOE_C",3,1,2,54,"J 78","","",FALSE,"CV","q",667,"cv","J",8,"c","c",TRUE,1,-0.485763897030243
"CVOE_C",3,1,2,55,"S 54","","",FALSE,"CV","q",849,"cv","S",4,"c","c",TRUE,1,-0.279560225392416
"CVOE_C",3,1,2,56,"J 27","","",TRUE,"CV","q",612,"cv","J",7,"c","c",TRUE,1,-0.548078193404312
"CVOE_C",3,1,2,57,"S 06","","",FALSE,"CV","q",759,"cv","S",6,"c","c",TRUE,1,-0.381529074004528
"CVOE_C",3,1,2,58,"D 67","","",TRUE,"CV","q",1023,"cv","D",7,"c","c",TRUE,1,-0.0824204514089994
"CVOE_C",3,1,2,59,"A 79","","",FALSE,"CV","p",701,"cv","A",9,"v","v",TRUE,1,-0.447242331999001
"CVOE_C",3,1,2,60,"S 52","","",FALSE,"CV","q",1147,"cv","S",2,"c","c",TRUE,1,0.0580699622343552
"CVOE_C",3,1,2,61,"U 16","","",TRUE,"CV","p",593,"cv","U",6,"v","v",TRUE,1,-0.569604950333535
"CVOE_C",3,1,2,62,"O 82","","",TRUE,"CV","p",434,"cv","O",2,"v","v",TRUE,1,-0.749749916214933
"CVOE_C",3,1,2,63,"H 87","","",TRUE,"CV","q",474,"cv","H",7,"c","c",TRUE,1,-0.704430427942883
"CVOE_C",3,1,2,64,"I 32","","",TRUE,"CV","p",586,"cv","I",2,"v","v",TRUE,1,-0.577535860781144
"CVOE_C",3,1,2,65,"U 37","","",FALSE,"CV","p",496,"cv","U",7,"v","v",TRUE,1,-0.679504709393256
"CVOE_C",3,1,2,66,"I 42","","",TRUE,"CV","p",483,"cv","I",2,"v","v",TRUE,1,-0.694233543081672
"CVOE_C",3,1,2,67,"D 65","","",TRUE,"CV","q",603,"cv","D",5,"c","c",TRUE,1,-0.558275078265523
"CVOE_C",3,1,2,68,"U 77","","",FALSE,"CV","p",604,"cv","U",7,"v","v",TRUE,1,-0.557142091058721
"CVOE_C",3,1,2,69,"E 12","","",TRUE,"CV","p",492,"cv","E",2,"v","v",TRUE,1,-0.684036658220461
"CVOE_C",3,1,2,70,"I 60","","",TRUE,"CV","p",383,"cv","I",0,"v","v",TRUE,1,-0.807532263761797
"CVOE_C",3,1,2,71,"J 36","","",FALSE,"CV","q",541,"cv","J",6,"c","c",TRUE,1,-0.6285202850872
"CVOE_C",3,1,2,72,"H 75","","",TRUE,"CV","q",555,"cv","H",5,"c","c",TRUE,1,-0.612658464191983
"CVOE_C",3,1,2,73,"I 50","","",TRUE,"CV","p",459,"cv","I",0,"v","v",TRUE,1,-0.721425236044902
"CVOE_C",3,1,2,74,"E 99","","",FALSE,"CV","q",446,"cv","E",9,"v","c",FALSE,0,-0.736154069733318
"CVOE_C",3,1,2,75,"A 86","","",TRUE,"CV","p",519,"cv","A",6,"v","v",TRUE,1,-0.653446003636827
"CVOE_C",3,1,2,76,"U 48","","",TRUE,"CV","p",367,"cv","U",8,"v","v",TRUE,1,-0.825660059070617
"CVOE_C",3,1,2,77,"E 01","","",FALSE,"CV","p",370,"cv","E",1,"v","v",TRUE,1,-0.822261097450213
"CVOE_C",3,1,2,78,"A 78","","",TRUE,"CV","p",1013,"cv","A",8,"v","v",TRUE,1,-0.0937503234770118
"CVOE_C",3,1,2,79,"P 60","","",FALSE,"CV","q",728,"cv","P",0,"c","c",TRUE,1,-0.416651677415367
"CVOE_C",3,1,2,80,"E 43","","",FALSE,"CV","p",619,"cv","E",3,"v","v",TRUE,1,-0.540147282956703
"CVOE_C",3,1,2,81,"D 69","","",TRUE,"CV","q",646,"cv","D",9,"c","c",TRUE,1,-0.509556628373069
"CVOE_C",3,1,2,82,"H 11","","",TRUE,"CV","q",634,"cv","H",1,"c","c",TRUE,1,-0.523152474854684
"CVOE_C",3,1,2,83,"P 43","","",TRUE,"CV","q",586,"cv","P",3,"c","c",TRUE,1,-0.577535860781144
"CVOE_C",3,1,2,84,"O 67","","",FALSE,"CV","p",536,"cv","O",7,"v","v",TRUE,1,-0.634185221121206
"CVOE_C",3,1,2,85,"S 91","","",FALSE,"CV","q",467,"cv","S",1,"c","c",TRUE,1,-0.712361338390492
"CVOE_C",3,1,2,86,"J 68","","",TRUE,"CV","q",441,"cv","J",8,"c","c",TRUE,1,-0.741819005767325
"CVOE_C",3,1,2,87,"S 47","","",FALSE,"CV","q",353,"cv","S",7,"c","c",TRUE,1,-0.841521879965834
"CVOE_C",3,1,2,88,"I 81","","",TRUE,"CV","p",511,"cv","I",1,"v","v",TRUE,1,-0.662509901291237
"CVOE_C",3,1,2,89,"J 39","","",FALSE,"CV","q",484,"cv","J",9,"c","c",TRUE,1,-0.693100555874871
"CVOE_C",3,1,2,90,"A 11","","",TRUE,"CV","p",509,"cv","A",1,"v","v",TRUE,1,-0.66477587570484
"CVOE_C",3,1,2,91,"O 76","","",FALSE,"CV","p",490,"cv","O",6,"v","v",TRUE,1,-0.686302632634064
"CVOE_C",3,1,2,92,"A 62","","",FALSE,"CV","p",406,"cv","A",2,"v","v",TRUE,1,-0.781473558005368
"CVOE_C",3,1,2,93,"O 27","","",TRUE,"CV","p",342,"cv","O",7,"v","v",TRUE,1,-0.853984739240648
"CVOE_C",3,1,2,94,"E 66","","",FALSE,"CV","p",420,"cv","E",6,"v","v",TRUE,1,-0.765611737110151
"CVOE_C",3,1,2,95,"J 62","","",TRUE,"CV","q",647,"cv","J",2,"c","c",TRUE,1,-0.508423641166268
"CVOE_C",3,1,2,96,"H 72","","",TRUE,"CV","p",530,"cv","H",2,"c","v",FALSE,0,-0.640983144362014
"CVOE_C",3,1,2,97,"E 49","","",TRUE,"CV","p",973,"cv","E",9,"v","v",TRUE,1,-0.139069811749062
"CVOE_C",3,1,2,98,"D 52","","",TRUE,"CV","q",648,"cv","D",2,"c","c",TRUE,1,-0.507290653959467
"CVOE_C",3,1,2,99,"H 62","","",TRUE,"CV","q",451,"cv","H",2,"c","c",TRUE,1,-0.730489133699312
"CVOE_C",3,1,2,100,"I 11","","",TRUE,"CV","p",694,"cv","I",1,"v","v",TRUE,1,-0.455173242446609
"CVOE_C",3,1,2,101,"A 98","","",FALSE,"CV","p",425,"cv","A",8,"v","v",TRUE,1,-0.759946801076145
"CVOE_C",3,1,2,102,"H 29","","",FALSE,"CV","q",559,"cv","H",9,"c","c",TRUE,1,-0.608126515364778
"CVOE_C",3,1,2,103,"E 83","","",TRUE,"CV","q",479,"cv","E",3,"v","c",FALSE,0,-0.698765491908877
"CVOE_C",3,1,2,104,"D 43","","",FALSE,"CV","q",1089,"cv","D",3,"c","c",TRUE,1,-0.00764329576011711
"CVOE_C",3,1,2,105,"P 45","","",TRUE,"CV","q",555,"cv","P",5,"c","c",TRUE,1,-0.612658464191983
"CVOE_C",3,1,2,106,"J 17","","",TRUE,"CV","q",459,"cv","J",7,"c","c",TRUE,1,-0.721425236044902
"CVOE_C",11,1,2,11,"A 71","","",FALSE,"CV","p",2185,"cv","A",1,"v","v",TRUE,1,1.23411068289405
"CVOE_C",11,1,2,12,"I 66","","",TRUE,"CV","p",727,"cv","I",6,"v","v",TRUE,1,-0.417784664622168
"CVOE_C",11,1,2,13,"S 30","","",FALSE,"CV","q",575,"cv","S",0,"c","c",TRUE,1,-0.589998720055958
"CVOE_C",11,1,2,14,"D 20","","",FALSE,"CV","q",1930,"cv","D",0,"c","c",TRUE,1,0.945198945159731
"CVOE_C",11,1,2,15,"I 31","","",FALSE,"CV","p",574,"cv","I",1,"v","v",TRUE,1,-0.591131707262759
"CVOE_C",11,1,2,16,"P 16","","",FALSE,"CV","q",705,"cv","P",6,"c","c",TRUE,1,-0.442710383171796
"CVOE_C",11,1,2,17,"A 49","","",FALSE,"CV","p",775,"cv","A",9,"v","v",TRUE,1,-0.363401278695708
"CVOE_C",11,1,2,18,"O 64","","",TRUE,"CV","p",466,"cv","O",4,"v","v",TRUE,1,-0.713494325597293
"CVOE_C",11,1,2,19,"D 02","","",FALSE,"CV","q",544,"cv","D",2,"c","c",TRUE,1,-0.625121323466796
"CVOE_C",11,1,2,20,"P 81","","",TRUE,"CV","q",870,"cv","P",1,"c","c",TRUE,1,-0.25576749404959
"CVOE_C",11,1,2,21,"J 58","","",FALSE,"CV","q",499,"cv","J",8,"c","c",TRUE,1,-0.676105747772852
"CVOE_C",11,1,2,22,"A 22","","",TRUE,"CV","p",598,"cv","A",2,"v","v",TRUE,1,-0.563940014299529
"CVOE_C",11,1,2,23,"J 72","","",FALSE,"CV","q",559,"cv","J",2,"c","c",TRUE,1,-0.608126515364778
"CVOE_C",11,1,2,24,"P 91","","",TRUE,"CV","q",903,"cv","P",1,"c","c",TRUE,1,-0.218378916225149
"CVOE_C",11,1,2,25,"E 19","","",FALSE,"CV","p",765,"cv","E",9,"v","v",TRUE,1,-0.374731150763721
"CVOE_C",11,1,2,26,"I 30","","",TRUE,"CV","p",398,"cv","I",0,"v","v",TRUE,1,-0.790537455659778
"CVOE_C",11,1,2,27,"D 91","","",TRUE,"CV","q",486,"cv","D",1,"c","c",TRUE,1,-0.690834581461269
"CVOE_C",11,1,2,28,"O 48","","",TRUE,"CV","p",550,"cv","O",8,"v","v",TRUE,1,-0.618323400225989
"CVOE_C",11,1,2,29,"A 89","","",FALSE,"CV","q",556,"cv","A",9,"v","c",FALSE,0,-0.611525476985181
"CVOE_C",11,1,2,30,"U 11","","",FALSE,"CV","p",1045,"cv","U",1,"v","v",TRUE,1,-0.0574947328593719
"CVOE_C",11,1,2,31,"I 76","","",TRUE,"CV","p",1189,"cv","I",6,"v","v",TRUE,1,0.105655424920007
"CVOE_C",11,1,2,32,"U 89","","",FALSE,"CV","p",483,"cv","U",9,"v","v",TRUE,1,-0.694233543081672
"CVOE_C",11,1,2,33,"D 63","","",TRUE,"CV","q",892,"cv","D",3,"c","c",TRUE,1,-0.230841775499963
"CVOE_C",11,1,2,34,"H 70","","",FALSE,"CV","q",495,"cv","H",0,"c","c",TRUE,1,-0.680637696600057
"CVOE_C",11,1,2,35,"D 48","","",FALSE,"CV","q",858,"cv","D",8,"c","c",TRUE,1,-0.269363340531205
"CVOE_C",11,1,2,36,"P 56","","",FALSE,"CV","q",429,"cv","P",6,"c","c",TRUE,1,-0.75541485224894
"CVOE_C",11,1,2,37,"O 77","","",FALSE,"CV","p",859,"cv","O",7,"v","v",TRUE,1,-0.268230353324404
"CVOE_C",11,1,2,38,"P 42","","",FALSE,"CV","q",654,"cv","P",2,"c","c",TRUE,1,-0.500492730718659
"CVOE_C",11,1,2,39,"H 22","","",FALSE,"CV","q",897,"cv","H",2,"c","c",TRUE,1,-0.225176839465956
"CVOE_C",11,1,2,40,"E 42","","",TRUE,"CV","p",564,"cv","E",2,"v","v",TRUE,1,-0.602461579330771
"CVOE_C",11,1,2,41,"J 28","","",FALSE,"CV","q",485,"cv","J",8,"c","c",TRUE,1,-0.69196756866807
"CVOE_C",11,1,2,42,"E 95","","",FALSE,"CV","p",509,"cv","E",5,"v","v",TRUE,1,-0.66477587570484
"CVOE_C",11,1,2,43,"S 63","","",TRUE,"CV","q",387,"cv","S",3,"c","c",TRUE,1,-0.803000314934592
"CVOE_C",11,1,2,44,"H 50","","",FALSE,"CV","q",496,"cv","H",0,"c","c",TRUE,1,-0.679504709393256
"CVOE_C",11,1,2,45,"S 33","","",TRUE,"CV","q",595,"cv","S",3,"c","c",TRUE,1,-0.567338975919933
"CVOE_C",11,1,2,46,"P 57","","",TRUE,"CV","q",460,"cv","P",7,"c","c",TRUE,1,-0.720292248838101
"CVOE_C",11,1,2,47,"E 23","","",FALSE,"CV","p",567,"cv","E",3,"v","v",TRUE,1,-0.599062617710368
"CVOE_C",11,1,2,48,"S 61","","",TRUE,"CV","q",695,"cv","S",1,"c","c",TRUE,1,-0.454040255239808
"CVOE_C",11,1,2,49,"U 67","","",FALSE,"CV","p",490,"cv","U",7,"v","v",TRUE,1,-0.686302632634064
"CVOE_C",11,1,2,50,"H 32","","",FALSE,"CV","q",397,"cv","H",2,"c","c",TRUE,1,-0.791670442866579
"CVOE_C",11,1,2,51,"U 50","","",TRUE,"CV","p",502,"cv","U",0,"v","v",TRUE,1,-0.672706786152449
"CVOE_C",11,1,2,52,"O 49","","",FALSE,"CV","p",619,"cv","O",9,"v","v",TRUE,1,-0.540147282956703
"CVOE_C",11,1,2,53,"U 32","","",TRUE,"CV","p",799,"cv","U",2,"v","v",TRUE,1,-0.336209585732478
"CVOE_C",11,1,2,54,"J 78","","",FALSE,"CV","q",527,"cv","J",8,"c","c",TRUE,1,-0.644382105982417
"CVOE_C",11,1,2,55,"S 54","","",FALSE,"CV","q",831,"cv","S",4,"c","c",TRUE,1,-0.299953995114839
"CVOE_C",11,1,2,56,"J 27","","",TRUE,"CV","q",421,"cv","J",7,"c","c",TRUE,1,-0.76447874990335
"CVOE_C",11,1,2,57,"S 06","","",FALSE,"CV","q",491,"cv","S",6,"c","c",TRUE,1,-0.685169645427262
"CVOE_C",11,1,2,58,"D 67","","",TRUE,"CV","q",446,"cv","D",7,"c","c",TRUE,1,-0.736154069733318
"CVOE_C",11,1,2,59,"A 79","","",FALSE,"CV","p",398,"cv","A",9,"v","v",TRUE,1,-0.790537455659778
"CVOE_C",11,1,2,60,"S 52","","",FALSE,"CV","q",479,"cv","S",2,"c","c",TRUE,1,-0.698765491908877
"CVOE_C",11,1,2,61,"U 16","","",TRUE,"CV","p",503,"cv","U",6,"v","v",TRUE,1,-0.671573798945647
"CVOE_C",11,1,2,62,"O 82","","",TRUE,"CV","p",837,"cv","O",2,"v","v",TRUE,1,-0.293156071874031
"CVOE_C",11,1,2,63,"H 87","","",TRUE,"CV","q",509,"cv","H",7,"c","c",TRUE,1,-0.66477587570484
"CVOE_C",11,1,2,64,"I 32","","",TRUE,"CV","p",451,"cv","I",2,"v","v",TRUE,1,-0.730489133699312
"CVOE_C",11,1,2,65,"U 37","","",FALSE,"CV","p",574,"cv","U",7,"v","v",TRUE,1,-0.591131707262759
"CVOE_C",11,1,2,66,"I 42","","",TRUE,"CV","p",409,"cv","I",2,"v","v",TRUE,1,-0.778074596384964
"CVOE_C",11,1,2,67,"D 65","","",TRUE,"CV","q",420,"cv","D",5,"c","c",TRUE,1,-0.765611737110151
"CVOE_C",11,1,2,68,"U 77","","",FALSE,"CV","p",447,"cv","U",7,"v","v",TRUE,1,-0.735021082526517
"CVOE_C",11,1,2,69,"E 12","","",TRUE,"CV","q",368,"cv","E",2,"v","c",FALSE,0,-0.824527071863816
"CVOE_C",11,1,2,70,"I 60","","",TRUE,"CV","p",544,"cv","I",0,"v","v",TRUE,1,-0.625121323466796
"CVOE_C",11,1,2,71,"J 36","","",FALSE,"CV","q",646,"cv","J",6,"c","c",TRUE,1,-0.509556628373069
"CVOE_C",11,1,2,72,"H 75","","",TRUE,"CV","q",646,"cv","H",5,"c","c",TRUE,1,-0.509556628373069
"CVOE_C",11,1,2,73,"I 50","","",TRUE,"CV","p",1543,"cv","I",0,"v","v",TRUE,1,0.506732896127649
"CVOE_C",11,1,2,74,"E 99","","",FALSE,"CV","p",381,"cv","E",9,"v","v",TRUE,1,-0.809798238175399
"CVOE_C",11,1,2,75,"A 86","","",TRUE,"CV","p",520,"cv","A",6,"v","v",TRUE,1,-0.652313016430026
"CVOE_C",11,1,2,76,"U 48","","",TRUE,"CV","p",408,"cv","U",8,"v","v",TRUE,1,-0.779207583591766
"CVOE_C",11,1,2,77,"E 01","","",FALSE,"CV","p",763,"cv","E",1,"v","v",TRUE,1,-0.376997125177323
"CVOE_C",11,1,2,78,"A 78","","",TRUE,"CV","p",460,"cv","A",8,"v","v",TRUE,1,-0.720292248838101
"CVOE_C",11,1,2,79,"P 60","","",FALSE,"CV","q",471,"cv","P",0,"c","c",TRUE,1,-0.707829389563287
"CVOE_C",11,1,2,80,"E 43","","",FALSE,"CV","p",428,"cv","E",3,"v","v",TRUE,1,-0.756547839455741
"CVOE_C",11,1,2,81,"D 69","","",TRUE,"CV","q",578,"cv","D",9,"c","c",TRUE,1,-0.586599758435554
"CVOE_C",11,1,2,82,"H 11","","",TRUE,"CV","q",1333,"cv","H",1,"c","c",TRUE,1,0.268805582699387
"CVOE_C",11,1,2,83,"P 43","","",TRUE,"CV","q",696,"cv","P",3,"c","c",TRUE,1,-0.452907268033007
"CVOE_C",11,1,2,84,"O 67","","",FALSE,"CV","p",460,"cv","O",7,"v","v",TRUE,1,-0.720292248838101
"CVOE_C",11,1,2,85,"S 91","","",FALSE,"CV","q",559,"cv","S",1,"c","c",TRUE,1,-0.608126515364778
"CVOE_C",11,1,2,86,"J 68","","",TRUE,"CV","q",407,"cv","J",8,"c","c",TRUE,1,-0.780340570798567
"CVOE_C",11,1,2,87,"S 47","","",FALSE,"CV","q",367,"cv","S",7,"c","c",TRUE,1,-0.825660059070617
"CVOE_C",11,1,2,88,"I 81","","",TRUE,"CV","p",568,"cv","I",1,"v","v",TRUE,1,-0.597929630503566
"CVOE_C",11,1,2,89,"J 39","","",FALSE,"CV","q",459,"cv","J",9,"c","c",TRUE,1,-0.721425236044902
"CVOE_C",11,1,2,90,"A 11","","",TRUE,"CV","p",502,"cv","A",1,"v","v",TRUE,1,-0.672706786152449
"CVOE_C",11,1,2,91,"O 76","","",FALSE,"CV","p",436,"cv","O",6,"v","v",TRUE,1,-0.747483941801331
"CVOE_C",11,1,2,92,"A 62","","",FALSE,"CV","p",372,"cv","A",2,"v","v",TRUE,1,-0.819995123036611
"CVOE_C",11,1,2,93,"O 27","","",TRUE,"CV","p",407,"cv","O",7,"v","v",TRUE,1,-0.780340570798567
"CVOE_C",11,1,2,94,"E 66","","",FALSE,"CV","p",439,"cv","E",6,"v","v",TRUE,1,-0.744084980180927
"CVOE_C",11,1,2,95,"J 62","","",TRUE,"CV","q",536,"cv","J",2,"c","c",TRUE,1,-0.634185221121206
"CVOE_C",11,1,2,96,"H 72","","",TRUE,"CV","q",483,"cv","H",2,"c","c",TRUE,1,-0.694233543081672
"CVOE_C",11,1,2,97,"E 49","","",TRUE,"CV","p",403,"cv","E",9,"v","v",TRUE,1,-0.784872519625772
"CVOE_C",11,1,2,98,"D 52","","",TRUE,"CV","q",467,"cv","D",2,"c","c",TRUE,1,-0.712361338390492
"CVOE_C",11,1,2,99,"H 62","","",TRUE,"CV","q",809,"cv","H",2,"c","c",TRUE,1,-0.324879713664466
"CVOE_C",11,1,2,100,"I 11","","",TRUE,"CV","p",516,"cv","I",1,"v","v",TRUE,1,-0.656844965257231
"CVOE_C",11,1,2,101,"A 98","","",FALSE,"CV","p",789,"cv","A",8,"v","v",TRUE,1,-0.347539457800491
"CVOE_C",11,1,2,102,"H 29","","",FALSE,"CV","q",507,"cv","H",9,"c","c",TRUE,1,-0.667041850118442
"CVOE_C",11,1,2,103,"E 83","","",TRUE,"CV","p",400,"cv","E",3,"v","v",TRUE,1,-0.788271481246176
"CVOE_C",11,1,2,104,"D 43","","",FALSE,"CV","q",537,"cv","D",3,"c","c",TRUE,1,-0.633052233914405
"CVOE_C",11,1,2,105,"P 45","","",TRUE,"CV","q",572,"cv","P",5,"c","c",TRUE,1,-0.593397681676361
"CVOE_C",11,1,2,106,"J 17","","",TRUE,"CV","q",375,"cv","J",7,"c","c",TRUE,1,-0.816596161416207
"CVOE_C",15,1,2,11,"A 71","","",FALSE,"CV","p",1555,"cv","A",1,"v","v",TRUE,1,0.520328742609264
"CVOE_C",15,1,2,12,"I 66","","",TRUE,"CV","p",1180,"cv","I",6,"v","v",TRUE,1,0.0954585400587963
"CVOE_C",15,1,2,13,"S 30","","",FALSE,"CV","q",442,"cv","S",0,"c","c",TRUE,1,-0.740686018560523
"CVOE_C",15,1,2,14,"D 20","","",FALSE,"CV","q",450,"cv","D",0,"c","c",TRUE,1,-0.731622120906113
"CVOE_C",15,1,2,15,"I 31","","",FALSE,"CV","p",430,"cv","I",1,"v","v",TRUE,1,-0.754281865042138
"CVOE_C",15,1,2,16,"P 16","","",FALSE,"CV","q",603,"cv","P",6,"c","c",TRUE,1,-0.558275078265523
"CVOE_C",15,1,2,17,"A 49","","",FALSE,"CV","p",500,"cv","A",9,"v","v",TRUE,1,-0.674972760566051
"CVOE_C",15,1,2,18,"O 64","","",TRUE,"CV","p",415,"cv","O",4,"v","v",TRUE,1,-0.771276673144157
"CVOE_C",15,1,2,19,"D 02","","",FALSE,"CV","q",1338,"cv","D",2,"c","c",TRUE,1,0.274470518733393
"CVOE_C",15,1,2,20,"P 81","","",TRUE,"CV","q",437,"cv","P",1,"c","c",TRUE,1,-0.74635095459453
"CVOE_C",15,1,2,21,"J 58","","",FALSE,"CV","q",429,"cv","J",8,"c","c",TRUE,1,-0.75541485224894
"CVOE_C",15,1,2,22,"A 22","","",TRUE,"CV","p",419,"cv","A",2,"v","v",TRUE,1,-0.766744724316952
"CVOE_C",15,1,2,23,"J 72","","",FALSE,"CV","q",414,"cv","J",2,"c","c",TRUE,1,-0.772409660350958
"CVOE_C",15,1,2,24,"P 91","","",TRUE,"CV","q",377,"cv","P",1,"c","c",TRUE,1,-0.814330187002604
"CVOE_C",15,1,2,25,"E 19","","",FALSE,"CV","p",404,"cv","E",9,"v","v",TRUE,1,-0.783739532418971
"CVOE_C",15,1,2,26,"I 30","","",TRUE,"CV","p",413,"cv","I",0,"v","v",TRUE,1,-0.773542647557759
"CVOE_C",15,1,2,27,"D 91","","",TRUE,"CV","q",512,"cv","D",1,"c","c",TRUE,1,-0.661376914084436
"CVOE_C",15,1,2,28,"O 48","","",TRUE,"CV","p",381,"cv","O",8,"v","v",TRUE,1,-0.809798238175399
"CVOE_C",15,1,2,29,"A 89","","",FALSE,"CV","q",339,"cv","A",9,"v","c",FALSE,0,-0.857383700861052
"CVOE_C",15,1,2,30,"U 11","","",FALSE,"CV","q",614,"cv","U",1,"v","c",FALSE,0,-0.545812218990709
"CVOE_C",15,1,2,31,"I 76","","",TRUE,"CV","p",481,"cv","I",6,"v","v",TRUE,1,-0.696499517495275
"CVOE_C",15,1,2,32,"U 89","","",FALSE,"CV","p",497,"cv","U",9,"v","v",TRUE,1,-0.678371722186455
"CVOE_C",15,1,2,33,"D 63","","",TRUE,"CV","q",628,"cv","D",3,"c","c",TRUE,1,-0.529950398095492
"CVOE_C",15,1,2,34,"H 70","","",FALSE,"CV","q",674,"cv","H",0,"c","c",TRUE,1,-0.477832986582634
"CVOE_C",15,1,2,35,"D 48","","",FALSE,"CV","q",467,"cv","D",8,"c","c",TRUE,1,-0.712361338390492
"CVOE_C",15,1,2,36,"P 56","","",FALSE,"CV","q",368,"cv","P",6,"c","c",TRUE,1,-0.824527071863816
"CVOE_C",15,1,2,37,"O 77","","",FALSE,"CV","p",379,"cv","O",7,"v","v",TRUE,1,-0.812064212589002
"CVOE_C",15,1,2,38,"P 42","","",FALSE,"CV","q",350,"cv","P",2,"c","c",TRUE,1,-0.844920841586238
"CVOE_C",15,1,2,39,"H 22","","",FALSE,"CV","q",404,"cv","H",2,"c","c",TRUE,1,-0.783739532418971
"CVOE_C",15,1,2,40,"E 42","","",TRUE,"CV","p",436,"cv","E",2,"v","v",TRUE,1,-0.747483941801331
"CVOE_C",15,1,2,41,"J 28","","",FALSE,"CV","q",405,"cv","J",8,"c","c",TRUE,1,-0.782606545212169
"CVOE_C",15,1,2,42,"E 95","","",FALSE,"CV","q",301,"cv","E",5,"v","c",FALSE,0,-0.900437214719499
"CVOE_C",15,1,2,43,"S 63","","",TRUE,"CV","q",523,"cv","S",3,"c","c",TRUE,1,-0.648914054809622
"CVOE_C",15,1,2,44,"H 50","","",FALSE,"CV","q",363,"cv","H",0,"c","c",TRUE,1,-0.830192007897822
"CVOE_C",15,1,2,45,"S 33","","",TRUE,"CV","q",467,"cv","S",3,"c","c",TRUE,1,-0.712361338390492
"CVOE_C",15,1,2,46,"P 57","","",TRUE,"CV","q",329,"cv","P",7,"c","c",TRUE,1,-0.868713572929064
"CVOE_C",15,1,2,47,"E 23","","",FALSE,"CV","p",348,"cv","E",3,"v","v",TRUE,1,-0.84718681599984
"CVOE_C",15,1,2,48,"S 61","","",TRUE,"CV","q",578,"cv","S",1,"c","c",TRUE,1,-0.586599758435554
"CVOE_C",15,1,2,49,"U 67","","",FALSE,"CV","p",669,"cv","U",7,"v","v",TRUE,1,-0.48349792261664
"CVOE_C",15,1,2,50,"H 32","","",FALSE,"CV","q",547,"cv","H",2,"c","c",TRUE,1,-0.621722361846393
"CVOE_C",15,1,2,51,"U 50","","",TRUE,"CV","p",312,"cv","U",0,"v","v",TRUE,1,-0.887974355444685
"CVOE_C",15,1,2,52,"O 49","","",FALSE,"CV","p",462,"cv","O",9,"v","v",TRUE,1,-0.718026274424498
"CVOE_C",15,1,2,53,"U 32","","",TRUE,"CV","p",388,"cv","U",2,"v","v",TRUE,1,-0.801867327727791
"CVOE_C",15,1,2,54,"J 78","","",FALSE,"CV","q",345,"cv","J",8,"c","c",TRUE,1,-0.850585777620244
"CVOE_C",15,1,2,55,"S 54","","",FALSE,"CV","q",367,"cv","S",4,"c","c",TRUE,1,-0.825660059070617
"CVOE_C",15,1,2,56,"J 27","","",TRUE,"CV","q",354,"cv","J",7,"c","c",TRUE,1,-0.840388892759033
"CVOE_C",15,1,2,57,"S 06","","",FALSE,"CV","q",1354,"cv","S",6,"c","c",TRUE,1,0.292598314042213
"CVOE_C",15,1,2,58,"D 67","","",TRUE,"CV","q",379,"cv","D",7,"c","c",TRUE,1,-0.812064212589002
"CVOE_C",15,1,2,59,"A 79","","",FALSE,"CV","p",462,"cv","A",9,"v","v",TRUE,1,-0.718026274424498
"CVOE_C",15,1,2,60,"S 52","","",FALSE,"CV","q",460,"cv","S",2,"c","c",TRUE,1,-0.720292248838101
"CVOE_C",15,1,2,61,"U 16","","",TRUE,"CV","p",431,"cv","U",6,"v","v",TRUE,1,-0.753148877835337
"CVOE_C",15,1,2,62,"O 82","","",TRUE,"CV","p",357,"cv","O",2,"v","v",TRUE,1,-0.836989931138629
"CVOE_C",15,1,2,63,"H 87","","",TRUE,"CV","q",349,"cv","H",7,"c","c",TRUE,1,-0.846053828793039
"CVOE_C",15,1,2,64,"I 32","","",TRUE,"CV","p",403,"cv","I",2,"v","v",TRUE,1,-0.784872519625772
"CVOE_C",15,1,2,65,"U 37","","",FALSE,"CV","p",803,"cv","U",7,"v","v",TRUE,1,-0.331677636905274
"CVOE_C",15,1,2,66,"I 42","","",TRUE,"CV","p",355,"cv","I",2,"v","v",TRUE,1,-0.839255905552232
"CVOE_C",15,1,2,67,"D 65","","",TRUE,"CV","q",300,"cv","D",5,"c","c",TRUE,1,-0.9015702019263
"CVOE_C",15,1,2,68,"U 77","","",FALSE,"CV","p",343,"cv","U",7,"v","v",TRUE,1,-0.852851752033847
"CVOE_C",15,1,2,69,"E 12","","",TRUE,"CV","p",396,"cv","E",2,"v","v",TRUE,1,-0.792803430073381
"CVOE_C",15,1,2,70,"I 60","","",TRUE,"CV","p",365,"cv","I",0,"v","v",TRUE,1,-0.827926033484219
"CVOE_C",15,1,2,71,"J 36","","",FALSE,"CV","p",333,"cv","J",6,"c","v",FALSE,0,-0.864181624101859
"CVOE_C",15,1,2,72,"H 75","","",TRUE,"CV","q",392,"cv","H",5,"c","c",TRUE,1,-0.797335378900586
"CVOE_C",15,1,2,73,"I 50","","",TRUE,"CV","p",366,"cv","I",0,"v","v",TRUE,1,-0.826793046277418
"CVOE_C",15,1,2,74,"E 99","","",FALSE,"CV","q",350,"cv","E",9,"v","c",FALSE,0,-0.844920841586238
"CVOE_C",15,1,2,75,"A 86","","",TRUE,"CV","q",340,"cv","A",6,"v","c",FALSE,0,-0.85625071365425
"CVOE_C",15,1,2,76,"U 48","","",TRUE,"CV","p",591,"cv","U",8,"v","v",TRUE,1,-0.571870924747138
"CVOE_C",15,1,2,77,"E 01","","",FALSE,"CV","p",405,"cv","E",1,"v","v",TRUE,1,-0.782606545212169
"CVOE_C",15,1,2,78,"A 78","","",TRUE,"CV","p",429,"cv","A",8,"v","v",TRUE,1,-0.75541485224894
"CVOE_C",15,1,2,79,"P 60","","",FALSE,"CV","q",307,"cv","P",0,"c","c",TRUE,1,-0.893639291478692
"CVOE_C",15,1,2,80,"E 43","","",FALSE,"CV","p",344,"cv","E",3,"v","v",TRUE,1,-0.851718764827045
"CVOE_C",15,1,2,81,"D 69","","",TRUE,"CV","q",278,"cv","D",9,"c","c",TRUE,1,-0.926495920475928
"CVOE_C",15,1,2,82,"H 11","","",TRUE,"CV","q",382,"cv","H",1,"c","c",TRUE,1,-0.808665250968598
"CVOE_C",15,1,2,83,"P 43","","",TRUE,"CV","q",380,"cv","P",3,"c","c",TRUE,1,-0.810931225382201
"CVOE_C",15,1,2,84,"O 67","","",FALSE,"CV","p",431,"cv","O",7,"v","v",TRUE,1,-0.753148877835337
"CVOE_C",15,1,2,85,"S 91","","",FALSE,"CV","p",357,"cv","S",1,"c","v",FALSE,0,-0.836989931138629
"CVOE_C",15,1,2,86,"J 68","","",TRUE,"CV","q",469,"cv","J",8,"c","c",TRUE,1,-0.71009536397689
"CVOE_C",15,1,2,87,"S 47","","",FALSE,"CV","q",371,"cv","S",7,"c","c",TRUE,1,-0.821128110243412
"CVOE_C",15,1,2,88,"I 81","","",TRUE,"CV","p",478,"cv","I",1,"v","v",TRUE,1,-0.699898479115678
"CVOE_C",15,1,2,89,"J 39","","",FALSE,"CV","q",462,"cv","J",9,"c","c",TRUE,1,-0.718026274424498
"CVOE_C",15,1,2,90,"A 11","","",TRUE,"CV","q",380,"cv","A",1,"v","c",FALSE,0,-0.810931225382201
"CVOE_C",15,1,2,91,"O 76","","",FALSE,"CV","p",457,"cv","O",6,"v","v",TRUE,1,-0.723691210458505
"CVOE_C",15,1,2,92,"A 62","","",FALSE,"CV","p",620,"cv","A",2,"v","v",TRUE,1,-0.539014295749902
"CVOE_C",15,1,2,93,"O 27","","",TRUE,"CV","p",354,"cv","O",7,"v","v",TRUE,1,-0.840388892759033
"CVOE_C",15,1,2,94,"E 66","","",FALSE,"CV","p",411,"cv","E",6,"v","v",TRUE,1,-0.775808621971362
"CVOE_C",15,1,2,95,"J 62","","",TRUE,"CV","q",494,"cv","J",2,"c","c",TRUE,1,-0.681770683806859
"CVOE_C",15,1,2,96,"H 72","","",TRUE,"CV","q",521,"cv","H",2,"c","c",TRUE,1,-0.651180029223225
"CVOE_C",15,1,2,97,"E 49","","",TRUE,"CV","p",361,"cv","E",9,"v","v",TRUE,1,-0.832457982311424
"CVOE_C",15,1,2,98,"D 52","","",TRUE,"CV","q",329,"cv","D",2,"c","c",TRUE,1,-0.868713572929064
"CVOE_C",15,1,2,99,"H 62","","",TRUE,"CV","q",396,"cv","H",2,"c","c",TRUE,1,-0.792803430073381
"CVOE_C",15,1,2,100,"I 11","","",TRUE,"CV","p",397,"cv","I",1,"v","v",TRUE,1,-0.791670442866579
"CVOE_C",15,1,2,101,"A 98","","",FALSE,"CV","p",501,"cv","A",8,"v","v",TRUE,1,-0.67383977335925
"CVOE_C",15,1,2,102,"H 29","","",FALSE,"CV","p",363,"cv","H",9,"c","v",FALSE,0,-0.830192007897822
"CVOE_C",15,1,2,103,"E 83","","",TRUE,"CV","q",299,"cv","E",3,"v","c",FALSE,0,-0.902703189133102
"CVOE_C",15,1,2,104,"D 43","","",FALSE,"CV","q",518,"cv","D",3,"c","c",TRUE,1,-0.654578990843629
"CVOE_C",15,1,2,105,"P 45","","",TRUE,"CV","q",430,"cv","P",5,"c","c",TRUE,1,-0.754281865042138
"CVOE_C",15,1,2,106,"J 17","","",TRUE,"CV","q",316,"cv","J",7,"c","c",TRUE,1,-0.88344240661748
"CVOE_C",7,1,2,11,"A 71","","",FALSE,"CV","p",3005,"cv","A",1,"v","v",TRUE,1,2.16316019247107
"CVOE_C",7,1,2,12,"I 66","","",TRUE,"CV","p",830,"cv","I",6,"v","v",TRUE,1,-0.30108698232164
"CVOE_C",7,1,2,13,"S 30","","",FALSE,"CV","q",668,"cv","S",0,"c","c",TRUE,1,-0.484630909823442
"CVOE_C",7,1,2,14,"D 20","","",FALSE,"CV","q",754,"cv","D",0,"c","c",TRUE,1,-0.387194010038535
"CVOE_C",7,1,2,15,"I 31","","",FALSE,"CV","p",874,"cv","I",1,"v","v",TRUE,1,-0.251235545222385
"CVOE_C",7,1,2,16,"P 16","","",FALSE,"CV","q",859,"cv","P",6,"c","c",TRUE,1,-0.268230353324404
"CVOE_C",7,1,2,17,"A 49","","",FALSE,"CV","p",902,"cv","A",9,"v","v",TRUE,1,-0.21951190343195
"CVOE_C",7,1,2,18,"O 64","","",TRUE,"CV","p",1076,"cv","O",4,"v","v",TRUE,1,-0.0223721294485333
"CVOE_C",7,1,2,19,"D 02","","",FALSE,"CV","q",581,"cv","D",2,"c","c",TRUE,1,-0.58320079681515
"CVOE_C",7,1,2,20,"P 81","","",TRUE,"CV","q",1338,"cv","P",1,"c","c",TRUE,1,0.274470518733393
"CVOE_C",7,1,2,21,"J 58","","",FALSE,"CV","q",646,"cv","J",8,"c","c",TRUE,1,-0.509556628373069
"CVOE_C",7,1,2,22,"A 22","","",TRUE,"CV","p",606,"cv","A",2,"v","v",TRUE,1,-0.554876116645119
"CVOE_C",7,1,2,23,"J 72","","",FALSE,"CV","q",601,"cv","J",2,"c","c",TRUE,1,-0.560541052679125
"CVOE_C",7,1,2,24,"P 91","","",TRUE,"CV","q",986,"cv","P",1,"c","c",TRUE,1,-0.124340978060645
"CVOE_C",7,1,2,25,"E 19","","",FALSE,"CV","p",1024,"cv","E",9,"v","v",TRUE,1,-0.0812874642021981
"CVOE_C",7,1,2,26,"I 30","","",TRUE,"CV","p",694,"cv","I",0,"v","v",TRUE,1,-0.455173242446609
"CVOE_C",7,1,2,27,"D 91","","",TRUE,"CV","q",697,"cv","D",1,"c","c",TRUE,1,-0.451774280826206
"CVOE_C",7,1,2,28,"O 48","","",TRUE,"CV","p",636,"cv","O",8,"v","v",TRUE,1,-0.520886500441082
"CVOE_C",7,1,2,29,"A 89","","",FALSE,"CV","p",764,"cv","A",9,"v","v",TRUE,1,-0.375864137970522
"CVOE_C",7,1,2,30,"U 11","","",FALSE,"CV","p",789,"cv","U",1,"v","v",TRUE,1,-0.347539457800491
"CVOE_C",7,1,2,31,"I 76","","",TRUE,"CV","p",787,"cv","I",6,"v","v",TRUE,1,-0.349805432214093
"CVOE_C",7,1,2,32,"U 89","","",FALSE,"CV","p",672,"cv","U",9,"v","v",TRUE,1,-0.480098960996237
"CVOE_C",7,1,2,33,"D 63","","",TRUE,"CV","q",614,"cv","D",3,"c","c",TRUE,1,-0.545812218990709
"CVOE_C",7,1,2,34,"H 70","","",FALSE,"CV","q",857,"cv","H",0,"c","c",TRUE,1,-0.270496327738006
"CVOE_C",7,1,2,35,"D 48","","",FALSE,"CV","q",597,"cv","D",8,"c","c",TRUE,1,-0.56507300150633
"CVOE_C",7,1,2,36,"P 56","","",FALSE,"CV","q",861,"cv","P",6,"c","c",TRUE,1,-0.265964378910801
"CVOE_C",7,1,2,37,"O 77","","",FALSE,"CV","p",699,"cv","O",7,"v","v",TRUE,1,-0.449508306412603
"CVOE_C",7,1,2,38,"P 42","","",FALSE,"CV","q",598,"cv","P",2,"c","c",TRUE,1,-0.563940014299529
"CVOE_C",7,1,2,39,"H 22","","",FALSE,"CV","q",1014,"cv","H",2,"c","c",TRUE,1,-0.0926173362702106
"CVOE_C",7,1,2,40,"E 42","","",TRUE,"CV","p",954,"cv","E",2,"v","v",TRUE,1,-0.160596568678285
"CVOE_C",7,1,2,41,"J 28","","",FALSE,"CV","q",1394,"cv","J",8,"c","c",TRUE,1,0.337917802314263
"CVOE_C",7,1,2,42,"E 95","","",FALSE,"CV","p",595,"cv","E",5,"v","v",TRUE,1,-0.567338975919933
"CVOE_C",7,1,2,43,"S 63","","",TRUE,"CV","q",587,"cv","S",3,"c","c",TRUE,1,-0.576402873574343
"CVOE_C",7,1,2,44,"H 50","","",FALSE,"CV","q",1201,"cv","H",0,"c","c",TRUE,1,0.119251271401622
"CVOE_C",7,1,2,45,"S 33","","",TRUE,"CV","q",642,"cv","S",3,"c","c",TRUE,1,-0.514088577200274
"CVOE_C",7,1,2,46,"P 57","","",TRUE,"CV","q",1034,"cv","P",7,"c","c",TRUE,1,-0.0699575921341856
"CVOE_C",7,1,2,47,"E 23","","",FALSE,"CV","p",923,"cv","E",3,"v","v",TRUE,1,-0.195719172089124
"CVOE_C",7,1,2,48,"S 61","","",TRUE,"CV","q",587,"cv","S",1,"c","c",TRUE,1,-0.576402873574343
"CVOE_C",7,1,2,49,"U 67","","",FALSE,"CV","p",697,"cv","U",7,"v","v",TRUE,1,-0.451774280826206
"CVOE_C",7,1,2,50,"H 32","","",FALSE,"CV","q",516,"cv","H",2,"c","c",TRUE,1,-0.656844965257231
"CVOE_C",7,1,2,51,"U 50","","",TRUE,"CV","p",653,"cv","U",0,"v","v",TRUE,1,-0.50162571792546
"CVOE_C",7,1,2,52,"O 49","","",FALSE,"CV","p",776,"cv","O",9,"v","v",TRUE,1,-0.362268291488907
"CVOE_C",7,1,2,53,"U 32","","",TRUE,"CV","p",675,"cv","U",2,"v","v",TRUE,1,-0.476699999375833
"CVOE_C",7,1,2,54,"J 78","","",FALSE,"CV","q",539,"cv","J",8,"c","c",TRUE,1,-0.630786259500802
"CVOE_C",7,1,2,55,"S 54","","",FALSE,"CV","q",942,"cv","S",4,"c","c",TRUE,1,-0.1741924151599
"CVOE_C",7,1,2,56,"J 27","","",TRUE,"CV","q",572,"cv","J",7,"c","c",TRUE,1,-0.593397681676361
"CVOE_C",7,1,2,57,"S 06","","",FALSE,"CV","q",647,"cv","S",6,"c","c",TRUE,1,-0.508423641166268
"CVOE_C",7,1,2,58,"D 67","","",TRUE,"CV","q",691,"cv","D",7,"c","c",TRUE,1,-0.458572204067013
"CVOE_C",7,1,2,59,"A 79","","",FALSE,"CV","p",598,"cv","A",9,"v","v",TRUE,1,-0.563940014299529
"CVOE_C",7,1,2,60,"S 52","","",FALSE,"CV","q",494,"cv","S",2,"c","c",TRUE,1,-0.681770683806859
"CVOE_C",7,1,2,61,"U 16","","",TRUE,"CV","p",465,"cv","U",6,"v","v",TRUE,1,-0.714627312804095
"CVOE_C",7,1,2,62,"O 82","","",TRUE,"CV","p",511,"cv","O",2,"v","v",TRUE,1,-0.662509901291237
"CVOE_C",7,1,2,63,"H 87","","",TRUE,"CV","q",573,"cv","H",7,"c","c",TRUE,1,-0.59226469446956
"CVOE_C",7,1,2,64,"I 32","","",TRUE,"CV","p",592,"cv","I",2,"v","v",TRUE,1,-0.570737937540336
"CVOE_C",7,1,2,65,"U 37","","",FALSE,"CV","p",549,"cv","U",7,"v","v",TRUE,1,-0.61945638743279
"CVOE_C",7,1,2,66,"I 42","","",TRUE,"CV","p",515,"cv","I",2,"v","v",TRUE,1,-0.657977952464032
"CVOE_C",7,1,2,67,"D 65","","",TRUE,"CV","q",652,"cv","D",5,"c","c",TRUE,1,-0.502758705132262
"CVOE_C",7,1,2,68,"U 77","","",FALSE,"CV","p",599,"cv","U",7,"v","v",TRUE,1,-0.562807027092728
"CVOE_C",7,1,2,69,"E 12","","",TRUE,"CV","p",999,"cv","E",2,"v","v",TRUE,1,-0.109612144372229
"CVOE_C",7,1,2,70,"I 60","","",TRUE,"CV","p",784,"cv","I",0,"v","v",TRUE,1,-0.353204393834497
"CVOE_C",7,1,2,71,"J 36","","",FALSE,"CV","q",582,"cv","J",6,"c","c",TRUE,1,-0.582067809608349
"CVOE_C",7,1,2,72,"H 75","","",TRUE,"CV","q",579,"cv","H",5,"c","c",TRUE,1,-0.585466771228753
"CVOE_C",7,1,2,73,"I 50","","",TRUE,"CV","p",1022,"cv","I",0,"v","v",TRUE,1,-0.0835534386158006
"CVOE_C",7,1,2,74,"E 99","","",FALSE,"CV","p",956,"cv","E",9,"v","v",TRUE,1,-0.158330594264683
"CVOE_C",7,1,2,75,"A 86","","",TRUE,"CV","p",805,"cv","A",6,"v","v",TRUE,1,-0.329411662491671
"CVOE_C",7,1,2,76,"U 48","","",TRUE,"CV","p",1085,"cv","U",8,"v","v",TRUE,1,-0.0121752445873221
"CVOE_C",7,1,2,77,"E 01","","",FALSE,"CV","p",574,"cv","E",1,"v","v",TRUE,1,-0.591131707262759
"CVOE_C",7,1,2,78,"A 78","","",TRUE,"CV","p",497,"cv","A",8,"v","v",TRUE,1,-0.678371722186455
"CVOE_C",7,1,2,79,"P 60","","",FALSE,"CV","q",548,"cv","P",0,"c","c",TRUE,1,-0.620589374639591
"CVOE_C",7,1,2,80,"E 43","","",FALSE,"CV","p",562,"cv","E",3,"v","v",TRUE,1,-0.604727553744374
"CVOE_C",7,1,2,81,"D 69","","",TRUE,"CV","q",570,"cv","D",9,"c","c",TRUE,1,-0.595663656089964
"CVOE_C",7,1,2,82,"H 11","","",TRUE,"CV","q",981,"cv","H",1,"c","c",TRUE,1,-0.130005914094652
"CVOE_C",7,1,2,83,"P 43","","",TRUE,"CV","q",1235,"cv","P",3,"c","c",TRUE,1,0.157772836432865
"CVOE_C",7,1,2,84,"O 67","","",FALSE,"CV","p",628,"cv","O",7,"v","v",TRUE,1,-0.529950398095492
"CVOE_C",7,1,2,85,"S 91","","",FALSE,"CV","q",922,"cv","S",1,"c","c",TRUE,1,-0.196852159295925
"CVOE_C",7,1,2,86,"J 68","","",TRUE,"CV","q",1162,"cv","J",8,"c","c",TRUE,1,0.0750647703363739
"CVOE_C",7,1,2,87,"S 47","","",FALSE,"CV","q",467,"cv","S",7,"c","c",TRUE,1,-0.712361338390492
"CVOE_C",7,1,2,88,"I 81","","",TRUE,"CV","p",721,"cv","I",1,"v","v",TRUE,1,-0.424582587862976
"CVOE_C",7,1,2,89,"J 39","","",FALSE,"CV","q",537,"cv","J",9,"c","c",TRUE,1,-0.633052233914405
"CVOE_C",7,1,2,90,"A 11","","",TRUE,"CV","p",556,"cv","A",1,"v","v",TRUE,1,-0.611525476985181
"CVOE_C",7,1,2,91,"O 76","","",FALSE,"CV","p",445,"cv","O",6,"v","v",TRUE,1,-0.73728705694012
"CVOE_C",7,1,2,92,"A 62","","",FALSE,"CV","p",573,"cv","A",2,"v","v",TRUE,1,-0.59226469446956
"CVOE_C",7,1,2,93,"O 27","","",TRUE,"CV","p",800,"cv","O",7,"v","v",TRUE,1,-0.335076598525677
"CVOE_C",7,1,2,94,"E 66","","",FALSE,"CV","p",832,"cv","E",6,"v","v",TRUE,1,-0.298821007908037
"CVOE_C",7,1,2,95,"J 62","","",TRUE,"CV","q",494,"cv","J",2,"c","c",TRUE,1,-0.681770683806859
"CVOE_C",7,1,2,96,"H 72","","",TRUE,"CV","q",441,"cv","H",2,"c","c",TRUE,1,-0.741819005767325
"CVOE_C",7,1,2,97,"E 49","","",TRUE,"CV","p",602,"cv","E",9,"v","v",TRUE,1,-0.559408065472324
"CVOE_C",7,1,2,98,"D 52","","",TRUE,"CV","q",682,"cv","D",2,"c","c",TRUE,1,-0.468769088928224
"CVOE_C",7,1,2,99,"H 62","","",TRUE,"CV","q",579,"cv","H",2,"c","c",TRUE,1,-0.585466771228753
"CVOE_C",7,1,2,100,"I 11","","",TRUE,"CV","p",494,"cv","I",1,"v","v",TRUE,1,-0.681770683806859
"CVOE_C",7,1,2,101,"A 98","","",FALSE,"CV","p",825,"cv","A",8,"v","v",TRUE,1,-0.306751918355646
"CVOE_C",7,1,2,102,"H 29","","",FALSE,"CV","q",687,"cv","H",9,"c","c",TRUE,1,-0.463104152894218
"CVOE_C",7,1,2,103,"E 83","","",TRUE,"CV","p",554,"cv","E",3,"v","v",TRUE,1,-0.613791451398784
"CVOE_C",7,1,2,104,"D 43","","",FALSE,"CV","q",562,"cv","D",3,"c","c",TRUE,1,-0.604727553744374
"CVOE_C",7,1,2,105,"P 45","","",TRUE,"CV","q",491,"cv","P",5,"c","c",TRUE,1,-0.685169645427262
"CVOE_C",7,1,2,106,"J 17","","",TRUE,"CV","q",518,"cv","J",7,"c","c",TRUE,1,-0.654578990843629
"CVOE_D",4,1,1,11,"A 71","","",FALSE,"CV","p",1212,"cv","A",1,"v","v",TRUE,1,0.131714130676436
"CVOE_D",4,1,1,12,"I 66","","",TRUE,"CV","p",840,"cv","I",6,"v","v",TRUE,1,-0.289757110253627
"CVOE_D",4,1,1,13,"S 30","","",FALSE,"CV","q",728,"cv","S",0,"c","c",TRUE,1,-0.416651677415367
"CVOE_D",4,1,1,14,"D 20","","",FALSE,"CV","q",1075,"cv","D",0,"c","c",TRUE,1,-0.0235051166553346
"CVOE_D",4,1,1,15,"I 31","","",FALSE,"CV","p",708,"cv","I",1,"v","v",TRUE,1,-0.439311421551392
"CVOE_D",4,1,1,16,"P 16","","",FALSE,"CV","q",802,"cv","P",6,"c","c",TRUE,1,-0.332810624112075
"CVOE_D",4,1,1,17,"A 49","","",FALSE,"CV","p",706,"cv","A",9,"v","v",TRUE,1,-0.441577395964994
"CVOE_D",4,1,1,18,"O 64","","",TRUE,"CV","p",776,"cv","O",4,"v","v",TRUE,1,-0.362268291488907
"CVOE_D",4,1,1,19,"D 02","","",FALSE,"CV","q",851,"cv","D",2,"c","c",TRUE,1,-0.277294250978814
"CVOE_D",4,1,1,20,"P 81","","",TRUE,"CV","q",1006,"cv","P",1,"c","c",TRUE,1,-0.101681233924621
"CVOE_D",4,1,1,21,"J 58","","",FALSE,"CV","q",687,"cv","J",8,"c","c",TRUE,1,-0.463104152894218
"CVOE_D",4,1,1,22,"A 22","","",TRUE,"CV","p",959,"cv","A",2,"v","v",TRUE,1,-0.154931632644279
"CVOE_D",4,1,1,23,"J 72","","",FALSE,"CV","q",1439,"cv","J",2,"c","c",TRUE,1,0.388902226620319
"CVOE_D",4,1,1,24,"P 91","","",TRUE,"CV","q",889,"cv","P",1,"c","c",TRUE,1,-0.234240737120366
"CVOE_D",4,1,1,25,"E 19","","",FALSE,"CV","p",860,"cv","E",9,"v","v",TRUE,1,-0.267097366117602
"CVOE_D",4,1,1,26,"I 30","","",TRUE,"CV","p",743,"cv","I",0,"v","v",TRUE,1,-0.399656869313348
"CVOE_D",4,1,1,27,"D 91","","",TRUE,"CV","q",1597,"cv","D",1,"c","c",TRUE,1,0.567914205294916
"CVOE_D",4,1,1,29,"A 89","","",FALSE,"CV","p",663,"cv","A",9,"v","v",TRUE,1,-0.490295845857448
"CVOE_D",4,1,1,30,"U 11","","",FALSE,"CV","p",1909,"cv","U",1,"v","v",TRUE,1,0.921406213816905
"CVOE_D",4,1,1,31,"I 76","","",TRUE,"CV","p",651,"cv","I",6,"v","v",TRUE,1,-0.503891692339063
"CVOE_D",4,1,1,32,"U 89","","",FALSE,"CV","p",950,"cv","U",9,"v","v",TRUE,1,-0.16512851750549
"CVOE_D",4,1,1,33,"D 63","","",TRUE,"CV","q",1036,"cv","D",3,"c","c",TRUE,1,-0.0676916177205832
"CVOE_D",4,1,1,34,"H 70","","",FALSE,"CV","q",1157,"cv","H",0,"c","c",TRUE,1,0.0693998343023676
"CVOE_D",4,1,1,35,"D 48","","",FALSE,"CV","q",734,"cv","D",8,"c","c",TRUE,1,-0.409853754174559
"CVOE_D",4,1,1,36,"P 56","","",FALSE,"CV","q",689,"cv","P",6,"c","c",TRUE,1,-0.460838178480616
"CVOE_D",4,1,1,37,"O 77","","",FALSE,"CV","p",924,"cv","O",7,"v","v",TRUE,1,-0.194586184882323
"CVOE_D",4,1,1,38,"P 42","","",FALSE,"CV","q",756,"cv","P",2,"c","c",TRUE,1,-0.384928035624932
"CVOE_D",4,1,1,39,"H 22","","",FALSE,"CV","q",1901,"cv","H",2,"c","c",TRUE,1,0.912342316162495
"CVOE_D",4,1,1,40,"E 42","","",TRUE,"CV","p",667,"cv","E",2,"v","v",TRUE,1,-0.485763897030243
"CVOE_D",4,1,1,41,"J 28","","",FALSE,"CV","q",897,"cv","J",8,"c","c",TRUE,1,-0.225176839465956
"CVOE_D",4,1,1,42,"E 95","","",FALSE,"CV","p",908,"cv","E",5,"v","v",TRUE,1,-0.212713980191143
"CVOE_D",4,1,1,43,"S 63","","",TRUE,"CV","q",738,"cv","S",3,"c","c",TRUE,1,-0.405321805347355
"CVOE_D",4,1,1,44,"H 50","","",FALSE,"CV","q",1133,"cv","H",0,"c","c",TRUE,1,0.0422081413391377
"CVOE_D",4,1,1,45,"S 33","","",TRUE,"CV","q",712,"cv","S",3,"c","c",TRUE,1,-0.434779472724187
"CVOE_D",4,1,1,46,"P 57","","",TRUE,"CV","q",926,"cv","P",7,"c","c",TRUE,1,-0.19232021046872
"CVOE_D",4,1,1,47,"E 23","","",FALSE,"CV","p",1031,"cv","E",3,"v","v",TRUE,1,-0.0733565537545894
"CVOE_D",4,1,1,48,"S 61","","",TRUE,"CV","q",677,"cv","S",1,"c","c",TRUE,1,-0.474434024962231
"CVOE_D",4,1,1,49,"U 67","","",FALSE,"CV","p",805,"cv","U",7,"v","v",TRUE,1,-0.329411662491671
"CVOE_D",4,1,1,50,"H 32","","",FALSE,"CV","q",1102,"cv","H",2,"c","c",TRUE,1,0.00708553792829909
"CVOE_D",4,1,1,51,"U 50","","",TRUE,"CV","p",836,"cv","U",0,"v","v",TRUE,1,-0.294289059080832
"CVOE_D",4,1,1,52,"O 49","","",FALSE,"CV","p",820,"cv","O",9,"v","v",TRUE,1,-0.312416854389652
"CVOE_D",4,1,1,53,"U 32","","",TRUE,"CV","p",711,"cv","U",2,"v","v",TRUE,1,-0.435912459930988
"CVOE_D",4,1,1,54,"J 78","","",FALSE,"CV","q",749,"cv","J",8,"c","c",TRUE,1,-0.392858946072541
"CVOE_D",4,1,1,55,"S 54","","",FALSE,"CV","q",723,"cv","S",4,"c","c",TRUE,1,-0.422316613449373
"CVOE_D",4,1,1,56,"J 27","","",TRUE,"CV","q",707,"cv","J",7,"c","c",TRUE,1,-0.440444408758193
"CVOE_D",4,1,1,57,"S 06","","",FALSE,"CV","q",569,"cv","S",6,"c","c",TRUE,1,-0.596796643296765
"CVOE_D",4,1,1,58,"D 67","","",TRUE,"CV","q",1188,"cv","D",7,"c","c",TRUE,1,0.104522437713206
"CVOE_D",4,1,1,59,"A 79","","",FALSE,"CV","p",642,"cv","A",9,"v","v",TRUE,1,-0.514088577200274
"CVOE_D",4,1,1,60,"S 52","","",FALSE,"CV","q",819,"cv","S",2,"c","c",TRUE,1,-0.313549841596454
"CVOE_D",4,1,1,61,"U 16","","",TRUE,"CV","p",709,"cv","U",6,"v","v",TRUE,1,-0.438178434344591
"CVOE_D",4,1,1,62,"O 82","","",TRUE,"CV","p",756,"cv","O",2,"v","v",TRUE,1,-0.384928035624932
"CVOE_D",4,1,1,63,"H 87","","",TRUE,"CV","q",788,"cv","H",7,"c","c",TRUE,1,-0.348672445007292
"CVOE_D",4,1,1,64,"I 32","","",TRUE,"CV","p",778,"cv","I",2,"v","v",TRUE,1,-0.360002317075305
"CVOE_D",4,1,1,65,"U 37","","",FALSE,"CV","p",1237,"cv","U",7,"v","v",TRUE,1,0.160038810846467
"CVOE_D",4,1,1,66,"I 42","","",TRUE,"CV","p",750,"cv","I",2,"v","v",TRUE,1,-0.39172595886574
"CVOE_D",4,1,1,67,"D 65","","",TRUE,"CV","q",628,"cv","D",5,"c","c",TRUE,1,-0.529950398095492
"CVOE_D",4,1,1,68,"U 77","","",FALSE,"CV","p",785,"cv","U",7,"v","v",TRUE,1,-0.352071406627696
"CVOE_D",4,1,1,69,"E 12","","",TRUE,"CV","p",1191,"cv","E",2,"v","v",TRUE,1,0.10792139933361
"CVOE_D",4,1,1,70,"I 60","","",TRUE,"CV","p",781,"cv","I",0,"v","v",TRUE,1,-0.356603355454901
"CVOE_D",4,1,1,71,"J 36","","",FALSE,"CV","q",699,"cv","J",6,"c","c",TRUE,1,-0.449508306412603
"CVOE_D",4,1,1,72,"H 75","","",TRUE,"CV","q",598,"cv","H",5,"c","c",TRUE,1,-0.563940014299529
"CVOE_D",4,1,1,73,"I 50","","",TRUE,"CV","p",759,"cv","I",0,"v","v",TRUE,1,-0.381529074004528
"CVOE_D",4,1,1,74,"E 99","","",FALSE,"CV","p",1423,"cv","E",9,"v","v",TRUE,1,0.370774431311499
"CVOE_D",4,1,1,75,"A 86","","",TRUE,"CV","p",669,"cv","A",6,"v","v",TRUE,1,-0.48349792261664
"CVOE_D",4,1,1,76,"U 48","","",TRUE,"CV","p",771,"cv","U",8,"v","v",TRUE,1,-0.367933227522913
"CVOE_D",4,1,1,77,"E 01","","",FALSE,"CV","p",694,"cv","E",1,"v","v",TRUE,1,-0.455173242446609
"CVOE_D",4,1,1,78,"A 78","","",TRUE,"CV","p",721,"cv","A",8,"v","v",TRUE,1,-0.424582587862976
"CVOE_D",4,1,1,79,"P 60","","",FALSE,"CV","q",698,"cv","P",0,"c","c",TRUE,1,-0.450641293619404
"CVOE_D",4,1,1,80,"E 43","","",FALSE,"CV","p",693,"cv","E",3,"v","v",TRUE,1,-0.456306229653411
"CVOE_D",4,1,1,81,"D 69","","",TRUE,"CV","q",768,"cv","D",9,"c","c",TRUE,1,-0.371332189143317
"CVOE_D",4,1,1,82,"H 11","","",TRUE,"CV","q",603,"cv","H",1,"c","c",TRUE,1,-0.558275078265523
"CVOE_D",4,1,1,83,"P 43","","",TRUE,"CV","q",820,"cv","P",3,"c","c",TRUE,1,-0.312416854389652
"CVOE_D",4,1,1,84,"O 67","","",FALSE,"CV","p",719,"cv","O",7,"v","v",TRUE,1,-0.426848562276578
"CVOE_D",4,1,1,85,"S 91","","",FALSE,"CV","q",743,"cv","S",1,"c","c",TRUE,1,-0.399656869313348
"CVOE_D",4,1,1,86,"J 68","","",TRUE,"CV","q",693,"cv","J",8,"c","c",TRUE,1,-0.456306229653411
"CVOE_D",4,1,1,87,"S 47","","",FALSE,"CV","q",568,"cv","S",7,"c","c",TRUE,1,-0.597929630503566
