"ExperimentName","Subject","Group","Block","Trial","STIM","TASK","Switch","Congruent","CVOE","Response","RT","block_type","letter","number","key2","response2","match2","score2","zRT"
"CVOE updated",1001,1,1,11,"A 71","","",FALSE,"CV","p",4811,"cv","A",1,"v","v",TRUE,1,1.52503963208768
"CVOE updated",1001,1,1,12,"I 66","","",TRUE,"CV","p",1960,"cv","I",6,"v","v",TRUE,1,0.108766765501694
"CVOE updated",1001,1,1,13,"S 30","","",FALSE,"CV","q",918,"cv","S",0,"c","c",TRUE,1,-0.408860848311913
"CVOE updated",1001,1,1,14,"D 20","","",FALSE,"CV","q",790,"cv","D",0,"c","c",TRUE,1,-0.472446582062529
"CVOE updated",1001,1,1,15,"I 31","","",FALSE,"CV","p",874,"cv","I",1,"v","v",TRUE,1,-0.430718444288687
"CVOE updated",1001,1,1,16,"P 16","","",FALSE,"CV","q",700,"cv","P",6,"c","c",TRUE,1,-0.517155301105931
"CVOE updated",1001,1,1,17,"A 49","","",FALSE,"CV","p",1100,"cv","A",9,"v","v",TRUE,1,-0.318449883135256
"CVOE updated",1001,1,1,18,"O 64","","",TRUE,"CV","p",1100,"cv","O",4,"v","v",TRUE,1,-0.318449883135256
"CVOE updated",1001,1,1,19,"D 02","","",FALSE,"CV","q",892,"cv","D",2,"c","c",TRUE,1,-0.421776700480007
"CVOE updated",1001,1,1,20,"P 81","","",TRUE,"CV","q",1116,"cv","P",1,"c","c",TRUE,1,-0.310501666416429
"CVOE updated",1001,1,1,21,"J 58","","",FALSE,"CV","q",828,"cv","J",8,"c","c",TRUE,1,-0.453569567355315
"CVOE updated",1001,1,1,22,"A 22","","",TRUE,"CV","p",679,"cv","A",2,"v","v",TRUE,1,-0.527587335549391
"CVOE updated",1001,1,1,23,"J 72","","",FALSE,"CV","q",999,"cv","J",2,"c","c",TRUE,1,-0.368623001172852
"CVOE updated",1001,1,1,24,"P 91","","",TRUE,"CV","q",1027,"cv","P",1,"c","c",TRUE,1,-0.354713621914904
"CVOE updated",1001,1,1,25,"E 19","","",FALSE,"CV","p",622,"cv","E",9,"v","v",TRUE,1,-0.555902857610212
"CVOE updated",1001,1,1,26,"I 30","","",TRUE,"CV","p",618,"cv","I",0,"v","v",TRUE,1,-0.557889911789919
"CVOE updated",1001,1,1,27,"D 91","","",TRUE,"CV","q",717,"cv","D",1,"c","c",TRUE,1,-0.508710320842177
"CVOE updated",1001,1,1,28,"O 48","","",TRUE,"CV","p",636,"cv","O",8,"v","v",TRUE,1,-0.548948167981239
"CVOE updated",1001,1,1,29,"A 89","","",FALSE,"CV","p",1127,"cv","A",9,"v","v",TRUE,1,-0.305037267422236
"CVOE updated",1001,1,1,30,"U 11","","",FALSE,"CV","p",886,"cv","U",1,"v","v",TRUE,1,-0.424757281749567
"CVOE updated",1001,1,1,31,"I 76","","",TRUE,"CV","p",726,"cv","I",6,"v","v",TRUE,1,-0.504239448937837
"CVOE updated",1001,1,1,32,"U 89","","",FALSE,"CV","p",669,"cv","U",9,"v","v",TRUE,1,-0.532554970998658
"CVOE updated",1001,1,1,33,"D 63","","",TRUE,"CV","q",758,"cv","D",3,"c","c",TRUE,1,-0.488343015500183
"CVOE updated",1001,1,1,34,"H 70","","",FALSE,"CV","q",1052,"cv","H",0,"c","c",TRUE,1,-0.342294533291737
"CVOE updated",1001,1,1,35,"D 48","","",FALSE,"CV","q",591,"cv","D",8,"c","c",TRUE,1,-0.57130252750294
"CVOE updated",1001,1,1,36,"P 56","","",FALSE,"CV","q",635,"cv","P",6,"c","c",TRUE,1,-0.549444931526165
"CVOE updated",1001,1,1,37,"O 77","","",FALSE,"CV","p",645,"cv","O",7,"v","v",TRUE,1,-0.544477296076899
"CVOE updated",1001,1,1,38,"P 42","","",FALSE,"CV","q",776,"cv","P",2,"c","c",TRUE,1,-0.479401271691503
"CVOE updated",1001,1,1,39,"H 22","","",FALSE,"CV","q",668,"cv","H",2,"c","c",TRUE,1,-0.533051734543585
"CVOE updated",1001,1,1,40,"E 42","","",TRUE,"CV","p",574,"cv","E",2,"v","v",TRUE,1,-0.579747507766693
"CVOE updated",1001,1,1,41,"J 28","","",FALSE,"CV","q",690,"cv","J",8,"c","c",TRUE,1,-0.522122936555198
"CVOE updated",1001,1,1,42,"E 95","","",FALSE,"CV","p",787,"cv","E",5,"v","v",TRUE,1,-0.473936872697309
"CVOE updated",1001,1,1,43,"S 63","","",TRUE,"CV","q",1031,"cv","S",3,"c","c",TRUE,1,-0.352726567735198
"CVOE updated",1001,1,1,44,"H 50","","",FALSE,"CV","q",602,"cv","H",0,"c","c",TRUE,1,-0.565838128508746
"CVOE updated",1001,1,1,45,"S 33","","",TRUE,"CV","q",646,"cv","S",3,"c","c",TRUE,1,-0.543980532531972
"CVOE updated",1001,1,1,46,"P 57","","",TRUE,"CV","q",632,"cv","P",7,"c","c",TRUE,1,-0.550935222160945
"CVOE updated",1001,1,1,47,"E 23","","",FALSE,"CV","p",699,"cv","E",3,"v","v",TRUE,1,-0.517652064650857
"CVOE updated",1001,1,1,48,"S 61","","",TRUE,"CV","q",763,"cv","S",1,"c","c",TRUE,1,-0.48585919777555
"CVOE updated",1001,1,1,49,"U 67","","",FALSE,"CV","p",560,"cv","U",7,"v","v",TRUE,1,-0.586702197395667
"CVOE updated",1001,1,1,50,"H 32","","",FALSE,"CV","q",685,"cv","H",2,"c","c",TRUE,1,-0.524606754279831
"CVOE updated",1001,1,1,51,"U 50","","",TRUE,"CV","p",502,"cv","U",0,"v","v",TRUE,1,-0.615514483001415
"CVOE updated",1001,1,1,52,"O 49","","",FALSE,"CV","p",630,"cv","O",9,"v","v",TRUE,1,-0.551928749250799
"CVOE updated",1001,1,1,53,"U 32","","",TRUE,"CV","p",609,"cv","U",2,"v","v",TRUE,1,-0.562360783694259
"CVOE updated",1001,1,1,54,"J 78","","",FALSE,"CV","q",716,"cv","J",8,"c","c",TRUE,1,-0.509207084387104
"CVOE updated",1001,1,1,55,"S 54","","",FALSE,"CV","q",635,"cv","S",4,"c","c",TRUE,1,-0.549444931526165
"CVOE updated",1001,1,1,56,"J 27","","",TRUE,"CV","q",566,"cv","J",7,"c","c",TRUE,1,-0.583721616126107
"CVOE updated",1001,1,1,57,"S 06","","",FALSE,"CV","q",635,"cv","S",6,"c","c",TRUE,1,-0.549444931526165
"CVOE updated",1001,1,1,58,"D 67","","",TRUE,"CV","q",766,"cv","D",7,"c","c",TRUE,1,-0.48436890714077
"CVOE updated",1001,1,1,59,"A 79","","",FALSE,"CV","p",771,"cv","A",9,"v","v",TRUE,1,-0.481885089416136
"CVOE updated",1001,1,1,60,"S 52","","",FALSE,"CV","q",768,"cv","S",2,"c","c",TRUE,1,-0.483375380050916
"CVOE updated",1001,1,1,61,"U 16","","",TRUE,"CV","p",702,"cv","U",6,"v","v",TRUE,1,-0.516161774016077
"CVOE updated",1001,1,1,62,"O 82","","",TRUE,"CV","p",590,"cv","O",2,"v","v",TRUE,1,-0.571799291047866
"CVOE updated",1001,1,1,63,"H 87","","",TRUE,"CV","q",722,"cv","H",7,"c","c",TRUE,1,-0.506226503117544
"CVOE updated",1001,1,1,64,"I 32","","",TRUE,"CV","p",1330,"cv","I",2,"v","v",TRUE,1,-0.204194267802118
"CVOE updated",1001,1,1,65,"U 37","","",FALSE,"CV","p",833,"cv","U",7,"v","v",TRUE,1,-0.451085749630682
"CVOE updated",1001,1,1,66,"I 42","","",TRUE,"CV","p",620,"cv","I",2,"v","v",TRUE,1,-0.556896384700066
"CVOE updated",1001,1,1,67,"D 65","","",TRUE,"CV","q",679,"cv","D",5,"c","c",TRUE,1,-0.527587335549391
"CVOE updated",1001,1,1,68,"U 77","","",FALSE,"CV","p",743,"cv","U",7,"v","v",TRUE,1,-0.495794468674083
"CVOE updated",1001,1,1,69,"E 12","","",TRUE,"CV","p",1326,"cv","E",2,"v","v",TRUE,1,-0.206181321981825
"CVOE updated",1001,1,1,70,"I 60","","",TRUE,"CV","p",565,"cv","I",0,"v","v",TRUE,1,-0.584218379671034
"CVOE updated",1001,1,1,71,"J 36","","",FALSE,"CV","q",698,"cv","J",6,"c","c",TRUE,1,-0.518148828195784
"CVOE updated",1001,1,1,72,"H 75","","",TRUE,"CV","q",778,"cv","H",5,"c","c",TRUE,1,-0.478407744601649
"CVOE updated",1001,1,1,73,"I 50","","",TRUE,"CV","p",742,"cv","I",0,"v","v",TRUE,1,-0.49629123221901
"CVOE updated",1001,1,1,74,"E 99","","",FALSE,"CV","p",725,"cv","E",9,"v","v",TRUE,1,-0.504736212482764
"CVOE updated",1001,1,1,75,"A 86","","",TRUE,"CV","p",1019,"cv","A",6,"v","v",TRUE,1,-0.358687730274318
"CVOE updated",1001,1,1,76,"U 48","","",TRUE,"CV","p",631,"cv","U",8,"v","v",TRUE,1,-0.551431985705872
"CVOE updated",1001,1,1,77,"E 01","","",FALSE,"CV","p",649,"cv","E",1,"v","v",TRUE,1,-0.542490241897192
"CVOE updated",1001,1,1,78,"A 78","","",TRUE,"CV","p",699,"cv","A",8,"v","v",TRUE,1,-0.517652064650857
"CVOE updated",1001,1,1,79,"P 60","","",FALSE,"CV","q",803,"cv","P",0,"c","c",TRUE,1,-0.465988655978482
"CVOE updated",1001,1,1,80,"E 43","","",FALSE,"CV","p",975,"cv","E",3,"v","v",TRUE,1,-0.380545326251092
"CVOE updated",1001,1,1,81,"D 69","","",TRUE,"CV","q",924,"cv","D",9,"c","c",TRUE,1,-0.405880267042353
"CVOE updated",1001,1,1,82,"H 11","","",TRUE,"CV","q",612,"cv","H",1,"c","c",TRUE,1,-0.560870493059479
"CVOE updated",1001,1,1,83,"P 43","","",TRUE,"CV","q",543,"cv","P",3,"c","c",TRUE,1,-0.595147177659421
"CVOE updated",1001,1,1,84,"O 67","","",FALSE,"CV","p",613,"cv","O",7,"v","v",TRUE,1,-0.560373729514553
"CVOE updated",1001,1,1,85,"S 91","","",FALSE,"CV","q",728,"cv","S",1,"c","c",TRUE,1,-0.503245921847984
"CVOE updated",1001,1,1,86,"J 68","","",TRUE,"CV","q",671,"cv","J",8,"c","c",TRUE,1,-0.531561443908805
"CVOE updated",1001,1,1,87,"S 47","","",FALSE,"CV","q",624,"cv","S",7,"c","c",TRUE,1,-0.554909330520359
"CVOE updated",1001,1,1,88,"I 81","","",TRUE,"CV","p",659,"cv","I",1,"v","v",TRUE,1,-0.537522606447925
"CVOE updated",1001,1,1,89,"J 39","","",FALSE,"CV","q",805,"cv","J",9,"c","c",TRUE,1,-0.464995128888629
"CVOE updated",1001,1,1,90,"A 11","","",TRUE,"CV","p",793,"cv","A",1,"v","v",TRUE,1,-0.470956291427749
"CVOE updated",1001,1,1,91,"O 76","","",FALSE,"CV","p",541,"cv","O",6,"v","v",TRUE,1,-0.596140704749274
"CVOE updated",1001,1,1,92,"A 62","","",FALSE,"CV","p",547,"cv","A",2,"v","v",TRUE,1,-0.593160123479714
"CVOE updated",1001,1,1,93,"O 27","","",TRUE,"CV","p",545,"cv","O",7,"v","v",TRUE,1,-0.594153650569567
"CVOE updated",1001,1,1,94,"E 66","","",FALSE,"CV","p",607,"cv","E",6,"v","v",TRUE,1,-0.563354310784113
"CVOE updated",1001,1,1,95,"J 62","","",TRUE,"CV","q",531,"cv","J",2,"c","c",TRUE,1,-0.601108340198541
"CVOE updated",1001,1,1,96,"H 72","","",TRUE,"CV","q",546,"cv","H",2,"c","c",TRUE,1,-0.59365688702464
"CVOE updated",1001,1,1,97,"E 49","","",TRUE,"CV","p",680,"cv","E",9,"v","v",TRUE,1,-0.527090572004465
"CVOE updated",1001,1,1,98,"D 52","","",TRUE,"CV","q",800,"cv","D",2,"c","c",TRUE,1,-0.467478946613262
"CVOE updated",1001,1,1,99,"H 62","","",TRUE,"CV","q",516,"cv","H",2,"c","c",TRUE,1,-0.608559793372441
"CVOE updated",1001,1,1,100,"I 11","","",TRUE,"CV","p",660,"cv","I",1,"v","v",TRUE,1,-0.537025842902998
"CVOE updated",1001,1,1,101,"A 98","","",FALSE,"CV","p",1221,"cv","A",8,"v","v",TRUE,1,-0.258341494199127
"CVOE updated",1001,1,1,102,"H 29","","",FALSE,"CV","q",776,"cv","H",9,"c","c",TRUE,1,-0.479401271691503
"CVOE updated",1001,1,1,103,"E 83","","",TRUE,"CV","p",773,"cv","E",3,"v","v",TRUE,1,-0.480891562326283
"CVOE updated",1001,1,1,104,"D 43","","",FALSE,"CV","q",627,"cv","D",3,"c","c",TRUE,1,-0.553419039885579
"CVOE updated",1001,1,1,105,"P 45","","",TRUE,"CV","q",1253,"cv","P",5,"c","c",TRUE,1,-0.242445060761473
"CVOE updated",1001,1,1,106,"J 17","","",TRUE,"CV","q",1015,"cv","J",7,"c","c",TRUE,1,-0.360674784454025
"CVOE_C",2003,1,2,14,"D 20","","",FALSE,"CV","q",6059,"cv","D",0,"c","c",TRUE,1,2.14500053615618
"CVOE_C",2003,1,2,15,"I 31","","",FALSE,"CV","p",7456,"cv","I",1,"v","v",TRUE,1,2.83897920841876
"CVOE_C",2003,1,2,16,"P 16","","",FALSE,"CV","q",3365,"cv","P",6,"c","c",TRUE,1,0.806719546123688
"CVOE_C",2003,1,2,17,"A 49","","",FALSE,"CV","p",4379,"cv","A",9,"v","v",TRUE,1,1.31043778067935
"CVOE_C",2003,1,2,19,"D 02","","",FALSE,"CV","q",4660,"cv","D",2,"c","c",TRUE,1,1.45002833680375
"CVOE_C",2003,1,2,20,"P 81","","",TRUE,"CV","q",7495,"cv","P",1,"c","c",TRUE,1,2.8583529866709
"CVOE_C",2003,1,2,21,"J 58","","",FALSE,"CV","q",1930,"cv","J",8,"c","c",TRUE,1,0.0938638591538935
"CVOE_C",2003,1,2,22,"A 22","","",TRUE,"CV","p",1737,"cv","A",2,"v","v",TRUE,1,-0.00201150501695702
"CVOE_C",2003,1,2,23,"J 72","","",FALSE,"CV","q",1793,"cv","J",2,"c","c",TRUE,1,0.0258072534989374
"CVOE_C",2003,1,2,24,"P 91","","",TRUE,"CV","q",1853,"cv","P",1,"c","c",TRUE,1,0.0556130661945386
"CVOE_C",2003,1,2,25,"E 19","","",FALSE,"CV","p",4512,"cv","E",9,"v","v",TRUE,1,1.3765073321546
"CVOE_C",2003,1,2,27,"D 91","","",TRUE,"CV","q",1259,"cv","D",1,"c","c",TRUE,1,-0.239464479491913
"CVOE_C",2003,1,2,28,"O 48","","",TRUE,"CV","p",3972,"cv","O",8,"v","v",TRUE,1,1.10825501789419
"CVOE_C",2003,1,2,29,"A 89","","",FALSE,"CV","p",1315,"cv","A",9,"v","v",TRUE,1,-0.211645720976019
"CVOE_C",2003,1,2,30,"U 11","","",FALSE,"CV","p",2275,"cv","U",1,"v","v",TRUE,1,0.2652472821536
"CVOE_C",2003,1,2,31,"I 76","","",TRUE,"CV","p",6389,"cv","I",6,"v","v",TRUE,1,2.30893250598199
"CVOE_C",2003,1,2,32,"U 89","","",FALSE,"CV","q",2796,"cv","U",9,"v","c",FALSE,0,0.524061089060404
"CVOE_C",2003,1,2,33,"D 63","","",TRUE,"CV","q",2449,"cv","D",3,"c","c",TRUE,1,0.351684138970844
"CVOE_C",2003,1,2,34,"H 70","","",FALSE,"CV","q",1572,"cv","H",0,"c","c",TRUE,1,-0.0839774899298603
"CVOE_C",2003,1,2,35,"D 48","","",FALSE,"CV","q",1426,"cv","D",8,"c","c",TRUE,1,-0.156504967489156
"CVOE_C",2003,1,2,36,"P 56","","",FALSE,"CV","q",2693,"cv","P",6,"c","c",TRUE,1,0.472894443932955
"CVOE_C",2003,1,2,37,"O 77","","",FALSE,"CV","p",2982,"cv","O",7,"v","v",TRUE,1,0.616459108416768
"CVOE_C",2003,1,2,38,"P 42","","",FALSE,"CV","q",1972,"cv","P",2,"c","c",TRUE,1,0.114727928040814
"CVOE_C",2003,1,2,40,"E 42","","",TRUE,"CV","p",2898,"cv","E",2,"v","v",TRUE,1,0.574730970642926
"CVOE_C",2003,1,2,41,"J 28","","",FALSE,"CV","q",3203,"cv","J",8,"c","c",TRUE,1,0.726243851845565
"CVOE_C",2003,1,2,42,"E 95","","",FALSE,"CV","p",4152,"cv","E",5,"v","v",TRUE,1,1.19767245598099
"CVOE_C",2003,1,2,43,"S 63","","",TRUE,"CV","q",1904,"cv","S",3,"c","c",TRUE,1,0.0809480069857996
"CVOE_C",2003,1,2,44,"H 50","","",FALSE,"CV","q",1361,"cv","H",0,"c","c",TRUE,1,-0.188794597909391
"CVOE_C",2003,1,2,45,"S 33","","",TRUE,"CV","q",1086,"cv","S",3,"c","c",TRUE,1,-0.32540457276423
"CVOE_C",2003,1,2,46,"P 57","","",TRUE,"CV","q",1287,"cv","P",7,"c","c",TRUE,1,-0.225555100233966
"CVOE_C",2003,1,2,47,"E 23","","",FALSE,"CV","p",2384,"cv","E",3,"v","v",TRUE,1,0.319394508550609
"CVOE_C",2003,1,2,48,"S 61","","",TRUE,"CV","q",2086,"cv","S",1,"c","c",TRUE,1,0.171358972162457
"CVOE_C",2003,1,2,49,"U 67","","",FALSE,"CV","p",2423,"cv","U",7,"v","v",TRUE,1,0.33876828680275
"CVOE_C",2003,1,2,50,"H 32","","",FALSE,"CV","q",2699,"cv","H",2,"c","c",TRUE,1,0.475875025202515
"CVOE_C",2003,1,2,51,"U 50","","",TRUE,"CV","q",1813,"cv","U",0,"v","c",FALSE,0,0.0357425243974712
"CVOE_C",2003,1,2,52,"O 49","","",FALSE,"CV","p",5305,"cv","O",9,"v","v",TRUE,1,1.77044082328146
"CVOE_C",2003,1,2,54,"J 78","","",FALSE,"CV","q",1864,"cv","J",8,"c","c",TRUE,1,0.0610774651887322
"CVOE_C",2003,1,2,55,"S 54","","",FALSE,"CV","q",1978,"cv","S",4,"c","c",TRUE,1,0.117708509310374
"CVOE_C",2003,1,2,56,"J 27","","",TRUE,"CV","q",1615,"cv","J",7,"c","c",TRUE,1,-0.0626166574980128
"CVOE_C",2003,1,2,57,"S 06","","",FALSE,"CV","q",1483,"cv","S",6,"c","c",TRUE,1,-0.128189445428335
"CVOE_C",2003,1,2,58,"D 67","","",TRUE,"CV","q",1660,"cv","D",7,"c","c",TRUE,1,-0.0402622979763119
"CVOE_C",2003,1,2,59,"A 79","","",FALSE,"CV","p",1798,"cv","A",9,"v","v",TRUE,1,0.0282910712235709
"CVOE_C",2003,1,2,60,"S 52","","",FALSE,"CV","q",1283,"cv","S",2,"c","c",TRUE,1,-0.227542154413673
"CVOE_C",2003,1,2,61,"U 16","","",TRUE,"CV","q",1883,"cv","U",6,"v","c",FALSE,0,0.0705159725423392
"CVOE_C",2003,1,2,62,"O 82","","",TRUE,"CV","p",2933,"cv","O",2,"v","v",TRUE,1,0.59211769471536
"CVOE_C",2003,1,2,63,"H 87","","",TRUE,"CV","q",1741,"cv","H",7,"c","c",TRUE,1,-2.44508372502732e-05
"CVOE_C",2003,1,2,65,"U 37","","",FALSE,"CV","q",2141,"cv","U",7,"v","c",FALSE,0,0.198680967133424
"CVOE_C",2003,1,2,66,"I 42","","",TRUE,"CV","p",2524,"cv","I",2,"v","v",TRUE,1,0.388941404840345
"CVOE_C",2003,1,2,67,"D 65","","",TRUE,"CV","q",3244,"cv","D",5,"c","c",TRUE,1,0.746611157187559
"CVOE_C",2003,1,2,68,"U 77","","",FALSE,"CV","p",2288,"cv","U",7,"v","v",TRUE,1,0.271705208237647
"CVOE_C",2003,1,2,70,"I 60","","",TRUE,"CV","p",7080,"cv","I",0,"v","v",TRUE,1,2.65219611552633
"CVOE_C",2003,1,2,71,"J 36","","",FALSE,"CV","q",2132,"cv","J",6,"c","c",TRUE,1,0.194210095229084
"CVOE_C",2003,1,2,72,"H 75","","",TRUE,"CV","q",1979,"cv","H",5,"c","c",TRUE,1,0.118205272855301
"CVOE_C",2003,1,2,73,"I 50","","",TRUE,"CV","p",2232,"cv","I",0,"v","v",TRUE,1,0.243886449721753
"CVOE_C",2003,1,2,74,"E 99","","",FALSE,"CV","p",6068,"cv","E",9,"v","v",TRUE,1,2.14947140806052
"CVOE_C",2003,1,2,75,"A 86","","",TRUE,"CV","p",2272,"cv","A",6,"v","v",TRUE,1,0.26375699151882
"CVOE_C",2003,1,2,76,"U 48","","",TRUE,"CV","p",3234,"cv","U",8,"v","v",TRUE,1,0.741643521738293
"CVOE_C",2003,1,2,77,"E 01","","",FALSE,"CV","p",6230,"cv","E",1,"v","v",TRUE,1,2.22994710233864
"CVOE_C",2003,1,2,78,"A 78","","",TRUE,"CV","p",2644,"cv","A",8,"v","v",TRUE,1,0.448553030231548
"CVOE_C",2003,1,2,79,"P 60","","",FALSE,"CV","q",4191,"cv","P",0,"c","c",TRUE,1,1.21704623423313
"CVOE_C",2003,1,2,80,"E 43","","",FALSE,"CV","p",4877,"cv","E",3,"v","v",TRUE,1,1.55782602605284
"CVOE_C",2003,1,2,81,"D 69","","",TRUE,"CV","q",3680,"cv","D",9,"c","c",TRUE,1,0.963200062775595
"CVOE_C",2003,1,2,82,"H 11","","",TRUE,"CV","q",1386,"cv","H",1,"c","c",TRUE,1,-0.176375509286224
"CVOE_C",2003,1,2,83,"P 43","","",TRUE,"CV","q",1351,"cv","P",3,"c","c",TRUE,1,-0.193762233358658
"CVOE_C",2003,1,2,84,"O 67","","",FALSE,"CV","p",3565,"cv","O",7,"v","v",TRUE,1,0.906072255109026
"CVOE_C",2003,1,2,85,"S 91","","",FALSE,"CV","q",1756,"cv","S",1,"c","c",TRUE,1,0.00742700233665002
"CVOE_C",2003,1,2,86,"J 68","","",TRUE,"CV","q",1259,"cv","J",8,"c","c",TRUE,1,-0.239464479491913
"CVOE_C",2003,1,2,87,"S 47","","",FALSE,"CV","q",1452,"cv","S",7,"c","c",TRUE,1,-0.143589115321063
"CVOE_C",2003,1,2,88,"I 81","","",TRUE,"CV","p",2511,"cv","I",1,"v","v",TRUE,1,0.382483478756298
"CVOE_C",2003,1,2,89,"J 39","","",FALSE,"CV","q",2263,"cv","J",9,"c","c",TRUE,1,0.25928611961448
"CVOE_C",2003,1,2,90,"A 11","","",TRUE,"CV","p",3945,"cv","A",1,"v","v",TRUE,1,1.09484240218117
"CVOE_C",2003,1,2,91,"O 76","","",FALSE,"CV","p",3041,"cv","O",6,"v","v",TRUE,1,0.645768157567442
"CVOE_C",2003,1,2,92,"A 62","","",FALSE,"CV","p",4052,"cv","A",2,"v","v",TRUE,1,1.14799610148832
"CVOE_C",2003,1,2,93,"O 27","","",TRUE,"CV","p",5488,"cv","O",7,"v","v",TRUE,1,1.86134855200304
"CVOE_C",2003,1,2,94,"E 66","","",FALSE,"CV","p",4084,"cv","E",6,"v","v",TRUE,1,1.16389253492598
"CVOE_C",2003,1,2,95,"J 62","","",TRUE,"CV","q",1814,"cv","J",2,"c","c",TRUE,1,0.0362392879423978
"CVOE_C",2003,1,2,96,"H 72","","",TRUE,"CV","q",1730,"cv","H",2,"c","c",TRUE,1,-0.00548884983144382
"CVOE_C",2003,1,2,97,"E 49","","",TRUE,"CV","p",2281,"cv","E",9,"v","v",TRUE,1,0.26822786342316
"CVOE_C",2003,1,2,98,"D 52","","",TRUE,"CV","q",1955,"cv","D",2,"c","c",TRUE,1,0.106282947777061
"CVOE_C",2003,1,2,99,"H 62","","",TRUE,"CV","q",1697,"cv","H",2,"c","c",TRUE,1,-0.0218820468140245
"CVOE_C",2003,1,2,100,"I 11","","",TRUE,"CV","p",2418,"cv","I",1,"v","v",TRUE,1,0.336284469078116
"CVOE_C",2003,1,2,101,"A 98","","",FALSE,"CV","p",2798,"cv","A",8,"v","v",TRUE,1,0.525054616150257
"CVOE_C",2003,1,2,102,"H 29","","",FALSE,"CV","q",4971,"cv","H",9,"c","c",TRUE,1,1.60452179927595
"CVOE_C",2003,1,2,103,"E 83","","",TRUE,"CV","p",3643,"cv","E",3,"v","v",TRUE,1,0.944819811613307
"CVOE_C",2003,1,2,104,"D 43","","",FALSE,"CV","q",2207,"cv","D",3,"c","c",TRUE,1,0.231467361098586
"CVOE_C",2003,1,2,105,"P 45","","",TRUE,"CV","q",1323,"cv","P",5,"c","c",TRUE,1,-0.207671612616605
"CVOE_C",2003,1,2,106,"J 17","","",TRUE,"CV","q",1619,"cv","J",7,"c","c",TRUE,1,-0.060629603318306
"CVOE updated",2001,1,1,11,"A 71","","",FALSE,"CV","p",4796,"cv","A",1,"v","v",TRUE,1,1.51758817891378
"CVOE updated",2001,1,1,12,"I 66","","",TRUE,"CV","p",1007,"cv","I",6,"v","v",TRUE,1,-0.364648892813438
"CVOE updated",2001,1,1,13,"S 30","","",FALSE,"CV","q",1346,"cv","S",0,"c","c",TRUE,1,-0.196246051083291
"CVOE updated",2001,1,1,14,"D 20","","",FALSE,"CV","q",1432,"cv","D",0,"c","c",TRUE,1,-0.153524386219596
"CVOE updated",2001,1,1,15,"I 31","","",FALSE,"CV","p",1395,"cv","I",1,"v","v",TRUE,1,-0.171904637381884
"CVOE updated",2001,1,1,16,"P 16","","",FALSE,"CV","q",1118,"cv","P",6,"c","c",TRUE,1,-0.309508139326576
"CVOE updated",2001,1,1,17,"A 49","","",FALSE,"CV","p",1321,"cv","A",9,"v","v",TRUE,1,-0.208665139706459
"CVOE updated",2001,1,1,18,"O 64","","",TRUE,"CV","p",1105,"cv","O",4,"v","v",TRUE,1,-0.315966065410623
"CVOE updated",2001,1,1,19,"D 02","","",FALSE,"CV","q",932,"cv","D",2,"c","c",TRUE,1,-0.40190615868294
"CVOE updated",2001,1,1,20,"P 81","","",TRUE,"CV","q",1202,"cv","P",1,"c","c",TRUE,1,-0.267780001552734
"CVOE updated",2001,1,1,21,"J 58","","",FALSE,"CV","q",1125,"cv","J",8,"c","c",TRUE,1,-0.306030794512089
"CVOE updated",2001,1,1,22,"A 22","","",TRUE,"CV","p",1484,"cv","A",2,"v","v",TRUE,1,-0.127692681883409
"CVOE updated",2001,1,1,23,"J 72","","",FALSE,"CV","q",2416,"cv","J",2,"c","c",TRUE,1,0.335290941988263
"CVOE updated",2001,1,1,24,"P 91","","",TRUE,"CV","q",1316,"cv","P",1,"c","c",TRUE,1,-0.211148957431092
"CVOE updated",2001,1,1,25,"E 19","","",FALSE,"CV","p",1122,"cv","E",9,"v","v",TRUE,1,-0.307521085146869
"CVOE updated",2001,1,1,26,"I 30","","",TRUE,"CV","p",1207,"cv","I",0,"v","v",TRUE,1,-0.265296183828101
"CVOE updated",2001,1,1,27,"D 91","","",TRUE,"CV","q",974,"cv","D",1,"c","c",TRUE,1,-0.381042089796019
"CVOE updated",2001,1,1,28,"O 48","","",TRUE,"CV","p",1406,"cv","O",8,"v","v",TRUE,1,-0.16644023838769
"CVOE updated",2001,1,1,29,"A 89","","",FALSE,"CV","p",1363,"cv","A",9,"v","v",TRUE,1,-0.187801070819538
"CVOE updated",2001,1,1,30,"U 11","","",FALSE,"CV","p",1158,"cv","U",1,"v","v",TRUE,1,-0.289637597529508
"CVOE updated",2001,1,1,31,"I 76","","",TRUE,"CV","p",1014,"cv","I",6,"v","v",TRUE,1,-0.361171547998951
"CVOE updated",2001,1,1,32,"U 89","","",FALSE,"CV","p",768,"cv","U",9,"v","v",TRUE,1,-0.483375380050916
"CVOE updated",2001,1,1,33,"D 63","","",TRUE,"CV","q",948,"cv","D",3,"c","c",TRUE,1,-0.393957941964113
"CVOE updated",2001,1,1,34,"H 70","","",FALSE,"CV","q",967,"cv","H",0,"c","c",TRUE,1,-0.384519434610506
"CVOE updated",2001,1,1,35,"D 48","","",FALSE,"CV","q",1163,"cv","D",8,"c","c",TRUE,1,-0.287153779804875
"CVOE updated",2001,1,1,36,"P 56","","",FALSE,"CV","q",1590,"cv","P",6,"c","c",TRUE,1,-0.0750357461211799
"CVOE updated",2001,1,1,37,"O 77","","",FALSE,"CV","p",972,"cv","O",7,"v","v",TRUE,1,-0.382035616885872
"CVOE updated",2001,1,1,38,"P 42","","",FALSE,"CV","q",1130,"cv","P",2,"c","c",TRUE,1,-0.303546976787456
"CVOE updated",2001,1,1,39,"H 22","","",FALSE,"CV","q",1120,"cv","H",2,"c","c",TRUE,1,-0.308514612236723
"CVOE updated",2001,1,1,40,"E 42","","",TRUE,"CV","p",1126,"cv","E",2,"v","v",TRUE,1,-0.305534030967162
"CVOE updated",2001,1,1,41,"J 28","","",FALSE,"CV","q",1312,"cv","J",8,"c","c",TRUE,1,-0.213136011610799
"CVOE updated",2001,1,1,42,"E 95","","",FALSE,"CV","p",1354,"cv","E",5,"v","v",TRUE,1,-0.192271942723878
"CVOE updated",2001,1,1,43,"S 63","","",TRUE,"CV","q",969,"cv","S",3,"c","c",TRUE,1,-0.383525907520652
"CVOE updated",2001,1,1,44,"H 50","","",FALSE,"CV","q",1009,"cv","H",0,"c","c",TRUE,1,-0.363655365723585
"CVOE updated",2001,1,1,45,"S 33","","",TRUE,"CV","q",1155,"cv","S",3,"c","c",TRUE,1,-0.291127888164289
"CVOE updated",2001,1,1,46,"P 57","","",TRUE,"CV","q",1247,"cv","P",7,"c","c",TRUE,1,-0.245425642031033
"CVOE updated",2001,1,1,47,"E 23","","",FALSE,"CV","p",1002,"cv","E",3,"v","v",TRUE,1,-0.367132710538072
"CVOE updated",2001,1,1,48,"S 61","","",TRUE,"CV","q",929,"cv","S",1,"c","c",TRUE,1,-0.40339644931772
"CVOE updated",2001,1,1,49,"U 67","","",FALSE,"CV","p",1199,"cv","U",7,"v","v",TRUE,1,-0.269270292187514
"CVOE updated",2001,1,1,50,"H 32","","",FALSE,"CV","q",848,"cv","H",2,"c","c",TRUE,1,-0.443634296456781
"CVOE updated",2001,1,1,51,"U 50","","",TRUE,"CV","p",1083,"cv","U",0,"v","v",TRUE,1,-0.32689486339901
"CVOE updated",2001,1,1,52,"O 49","","",FALSE,"CV","p",967,"cv","O",9,"v","v",TRUE,1,-0.384519434610506
"CVOE updated",2001,1,1,53,"U 32","","",TRUE,"CV","p",889,"cv","U",2,"v","v",TRUE,1,-0.423266991114787
"CVOE updated",2001,1,1,54,"J 78","","",FALSE,"CV","q",1639,"cv","J",8,"c","c",TRUE,1,-0.0506943324197723
"CVOE updated",2001,1,1,55,"S 54","","",FALSE,"CV","p",1284,"cv","S",4,"c","v",FALSE,0,-0.227045390868746
"CVOE updated",2001,1,1,56,"J 27","","",TRUE,"CV","q",4611,"cv","J",7,"c","c",TRUE,1,1.42568692310234
"CVOE updated",2001,1,1,57,"S 06","","",FALSE,"CV","q",1201,"cv","S",6,"c","c",TRUE,1,-0.268276765097661
"CVOE updated",2001,1,1,58,"D 67","","",TRUE,"CV","q",969,"cv","D",7,"c","c",TRUE,1,-0.383525907520652
"CVOE updated",2001,1,1,59,"A 79","","",FALSE,"CV","p",1087,"cv","A",9,"v","v",TRUE,1,-0.324907809219303
"CVOE updated",2001,1,1,60,"S 52","","",FALSE,"CV","q",853,"cv","S",2,"c","c",TRUE,1,-0.441150478732148
"CVOE updated",2001,1,1,61,"U 16","","",TRUE,"CV","p",1009,"cv","U",6,"v","v",TRUE,1,-0.363655365723585
"CVOE updated",2001,1,1,62,"O 82","","",TRUE,"CV","p",898,"cv","O",2,"v","v",TRUE,1,-0.418796119210447
"CVOE updated",2001,1,1,63,"H 87","","",TRUE,"CV","q",809,"cv","H",7,"c","c",TRUE,1,-0.463008074708922
"CVOE updated",2001,1,1,64,"I 32","","",TRUE,"CV","p",961,"cv","I",2,"v","v",TRUE,1,-0.387500015880066
"CVOE updated",2001,1,1,65,"U 37","","",FALSE,"CV","p",1157,"cv","U",7,"v","v",TRUE,1,-0.290134361074435
"CVOE updated",2001,1,1,66,"I 42","","",TRUE,"CV","p",895,"cv","I",2,"v","v",TRUE,1,-0.420286409845227
"CVOE updated",2001,1,1,67,"D 65","","",TRUE,"CV","p",1002,"cv","D",5,"c","v",FALSE,0,-0.367132710538072
"CVOE updated",2001,1,1,68,"U 77","","",FALSE,"CV","q",264,"cv","U",7,"v","c",FALSE,0,-0.733744206693966
"CVOE updated",2001,1,1,69,"E 12","","",TRUE,"CV","q",1358,"cv","E",2,"v","c",FALSE,0,-0.190284888544171
"CVOE updated",2001,1,1,70,"I 60","","",TRUE,"CV","p",1601,"cv","I",0,"v","v",TRUE,1,-0.0695713471269864
"CVOE updated",2001,1,1,71,"J 36","","",FALSE,"CV","p",4726,"cv","J",6,"c","v",FALSE,0,1.48281473076891
"CVOE updated",2001,1,1,72,"H 75","","",TRUE,"CV","q",1122,"cv","H",5,"c","c",TRUE,1,-0.307521085146869
"CVOE updated",2001,1,1,73,"I 50","","",TRUE,"CV","p",1051,"cv","I",0,"v","v",TRUE,1,-0.342791296836664
"CVOE updated",2001,1,1,74,"E 99","","",FALSE,"CV","p",1198,"cv","E",9,"v","v",TRUE,1,-0.269767055732441
"CVOE updated",2001,1,1,75,"A 86","","",TRUE,"CV","p",1160,"cv","A",6,"v","v",TRUE,1,-0.288644070439655
"CVOE updated",2001,1,1,76,"U 48","","",TRUE,"CV","p",921,"cv","U",8,"v","v",TRUE,1,-0.407370557677133
"CVOE updated",2001,1,1,77,"E 01","","",FALSE,"CV","p",1207,"cv","E",1,"v","v",TRUE,1,-0.265296183828101
"CVOE updated",2001,1,1,78,"A 78","","",TRUE,"CV","p",777,"cv","A",8,"v","v",TRUE,1,-0.478904508146576
"CVOE updated",2001,1,1,79,"P 60","","",FALSE,"CV","q",1041,"cv","P",0,"c","c",TRUE,1,-0.347758932285931
"CVOE updated",2001,1,1,80,"E 43","","",FALSE,"CV","p",974,"cv","E",3,"v","v",TRUE,1,-0.381042089796019
"CVOE updated",2001,1,1,81,"D 69","","",TRUE,"CV","q",1036,"cv","D",9,"c","c",TRUE,1,-0.350242750010564
"CVOE updated",2001,1,1,82,"H 11","","",TRUE,"CV","q",1010,"cv","H",1,"c","c",TRUE,1,-0.363158602178658
"CVOE updated",2001,1,1,83,"P 43","","",TRUE,"CV","q",960,"cv","P",3,"c","c",TRUE,1,-0.387996779424992
"CVOE updated",2001,1,1,84,"O 67","","",FALSE,"CV","p",843,"cv","O",7,"v","v",TRUE,1,-0.446118114181415
"CVOE updated",2001,1,1,85,"S 91","","",FALSE,"CV","q",806,"cv","S",1,"c","c",TRUE,1,-0.464498365343702
"CVOE updated",2001,1,1,86,"J 68","","",TRUE,"CV","q",1520,"cv","J",8,"c","c",TRUE,1,-0.109809194266048
"CVOE updated",2001,1,1,87,"S 47","","",FALSE,"CV","q",1008,"cv","S",7,"c","c",TRUE,1,-0.364152129268511
"CVOE updated",2001,1,1,88,"I 81","","",TRUE,"CV","p",998,"cv","I",1,"v","v",TRUE,1,-0.369119764717778
"CVOE updated",2001,1,1,89,"J 39","","",FALSE,"CV","q",1553,"cv","J",9,"c","c",TRUE,1,-0.0934159972834673
"CVOE updated",2001,1,1,90,"A 11","","",TRUE,"CV","p",1142,"cv","A",1,"v","v",TRUE,1,-0.297585814248335
"CVOE updated",2001,1,1,91,"O 76","","",FALSE,"CV","p",1076,"cv","O",6,"v","v",TRUE,1,-0.330372208213497
"CVOE updated",2001,1,1,92,"A 62","","",FALSE,"CV","p",999,"cv","A",2,"v","v",TRUE,1,-0.368623001172852
"CVOE updated",2001,1,1,93,"O 27","","",TRUE,"CV","p",809,"cv","O",7,"v","v",TRUE,1,-0.463008074708922
"CVOE updated",2001,1,1,94,"E 66","","",FALSE,"CV","p",1196,"cv","E",6,"v","v",TRUE,1,-0.270760582822294
"CVOE updated",2001,1,1,95,"J 62","","",TRUE,"CV","q",1197,"cv","J",2,"c","c",TRUE,1,-0.270263819277368
"CVOE updated",2001,1,1,96,"H 72","","",TRUE,"CV","q",1238,"cv","H",2,"c","c",TRUE,1,-0.249896513935374
"CVOE updated",2001,1,1,97,"E 49","","",TRUE,"CV","p",932,"cv","E",9,"v","v",TRUE,1,-0.40190615868294
"CVOE updated",2001,1,1,98,"D 52","","",TRUE,"CV","q",887,"cv","D",2,"c","c",TRUE,1,-0.42426051820464
"CVOE updated",2001,1,1,99,"H 62","","",TRUE,"CV","q",1050,"cv","H",2,"c","c",TRUE,1,-0.343288060381591
"CVOE updated",2001,1,1,100,"I 11","","",TRUE,"CV","p",928,"cv","I",1,"v","v",TRUE,1,-0.403893212862646
"CVOE updated",2001,1,1,101,"A 98","","",FALSE,"CV","p",1079,"cv","A",8,"v","v",TRUE,1,-0.328881917578717
"CVOE updated",2001,1,1,102,"H 29","","",FALSE,"CV","q",1119,"cv","H",9,"c","c",TRUE,1,-0.309011375781649
"CVOE updated",2001,1,1,103,"E 83","","",TRUE,"CV","p",1244,"cv","E",3,"v","v",TRUE,1,-0.246915932665813
"CVOE updated",2001,1,1,104,"D 43","","",FALSE,"CV","q",843,"cv","D",3,"c","c",TRUE,1,-0.446118114181415
"CVOE updated",2001,1,1,105,"P 45","","",TRUE,"CV","p",1039,"cv","P",5,"c","v",FALSE,0,-0.348752459375784
"CVOE updated",2001,1,1,106,"J 17","","",TRUE,"CV","q",2383,"cv","J",7,"c","c",TRUE,1,0.318897745005682
"CVOE_B",1002,1,2,11,"A 71","","",FALSE,"CV","p",4490,"cv","A",1,"v","v",TRUE,1,1.36557853416621
"CVOE_B",1002,1,2,12,"I 66","","",TRUE,"CV","p",1197,"cv","I",6,"v","v",TRUE,1,-0.270263819277368
"CVOE_B",1002,1,2,13,"S 30","","",FALSE,"CV","q",1276,"cv","S",0,"c","c",TRUE,1,-0.231019499228159
"CVOE_B",1002,1,2,14,"D 20","","",FALSE,"CV","q",1076,"cv","D",0,"c","c",TRUE,1,-0.330372208213497
"CVOE_B",1002,1,2,15,"I 31","","",FALSE,"CV","p",921,"cv","I",1,"v","v",TRUE,1,-0.407370557677133
"CVOE_B",1002,1,2,16,"P 16","","",FALSE,"CV","q",931,"cv","P",6,"c","c",TRUE,1,-0.402402922227866
"CVOE_B",1002,1,2,17,"A 49","","",FALSE,"CV","p",886,"cv","A",9,"v","v",TRUE,1,-0.424757281749567
"CVOE_B",1002,1,2,18,"O 64","","",TRUE,"CV","p",734,"cv","O",4,"v","v",TRUE,1,-0.500265340578423
"CVOE_B",1002,1,2,19,"D 02","","",FALSE,"CV","q",812,"cv","D",2,"c","c",TRUE,1,-0.461517784074142
"CVOE_B",1002,1,2,20,"P 81","","",TRUE,"CV","q",1079,"cv","P",1,"c","c",TRUE,1,-0.328881917578717
"CVOE_B",1002,1,2,21,"J 58","","",FALSE,"CV","q",1119,"cv","J",8,"c","c",TRUE,1,-0.309011375781649
"CVOE_B",1002,1,2,22,"A 22","","",TRUE,"CV","p",928,"cv","A",2,"v","v",TRUE,1,-0.403893212862646
"CVOE_B",1002,1,2,23,"J 72","","",FALSE,"CV","q",883,"cv","J",2,"c","c",TRUE,1,-0.426247572384347
"CVOE_B",1002,1,2,24,"P 91","","",TRUE,"CV","q",966,"cv","P",1,"c","c",TRUE,1,-0.385016198155432
"CVOE_B",1002,1,2,25,"E 19","","",FALSE,"CV","p",811,"cv","E",9,"v","v",TRUE,1,-0.462014547619069
"CVOE_B",1002,1,2,26,"I 30","","",TRUE,"CV","p",883,"cv","I",0,"v","v",TRUE,1,-0.426247572384347
"CVOE_B",1002,1,2,27,"D 91","","",TRUE,"CV","q",927,"cv","D",1,"c","c",TRUE,1,-0.404389976407573
"CVOE_B",1002,1,2,28,"O 48","","",TRUE,"CV","p",726,"cv","O",8,"v","v",TRUE,1,-0.504239448937837
"CVOE_B",1002,1,2,29,"A 89","","",FALSE,"CV","p",802,"cv","A",9,"v","v",TRUE,1,-0.466485419523409
"CVOE_B",1002,1,2,30,"U 11","","",FALSE,"CV","q",773,"cv","U",1,"v","c",FALSE,0,-0.480891562326283
"CVOE_B",1002,1,2,31,"I 76","","",TRUE,"CV","p",1857,"cv","I",6,"v","v",TRUE,1,0.0576001203742453
"CVOE_B",1002,1,2,32,"U 89","","",FALSE,"CV","p",1167,"cv","U",9,"v","v",TRUE,1,-0.285166725625168
"CVOE_B",1002,1,2,33,"D 63","","",TRUE,"CV","q",965,"cv","D",3,"c","c",TRUE,1,-0.385512961700359
"CVOE_B",1002,1,2,34,"H 70","","",FALSE,"CV","q",1982,"cv","H",0,"c","c",TRUE,1,0.119695563490081
"CVOE_B",1002,1,2,35,"D 48","","",FALSE,"CV","q",1354,"cv","D",8,"c","c",TRUE,1,-0.192271942723878
"CVOE_B",1002,1,2,36,"P 56","","",FALSE,"CV","q",891,"cv","P",6,"c","c",TRUE,1,-0.422273464024934
"CVOE_B",1002,1,2,37,"O 77","","",FALSE,"CV","p",723,"cv","O",7,"v","v",TRUE,1,-0.505729739572617
"CVOE_B",1002,1,2,38,"P 42","","",FALSE,"CV","q",660,"cv","P",2,"c","c",TRUE,1,-0.537025842902998
"CVOE_B",1002,1,2,39,"H 22","","",FALSE,"CV","q",843,"cv","H",2,"c","c",TRUE,1,-0.446118114181415
"CVOE_B",1002,1,2,40,"E 42","","",TRUE,"CV","p",725,"cv","E",2,"v","v",TRUE,1,-0.504736212482764
"CVOE_B",1002,1,2,41,"J 28","","",FALSE,"CV","q",997,"cv","J",8,"c","c",TRUE,1,-0.369616528262705
"CVOE_B",1002,1,2,42,"E 95","","",FALSE,"CV","p",690,"cv","E",5,"v","v",TRUE,1,-0.522122936555198
"CVOE_B",1002,1,2,43,"S 63","","",TRUE,"CV","q",817,"cv","S",3,"c","c",TRUE,1,-0.459033966349508
"CVOE_B",1002,1,2,44,"H 50","","",FALSE,"CV","q",889,"cv","H",0,"c","c",TRUE,1,-0.423266991114787
"CVOE_B",1002,1,2,45,"S 33","","",TRUE,"CV","q",1285,"cv","S",3,"c","c",TRUE,1,-0.226548627323819
"CVOE_B",1002,1,2,46,"P 57","","",TRUE,"CV","q",1632,"cv","P",7,"c","c",TRUE,1,-0.0541716772342591
"CVOE_B",1002,1,2,47,"E 23","","",FALSE,"CV","p",728,"cv","E",3,"v","v",TRUE,1,-0.503245921847984
"CVOE_B",1002,1,2,48,"S 61","","",TRUE,"CV","q",649,"cv","S",1,"c","c",TRUE,1,-0.542490241897192
"CVOE_B",1002,1,2,49,"U 67","","",FALSE,"CV","p",614,"cv","U",7,"v","v",TRUE,1,-0.559876965969626
"CVOE_B",1002,1,2,50,"H 32","","",FALSE,"CV","q",690,"cv","H",2,"c","c",TRUE,1,-0.522122936555198
"CVOE_B",1002,1,2,51,"U 50","","",TRUE,"CV","p",645,"cv","U",0,"v","v",TRUE,1,-0.544477296076899
"CVOE_B",1002,1,2,52,"O 49","","",FALSE,"CV","p",766,"cv","O",9,"v","v",TRUE,1,-0.48436890714077
"CVOE_B",1002,1,2,53,"U 32","","",TRUE,"CV","p",631,"cv","U",2,"v","v",TRUE,1,-0.551431985705872
"CVOE_B",1002,1,2,54,"J 78","","",FALSE,"CV","q",848,"cv","J",8,"c","c",TRUE,1,-0.443634296456781
"CVOE_B",1002,1,2,55,"S 54","","",FALSE,"CV","q",886,"cv","S",4,"c","c",TRUE,1,-0.424757281749567
"CVOE_B",1002,1,2,56,"J 27","","",TRUE,"CV","q",1400,"cv","J",7,"c","c",TRUE,1,-0.16942081965725
"CVOE_B",1002,1,2,57,"S 06","","",FALSE,"CV","q",651,"cv","S",6,"c","c",TRUE,1,-0.541496714807338
"CVOE_B",1002,1,2,58,"D 67","","",TRUE,"CV","q",736,"cv","D",7,"c","c",TRUE,1,-0.49927181348857
"CVOE_B",1002,1,2,59,"A 79","","",FALSE,"CV","p",735,"cv","A",9,"v","v",TRUE,1,-0.499768577033497
"CVOE_B",1002,1,2,60,"S 52","","",FALSE,"CV","q",812,"cv","S",2,"c","c",TRUE,1,-0.461517784074142
"CVOE_B",1002,1,2,61,"U 16","","",TRUE,"CV","p",649,"cv","U",6,"v","v",TRUE,1,-0.542490241897192
"CVOE_B",1002,1,2,62,"O 82","","",TRUE,"CV","p",614,"cv","O",2,"v","v",TRUE,1,-0.559876965969626
"CVOE_B",1002,1,2,63,"H 87","","",TRUE,"CV","q",730,"cv","H",7,"c","c",TRUE,1,-0.50225239475813
"CVOE_B",1002,1,2,64,"I 32","","",TRUE,"CV","p",807,"cv","I",2,"v","v",TRUE,1,-0.464001601798775
"CVOE_B",1002,1,2,65,"U 37","","",FALSE,"CV","p",762,"cv","U",7,"v","v",TRUE,1,-0.486355961320476
"CVOE_B",1002,1,2,66,"I 42","","",TRUE,"CV","p",766,"cv","I",2,"v","v",TRUE,1,-0.48436890714077
"CVOE_B",1002,1,2,67,"D 65","","",TRUE,"CV","q",693,"cv","D",5,"c","c",TRUE,1,-0.520632645920418
"CVOE_B",1002,1,2,68,"U 77","","",FALSE,"CV","p",646,"cv","U",7,"v","v",TRUE,1,-0.543980532531972
"CVOE_B",1002,1,2,69,"E 12","","",TRUE,"CV","p",611,"cv","E",2,"v","v",TRUE,1,-0.561367256604406
"CVOE_B",1002,1,2,70,"I 60","","",TRUE,"CV","p",727,"cv","I",0,"v","v",TRUE,1,-0.50374268539291
"CVOE_B",1002,1,2,71,"J 36","","",FALSE,"CV","q",687,"cv","J",6,"c","c",TRUE,1,-0.523613227189978
"CVOE_B",1002,1,2,72,"H 75","","",TRUE,"CV","q",814,"cv","H",5,"c","c",TRUE,1,-0.460524256984289
"CVOE_B",1002,1,2,73,"I 50","","",TRUE,"CV","p",769,"cv","I",0,"v","v",TRUE,1,-0.482878616505989
"CVOE_B",1002,1,2,74,"E 99","","",FALSE,"CV","p",734,"cv","E",9,"v","v",TRUE,1,-0.500265340578423
"CVOE_B",1002,1,2,75,"A 86","","",TRUE,"CV","p",772,"cv","A",6,"v","v",TRUE,1,-0.481388325871209
"CVOE_B",1002,1,2,76,"U 48","","",TRUE,"CV","p",737,"cv","U",8,"v","v",TRUE,1,-0.498775049943643
"CVOE_B",1002,1,2,77,"E 01","","",FALSE,"CV","p",737,"cv","E",1,"v","v",TRUE,1,-0.498775049943643
"CVOE_B",1002,1,2,78,"A 78","","",TRUE,"CV","p",870,"cv","A",8,"v","v",TRUE,1,-0.432705498468394
"CVOE_B",1002,1,2,79,"P 60","","",FALSE,"CV","q",1243,"cv","P",0,"c","c",TRUE,1,-0.24741269621074
"CVOE_B",1002,1,2,80,"E 43","","",FALSE,"CV","p",763,"cv","E",3,"v","v",TRUE,1,-0.48585919777555
"CVOE_B",1002,1,2,81,"D 69","","",TRUE,"CV","q",1003,"cv","D",9,"c","c",TRUE,1,-0.366635946993145
"CVOE_B",1002,1,2,82,"H 11","","",TRUE,"CV","q",1126,"cv","H",1,"c","c",TRUE,1,-0.305534030967162
"CVOE_B",1002,1,2,83,"P 43","","",TRUE,"CV","q",1075,"cv","P",3,"c","c",TRUE,1,-0.330868971758423
"CVOE_B",1002,1,2,84,"O 67","","",FALSE,"CV","p",645,"cv","O",7,"v","v",TRUE,1,-0.544477296076899
"CVOE_B",1002,1,2,85,"S 91","","",FALSE,"CV","q",649,"cv","S",1,"c","c",TRUE,1,-0.542490241897192
"CVOE_B",1002,1,2,86,"J 68","","",TRUE,"CV","q",693,"cv","J",8,"c","c",TRUE,1,-0.520632645920418
"CVOE_B",1002,1,2,87,"S 47","","",FALSE,"CV","q",724,"cv","S",7,"c","c",TRUE,1,-0.50523297602769
"CVOE_B",1002,1,2,88,"I 81","","",TRUE,"CV","p",762,"cv","I",1,"v","v",TRUE,1,-0.486355961320476
"CVOE_B",1002,1,2,89,"J 39","","",FALSE,"CV","q",649,"cv","J",9,"c","c",TRUE,1,-0.542490241897192
"CVOE_B",1002,1,2,90,"A 11","","",TRUE,"CV","p",656,"cv","A",1,"v","v",TRUE,1,-0.539012897082705
"CVOE_B",1002,1,2,91,"O 76","","",FALSE,"CV","p",560,"cv","O",6,"v","v",TRUE,1,-0.586702197395667
"CVOE_B",1002,1,2,92,"A 62","","",FALSE,"CV","p",608,"cv","A",2,"v","v",TRUE,1,-0.562857547239186
"CVOE_B",1002,1,2,93,"O 27","","",TRUE,"CV","p",920,"cv","O",7,"v","v",TRUE,1,-0.40786732122206
"CVOE_B",1002,1,2,94,"E 66","","",FALSE,"CV","p",657,"cv","E",6,"v","v",TRUE,1,-0.538516133537778
"CVOE_B",1002,1,2,95,"J 62","","",TRUE,"CV","q",762,"cv","J",2,"c","c",TRUE,1,-0.486355961320476
"CVOE_B",1002,1,2,96,"H 72","","",TRUE,"CV","q",610,"cv","H",2,"c","c",TRUE,1,-0.561864020149333
"CVOE_B",1002,1,2,97,"E 49","","",TRUE,"CV","p",726,"cv","E",9,"v","v",TRUE,1,-0.504239448937837
"CVOE_B",1002,1,2,98,"D 52","","",TRUE,"CV","q",607,"cv","D",2,"c","c",TRUE,1,-0.563354310784113
"CVOE_B",1002,1,2,99,"H 62","","",TRUE,"CV","q",722,"cv","H",2,"c","c",TRUE,1,-0.506226503117544
"CVOE_B",1002,1,2,100,"I 11","","",TRUE,"CV","p",738,"cv","I",1,"v","v",TRUE,1,-0.498278286398717
"CVOE_B",1002,1,2,101,"A 98","","",FALSE,"CV","p",620,"cv","A",8,"v","v",TRUE,1,-0.556896384700066
"CVOE_B",1002,1,2,102,"H 29","","",FALSE,"CV","q",697,"cv","H",9,"c","c",TRUE,1,-0.518645591740711
"CVOE_B",1002,1,2,103,"E 83","","",TRUE,"CV","p",689,"cv","E",3,"v","v",TRUE,1,-0.522619700100124
"CVOE_B",1002,1,2,104,"D 43","","",FALSE,"CV","q",817,"cv","D",3,"c","c",TRUE,1,-0.459033966349508
"CVOE_B",1002,1,2,105,"P 45","","",TRUE,"CV","q",654,"cv","P",5,"c","c",TRUE,1,-0.540006424172558
"CVOE_B",1002,1,2,106,"J 17","","",TRUE,"CV","q",699,"cv","J",7,"c","c",TRUE,1,-0.517652064650857
"CVOE_B",2002,1,2,11,"A 71","","",FALSE,"CV","p",5270,"cv","A",1,"v","v",TRUE,1,1.75305409920903
"CVOE_B",2002,1,2,12,"I 66","","",TRUE,"CV","p",1304,"cv","I",6,"v","v",TRUE,1,-0.217110119970212
"CVOE_B",2002,1,2,13,"S 30","","",FALSE,"CV","q",891,"cv","S",0,"c","c",TRUE,1,-0.422273464024934
"CVOE_B",2002,1,2,14,"D 20","","",FALSE,"CV","q",1271,"cv","D",0,"c","c",TRUE,1,-0.233503316952793
"CVOE_B",2002,1,2,15,"I 31","","",FALSE,"CV","p",618,"cv","I",1,"v","v",TRUE,1,-0.557889911789919
"CVOE_B",2002,1,2,16,"P 16","","",FALSE,"CV","q",655,"cv","P",6,"c","c",TRUE,1,-0.539509660627632
"CVOE_B",2002,1,2,17,"A 49","","",FALSE,"CV","p",738,"cv","A",9,"v","v",TRUE,1,-0.498278286398717
"CVOE_B",2002,1,2,18,"O 64","","",TRUE,"CV","p",698,"cv","O",4,"v","v",TRUE,1,-0.518148828195784
"CVOE_B",2002,1,2,19,"D 02","","",FALSE,"CV","q",809,"cv","D",2,"c","c",TRUE,1,-0.463008074708922
"CVOE_B",2002,1,2,20,"P 81","","",TRUE,"CV","p",608,"cv","P",1,"c","v",FALSE,0,-0.562857547239186
"CVOE_B",2002,1,2,21,"J 58","","",FALSE,"CV","p",489,"cv","J",8,"c","v",FALSE,0,-0.621972409085462
"CVOE_B",2002,1,2,22,"A 22","","",TRUE,"CV","q",543,"cv","A",2,"v","c",FALSE,0,-0.595147177659421
"CVOE_B",2002,1,2,23,"J 72","","",FALSE,"CV","q",2409,"cv","J",2,"c","c",TRUE,1,0.331813597173776
"CVOE_B",2002,1,2,24,"P 91","","",TRUE,"CV","q",1519,"cv","P",1,"c","c",TRUE,1,-0.110305957810975
"CVOE_B",2002,1,2,25,"E 19","","",FALSE,"CV","p",615,"cv","E",9,"v","v",TRUE,1,-0.559380202424699
"CVOE_B",2002,1,2,26,"I 30","","",TRUE,"CV","p",1827,"cv","I",0,"v","v",TRUE,1,0.0426972140264448
"CVOE_B",2002,1,2,27,"D 91","","",TRUE,"CV","q",801,"cv","D",1,"c","c",TRUE,1,-0.466982183068335
"CVOE_B",2002,1,2,28,"O 48","","",TRUE,"CV","p",655,"cv","O",8,"v","v",TRUE,1,-0.539509660627632
"CVOE_B",2002,1,2,29,"A 89","","",FALSE,"CV","p",816,"cv","A",9,"v","v",TRUE,1,-0.459530729894435
"CVOE_B",2002,1,2,30,"U 11","","",FALSE,"CV","p",653,"cv","U",1,"v","v",TRUE,1,-0.540503187717485
"CVOE_B",2002,1,2,31,"I 76","","",TRUE,"CV","p",597,"cv","I",6,"v","v",TRUE,1,-0.56832194623338
"CVOE_B",2002,1,2,32,"U 89","","",FALSE,"CV","p",573,"cv","U",9,"v","v",TRUE,1,-0.58024427131162
"CVOE_B",2002,1,2,33,"D 63","","",TRUE,"CV","q",974,"cv","D",3,"c","c",TRUE,1,-0.381042089796019
"CVOE_B",2002,1,2,34,"H 70","","",FALSE,"CV","q",896,"cv","H",0,"c","c",TRUE,1,-0.4197896463003
"CVOE_B",2002,1,2,35,"D 48","","",FALSE,"CV","q",571,"cv","D",8,"c","c",TRUE,1,-0.581237798401473
"CVOE_B",2002,1,2,36,"P 56","","",FALSE,"CV","q",659,"cv","P",6,"c","c",TRUE,1,-0.537522606447925
"CVOE_B",2002,1,2,37,"O 77","","",FALSE,"CV","p",610,"cv","O",7,"v","v",TRUE,1,-0.561864020149333
"CVOE_B",2002,1,2,38,"P 42","","",FALSE,"CV","q",648,"cv","P",2,"c","c",TRUE,1,-0.542987005442119
"CVOE_B",2002,1,2,39,"H 22","","",FALSE,"CV","q",535,"cv","H",2,"c","c",TRUE,1,-0.599121286018834
"CVOE_B",2002,1,2,40,"E 42","","",TRUE,"CV","p",617,"cv","E",2,"v","v",TRUE,1,-0.558386675334846
"CVOE_B",2002,1,2,41,"J 28","","",FALSE,"CV","q",537,"cv","J",8,"c","c",TRUE,1,-0.598127758928981
"CVOE_B",2002,1,2,42,"E 95","","",FALSE,"CV","p",542,"cv","E",5,"v","v",TRUE,1,-0.595643941204347
"CVOE_B",2002,1,2,43,"S 63","","",TRUE,"CV","q",820,"cv","S",3,"c","c",TRUE,1,-0.457543675714728
"CVOE_B",2002,1,2,44,"H 50","","",FALSE,"CV","q",539,"cv","H",0,"c","c",TRUE,1,-0.597134231839127
"CVOE_B",2002,1,2,45,"S 33","","",TRUE,"CV","q",487,"cv","S",3,"c","c",TRUE,1,-0.622965936175315
"CVOE_B",2002,1,2,46,"P 57","","",TRUE,"CV","q",502,"cv","P",7,"c","c",TRUE,1,-0.615514483001415
"CVOE_B",2002,1,2,47,"E 23","","",FALSE,"CV","p",540,"cv","E",3,"v","v",TRUE,1,-0.596637468294201
"CVOE_B",2002,1,2,48,"S 61","","",TRUE,"CV","q",528,"cv","S",1,"c","c",TRUE,1,-0.602598630833321
"CVOE_B",2002,1,2,49,"U 67","","",FALSE,"CV","p",649,"cv","U",7,"v","v",TRUE,1,-0.542490241897192
"CVOE_B",2002,1,2,50,"H 32","","",FALSE,"CV","q",1045,"cv","H",2,"c","c",TRUE,1,-0.345771878106224
"CVOE_B",2002,1,2,51,"U 50","","",TRUE,"CV","p",570,"cv","U",0,"v","v",TRUE,1,-0.5817345619464
"CVOE_B",2002,1,2,52,"O 49","","",FALSE,"CV","p",596,"cv","O",9,"v","v",TRUE,1,-0.568818709778306
"CVOE_B",2002,1,2,53,"U 32","","",TRUE,"CV","p",573,"cv","U",2,"v","v",TRUE,1,-0.58024427131162
"CVOE_B",2002,1,2,54,"J 78","","",FALSE,"CV","q",700,"cv","J",8,"c","c",TRUE,1,-0.517155301105931
"CVOE_B",2002,1,2,55,"S 54","","",FALSE,"CV","q",615,"cv","S",4,"c","c",TRUE,1,-0.559380202424699
"CVOE_B",2002,1,2,56,"J 27","","",TRUE,"CV","q",614,"cv","J",7,"c","c",TRUE,1,-0.559876965969626
"CVOE_B",2002,1,2,57,"S 06","","",FALSE,"CV","q",769,"cv","S",6,"c","c",TRUE,1,-0.482878616505989
"CVOE_B",2002,1,2,58,"D 67","","",TRUE,"CV","q",1792,"cv","D",7,"c","c",TRUE,1,0.0253104899540107
"CVOE_B",2002,1,2,59,"A 79","","",FALSE,"CV","p",464,"cv","A",9,"v","v",TRUE,1,-0.634391497708629
"CVOE_B",2002,1,2,60,"S 52","","",FALSE,"CV","q",847,"cv","S",2,"c","c",TRUE,1,-0.444131060001708
"CVOE_B",2002,1,2,61,"U 16","","",TRUE,"CV","p",456,"cv","U",6,"v","v",TRUE,1,-0.638365606068042
"CVOE_B",2002,1,2,62,"O 82","","",TRUE,"CV","p",661,"cv","O",2,"v","v",TRUE,1,-0.536529079358072
"CVOE_B",2002,1,2,63,"H 87","","",TRUE,"CV","q",1041,"cv","H",7,"c","c",TRUE,1,-0.347758932285931
"CVOE_B",2002,1,2,64,"I 32","","",TRUE,"CV","p",584,"cv","I",2,"v","v",TRUE,1,-0.574779872317426
"CVOE_B",2002,1,2,65,"U 37","","",FALSE,"CV","p",499,"cv","U",7,"v","v",TRUE,1,-0.617004773636195
"CVOE_B",2002,1,2,66,"I 42","","",TRUE,"CV","p",458,"cv","I",2,"v","v",TRUE,1,-0.637372078978189
"CVOE_B",2002,1,2,67,"D 65","","",TRUE,"CV","q",685,"cv","D",5,"c","c",TRUE,1,-0.524606754279831
"CVOE_B",2002,1,2,68,"U 77","","",FALSE,"CV","p",422,"cv","U",7,"v","v",TRUE,1,-0.65525556659555
"CVOE_B",2002,1,2,69,"E 12","","",TRUE,"CV","p",621,"cv","E",2,"v","v",TRUE,1,-0.556399621155139
"CVOE_B",2002,1,2,70,"I 60","","",TRUE,"CV","p",502,"cv","I",0,"v","v",TRUE,1,-0.615514483001415
"CVOE_B",2002,1,2,71,"J 36","","",FALSE,"CV","q",618,"cv","J",6,"c","c",TRUE,1,-0.557889911789919
"CVOE_B",2002,1,2,72,"H 75","","",TRUE,"CV","p",460,"cv","H",5,"c","v",FALSE,0,-0.636378551888336
"CVOE_B",2002,1,2,73,"I 50","","",TRUE,"CV","q",1235,"cv","I",0,"v","c",FALSE,0,-0.251386804570154
"CVOE_B",2002,1,2,74,"E 99","","",FALSE,"CV","p",733,"cv","E",9,"v","v",TRUE,1,-0.50076210412335
"CVOE_B",2002,1,2,75,"A 86","","",TRUE,"CV","p",967,"cv","A",6,"v","v",TRUE,1,-0.384519434610506
"CVOE_B",2002,1,2,76,"U 48","","",TRUE,"CV","p",615,"cv","U",8,"v","v",TRUE,1,-0.559380202424699
"CVOE_B",2002,1,2,77,"E 01","","",FALSE,"CV","p",748,"cv","E",1,"v","v",TRUE,1,-0.49331065094945
"CVOE_B",2002,1,2,78,"A 78","","",TRUE,"CV","p",1200,"cv","A",8,"v","v",TRUE,1,-0.268773528642588
"CVOE_B",2002,1,2,79,"P 60","","",FALSE,"CV","q",731,"cv","P",0,"c","c",TRUE,1,-0.501755631213204
"CVOE_B",2002,1,2,80,"E 43","","",FALSE,"CV","p",574,"cv","E",3,"v","v",TRUE,1,-0.579747507766693
"CVOE_B",2002,1,2,81,"D 69","","",TRUE,"CV","q",645,"cv","D",9,"c","c",TRUE,1,-0.544477296076899
"CVOE_B",2002,1,2,82,"H 11","","",TRUE,"CV","q",571,"cv","H",1,"c","c",TRUE,1,-0.581237798401473
"CVOE_B",2002,1,2,83,"P 43","","",TRUE,"CV","q",581,"cv","P",3,"c","c",TRUE,1,-0.576270162952206
"CVOE_B",2002,1,2,84,"O 67","","",FALSE,"CV","p",652,"cv","O",7,"v","v",TRUE,1,-0.540999951262412
"CVOE_B",2002,1,2,85,"S 91","","",FALSE,"CV","q",735,"cv","S",1,"c","c",TRUE,1,-0.499768577033497
"CVOE_B",2002,1,2,86,"J 68","","",TRUE,"CV","q",852,"cv","J",8,"c","c",TRUE,1,-0.441647242277074
"CVOE_B",2002,1,2,87,"S 47","","",FALSE,"CV","q",538,"cv","S",7,"c","c",TRUE,1,-0.597630995384054
"CVOE_B",2002,1,2,88,"I 81","","",TRUE,"CV","p",581,"cv","I",1,"v","v",TRUE,1,-0.576270162952206
"CVOE_B",2002,1,2,89,"J 39","","",FALSE,"CV","q",614,"cv","J",9,"c","c",TRUE,1,-0.559876965969626
"CVOE_B",2002,1,2,90,"A 11","","",TRUE,"CV","p",612,"cv","A",1,"v","v",TRUE,1,-0.560870493059479
"CVOE_B",2002,1,2,91,"O 76","","",FALSE,"CV","p",1276,"cv","O",6,"v","v",TRUE,1,-0.231019499228159
"CVOE_B",2002,1,2,92,"A 62","","",FALSE,"CV","p",841,"cv","A",2,"v","v",TRUE,1,-0.447111641271268
"CVOE_B",2002,1,2,93,"O 27","","",TRUE,"CV","p",527,"cv","O",7,"v","v",TRUE,1,-0.603095394378248
"CVOE_B",2002,1,2,94,"E 66","","",FALSE,"CV","p",573,"cv","E",6,"v","v",TRUE,1,-0.58024427131162
"CVOE_B",2002,1,2,95,"J 62","","",TRUE,"CV","q",854,"cv","J",2,"c","c",TRUE,1,-0.440653715187221
"CVOE_B",2002,1,2,96,"H 72","","",TRUE,"CV","q",1206,"cv","H",2,"c","c",TRUE,1,-0.265792947373027
"CVOE_B",2002,1,2,97,"E 49","","",TRUE,"CV","p",1324,"cv","E",9,"v","v",TRUE,1,-0.207174849071678
"CVOE_B",2002,1,2,98,"D 52","","",TRUE,"CV","q",895,"cv","D",2,"c","c",TRUE,1,-0.420286409845227
"CVOE_B",2002,1,2,99,"H 62","","",TRUE,"CV","q",805,"cv","H",2,"c","c",TRUE,1,-0.464995128888629
"CVOE_B",2002,1,2,100,"I 11","","",TRUE,"CV","p",620,"cv","I",1,"v","v",TRUE,1,-0.556896384700066
"CVOE_B",2002,1,2,101,"A 98","","",FALSE,"CV","p",736,"cv","A",8,"v","v",TRUE,1,-0.49927181348857
"CVOE_B",2002,1,2,102,"H 29","","",FALSE,"CV","q",735,"cv","H",9,"c","c",TRUE,1,-0.499768577033497
"CVOE_B",2002,1,2,103,"E 83","","",TRUE,"CV","q",1009,"cv","E",3,"v","c",FALSE,0,-0.363655365723585
"CVOE_B",2002,1,2,104,"D 43","","",FALSE,"CV","p",998,"cv","D",3,"c","v",FALSE,0,-0.369119764717778
"CVOE_B",2002,1,2,105,"P 45","","",TRUE,"CV","q",2646,"cv","P",5,"c","c",TRUE,1,0.449546557321401
"CVOE_B",2002,1,2,106,"J 17","","",TRUE,"CV","q",1315,"cv","J",7,"c","c",TRUE,1,-0.211645720976019
"CVOE_C",1003,1,2,11,"A 71","","",FALSE,"CV","q",7567,"cv","A",1,"v","c",FALSE,0,2.89411996190562
"CVOE_C",1003,1,2,12,"I 66","","",TRUE,"CV","p",3313,"cv","I",6,"v","v",TRUE,1,0.780887841787501
"CVOE_C",1003,1,2,13,"S 30","","",FALSE,"CV","q",1991,"cv","S",0,"c","c",TRUE,1,0.124166435394421
"CVOE_C",1003,1,2,14,"D 20","","",FALSE,"CV","q",3828,"cv","D",0,"c","c",TRUE,1,1.03672106742474
"CVOE_C",1003,1,2,15,"I 31","","",FALSE,"CV","p",1479,"cv","I",1,"v","v",TRUE,1,-0.130176499608042
"CVOE_C",1003,1,2,16,"P 16","","",FALSE,"CV","q",1039,"cv","P",6,"c","c",TRUE,1,-0.348752459375784
"CVOE_C",1003,1,2,17,"A 49","","",FALSE,"CV","p",1795,"cv","A",9,"v","v",TRUE,1,0.0268007805887908
"CVOE_C",1003,1,2,18,"O 64","","",TRUE,"CV","p",724,"cv","O",4,"v","v",TRUE,1,-0.50523297602769
"CVOE_C",1003,1,2,19,"D 02","","",FALSE,"CV","q",801,"cv","D",2,"c","c",TRUE,1,-0.466982183068335
"CVOE_C",1003,1,2,20,"P 81","","",TRUE,"CV","q",1086,"cv","P",1,"c","c",TRUE,1,-0.32540457276423
"CVOE_C",1003,1,2,21,"J 58","","",FALSE,"CV","q",813,"cv","J",8,"c","c",TRUE,1,-0.461021020529215
"CVOE_C",1003,1,2,22,"A 22","","",TRUE,"CV","p",650,"cv","A",2,"v","v",TRUE,1,-0.541993478352265
"CVOE_C",1003,1,2,23,"J 72","","",FALSE,"CV","q",1320,"cv","J",2,"c","c",TRUE,1,-0.209161903251385
"CVOE_C",1003,1,2,24,"P 91","","",TRUE,"CV","q",1087,"cv","P",1,"c","c",TRUE,1,-0.324907809219303
"CVOE_C",1003,1,2,25,"E 19","","",FALSE,"CV","p",657,"cv","E",9,"v","v",TRUE,1,-0.538516133537778
"CVOE_C",1003,1,2,26,"I 30","","",TRUE,"CV","p",857,"cv","I",0,"v","v",TRUE,1,-0.439163424552441
"CVOE_C",1003,1,2,27,"D 91","","",TRUE,"CV","q",857,"cv","D",1,"c","c",TRUE,1,-0.439163424552441
"CVOE_C",1003,1,2,28,"O 48","","",TRUE,"CV","p",856,"cv","O",8,"v","v",TRUE,1,-0.439660188097368
"CVOE_C",1003,1,2,29,"A 89","","",FALSE,"CV","p",2774,"cv","A",9,"v","v",TRUE,1,0.513132291072017
"CVOE_C",1003,1,2,30,"U 11","","",FALSE,"CV","p",969,"cv","U",1,"v","v",TRUE,1,-0.383525907520652
"CVOE_C",1003,1,2,31,"I 76","","",TRUE,"CV","p",1243,"cv","I",6,"v","v",TRUE,1,-0.24741269621074
"CVOE_C",1003,1,2,32,"U 89","","",FALSE,"CV","p",1076,"cv","U",9,"v","v",TRUE,1,-0.330372208213497
"CVOE_C",1003,1,2,33,"D 63","","",TRUE,"CV","q",959,"cv","D",3,"c","c",TRUE,1,-0.388493542969919
"CVOE_C",1003,1,2,34,"H 70","","",FALSE,"CV","q",685,"cv","H",0,"c","c",TRUE,1,-0.524606754279831
"CVOE_C",1003,1,2,35,"D 48","","",FALSE,"CV","q",618,"cv","D",8,"c","c",TRUE,1,-0.557889911789919
"CVOE_C",1003,1,2,36,"P 56","","",FALSE,"CV","q",930,"cv","P",6,"c","c",TRUE,1,-0.402899685772793
"CVOE_C",1003,1,2,37,"O 77","","",FALSE,"CV","p",1003,"cv","O",7,"v","v",TRUE,1,-0.366635946993145
"CVOE_C",1003,1,2,38,"P 42","","",FALSE,"CV","q",1634,"cv","P",2,"c","c",TRUE,1,-0.0531781501444057
"CVOE_C",1003,1,2,39,"H 22","","",FALSE,"CV","q",813,"cv","H",2,"c","c",TRUE,1,-0.461021020529215
"CVOE_C",1003,1,2,40,"E 42","","",TRUE,"CV","p",766,"cv","E",2,"v","v",TRUE,1,-0.48436890714077
"CVOE_C",1003,1,2,41,"J 28","","",FALSE,"CV","q",849,"cv","J",8,"c","c",TRUE,1,-0.443137532911855
"CVOE_C",1003,1,2,42,"E 95","","",FALSE,"CV","p",653,"cv","E",5,"v","v",TRUE,1,-0.540503187717485
"CVOE_C",1003,1,2,43,"S 63","","",TRUE,"CV","q",932,"cv","S",3,"c","c",TRUE,1,-0.40190615868294
"CVOE_C",1003,1,2,44,"H 50","","",FALSE,"CV","q",653,"cv","H",0,"c","c",TRUE,1,-0.540503187717485
"CVOE_C",1003,1,2,45,"S 33","","",TRUE,"CV","q",501,"cv","S",3,"c","c",TRUE,1,-0.616011246546341
"CVOE_C",1003,1,2,46,"P 57","","",TRUE,"CV","q",577,"cv","P",7,"c","c",TRUE,1,-0.578257217131913
"CVOE_C",1003,1,2,47,"E 23","","",FALSE,"CV","p",688,"cv","E",3,"v","v",TRUE,1,-0.523116463645051
"CVOE_C",1003,1,2,48,"S 61","","",TRUE,"CV","q",581,"cv","S",1,"c","c",TRUE,1,-0.576270162952206
"CVOE_C",1003,1,2,49,"U 67","","",FALSE,"CV","p",848,"cv","U",7,"v","v",TRUE,1,-0.443634296456781
"CVOE_C",1003,1,2,50,"H 32","","",FALSE,"CV","q",772,"cv","H",2,"c","c",TRUE,1,-0.481388325871209
"CVOE_C",1003,1,2,51,"U 50","","",TRUE,"CV","p",699,"cv","U",0,"v","v",TRUE,1,-0.517652064650857
"CVOE_C",1003,1,2,52,"O 49","","",FALSE,"CV","p",770,"cv","O",9,"v","v",TRUE,1,-0.482381852961063
"CVOE_C",1003,1,2,53,"U 32","","",TRUE,"CV","p",853,"cv","U",2,"v","v",TRUE,1,-0.441150478732148
"CVOE_C",1003,1,2,54,"J 78","","",FALSE,"CV","q",735,"cv","J",8,"c","c",TRUE,1,-0.499768577033497
"CVOE_C",1003,1,2,55,"S 54","","",FALSE,"CV","q",1949,"cv","S",4,"c","c",TRUE,1,0.1033023665075
"CVOE_C",1003,1,2,56,"J 27","","",TRUE,"CV","q",688,"cv","J",7,"c","c",TRUE,1,-0.523116463645051
"CVOE_C",1003,1,2,57,"S 06","","",FALSE,"CV","q",662,"cv","S",6,"c","c",TRUE,1,-0.536032315813145
"CVOE_C",1003,1,2,58,"D 67","","",TRUE,"CV","q",963,"cv","D",7,"c","c",TRUE,1,-0.386506488790212
"CVOE_C",1003,1,2,59,"A 79","","",FALSE,"CV","p",610,"cv","A",9,"v","v",TRUE,1,-0.561864020149333
"CVOE_C",1003,1,2,60,"S 52","","",FALSE,"CV","q",648,"cv","S",2,"c","c",TRUE,1,-0.542987005442119
"CVOE_C",1003,1,2,61,"U 16","","",TRUE,"CV","p",731,"cv","U",6,"v","v",TRUE,1,-0.501755631213204
"CVOE_C",1003,1,2,62,"O 82","","",TRUE,"CV","p",730,"cv","O",2,"v","v",TRUE,1,-0.50225239475813
"CVOE_C",1003,1,2,63,"H 87","","",TRUE,"CV","q",809,"cv","H",7,"c","c",TRUE,1,-0.463008074708922
"CVOE_C",1003,1,2,64,"I 32","","",TRUE,"CV","q",1193,"cv","I",2,"v","c",FALSE,0,-0.272250873457074
"CVOE_C",1003,1,2,65,"U 37","","",FALSE,"CV","p",920,"cv","U",7,"v","v",TRUE,1,-0.40786732122206
"CVOE_C",1003,1,2,66,"I 42","","",TRUE,"CV","p",736,"cv","I",2,"v","v",TRUE,1,-0.49927181348857
"CVOE_C",1003,1,2,67,"D 65","","",TRUE,"CV","q",1323,"cv","D",5,"c","c",TRUE,1,-0.207671612616605
"CVOE_C",1003,1,2,68,"U 77","","",FALSE,"CV","p",1167,"cv","U",7,"v","v",TRUE,1,-0.285166725625168
"CVOE_C",1003,1,2,69,"E 12","","",TRUE,"CV","p",811,"cv","E",2,"v","v",TRUE,1,-0.462014547619069
"CVOE_C",1003,1,2,70,"I 60","","",TRUE,"CV","p",687,"cv","I",0,"v","v",TRUE,1,-0.523613227189978
"CVOE_C",1003,1,2,71,"J 36","","",FALSE,"CV","q",698,"cv","J",6,"c","c",TRUE,1,-0.518148828195784
"CVOE_C",1003,1,2,72,"H 75","","",TRUE,"CV","q",1121,"cv","H",5,"c","c",TRUE,1,-0.308017848691796
"CVOE_C",1003,1,2,73,"I 50","","",TRUE,"CV","p",619,"cv","I",0,"v","v",TRUE,1,-0.557393148244992
"CVOE_C",1003,1,2,74,"E 99","","",FALSE,"CV","p",635,"cv","E",9,"v","v",TRUE,1,-0.549444931526165
"CVOE_C",1003,1,2,75,"A 86","","",TRUE,"CV","q",1205,"cv","A",6,"v","c",FALSE,0,-0.266289710917954
"CVOE_C",1003,1,2,76,"U 48","","",TRUE,"CV","p",1832,"cv","U",8,"v","v",TRUE,1,0.0451810317510782
"CVOE_C",1003,1,2,77,"E 01","","",FALSE,"CV","p",902,"cv","E",1,"v","v",TRUE,1,-0.41680906503074
"CVOE_C",1003,1,2,78,"A 78","","",TRUE,"CV","p",2026,"cv","A",8,"v","v",TRUE,1,0.141553159466855
"CVOE_C",1003,1,2,79,"P 60","","",FALSE,"CV","q",1247,"cv","P",0,"c","c",TRUE,1,-0.245425642031033
"CVOE_C",1003,1,2,80,"E 43","","",FALSE,"CV","p",1511,"cv","E",3,"v","v",TRUE,1,-0.114280066170388
"CVOE_C",1003,1,2,81,"D 69","","",TRUE,"CV","q",959,"cv","D",9,"c","c",TRUE,1,-0.388493542969919
"CVOE_C",1003,1,2,82,"H 11","","",TRUE,"CV","q",686,"cv","H",1,"c","c",TRUE,1,-0.524109990734904
"CVOE_C",1003,1,2,83,"P 43","","",TRUE,"CV","q",1126,"cv","P",3,"c","c",TRUE,1,-0.305534030967162
"CVOE_C",1003,1,2,84,"O 67","","",FALSE,"CV","p",646,"cv","O",7,"v","v",TRUE,1,-0.543980532531972
"CVOE_C",1003,1,2,85,"S 91","","",FALSE,"CV","q",729,"cv","S",1,"c","c",TRUE,1,-0.502749158303057
"CVOE_C",1003,1,2,86,"J 68","","",TRUE,"CV","q",1394,"cv","J",8,"c","c",TRUE,1,-0.17240140092681
"CVOE_C",1003,1,2,87,"S 47","","",FALSE,"CV","q",646,"cv","S",7,"c","c",TRUE,1,-0.543980532531972
"CVOE_C",1003,1,2,88,"I 81","","",TRUE,"CV","q",533,"cv","I",1,"v","c",FALSE,0,-0.600114813108687
"CVOE_C",1003,1,2,89,"J 39","","",FALSE,"CV","q",970,"cv","J",9,"c","c",TRUE,1,-0.383029143975725
"CVOE_C",1003,1,2,90,"A 11","","",TRUE,"CV","p",891,"cv","A",1,"v","v",TRUE,1,-0.422273464024934
"CVOE_C",1003,1,2,91,"O 76","","",FALSE,"CV","p",584,"cv","O",6,"v","v",TRUE,1,-0.574779872317426
"CVOE_C",1003,1,2,92,"A 62","","",FALSE,"CV","p",1439,"cv","A",2,"v","v",TRUE,1,-0.15004704140511
"CVOE_C",1003,1,2,93,"O 27","","",TRUE,"CV","p",579,"cv","O",7,"v","v",TRUE,1,-0.57726369004206
"CVOE_C",1003,1,2,94,"E 66","","",FALSE,"CV","p",612,"cv","E",6,"v","v",TRUE,1,-0.560870493059479
"CVOE_C",1003,1,2,95,"J 62","","",TRUE,"CV","q",611,"cv","J",2,"c","c",TRUE,1,-0.561367256604406
"CVOE_C",1003,1,2,96,"H 72","","",TRUE,"CV","q",844,"cv","H",2,"c","c",TRUE,1,-0.445621350636488
"CVOE_C",1003,1,2,97,"E 49","","",TRUE,"CV","p",649,"cv","E",9,"v","v",TRUE,1,-0.542490241897192
"CVOE_C",1003,1,2,98,"D 52","","",TRUE,"CV","q",731,"cv","D",2,"c","c",TRUE,1,-0.501755631213204
"CVOE_C",1003,1,2,99,"H 62","","",TRUE,"CV","q",1712,"cv","H",2,"c","c",TRUE,1,-0.0144305936401242
"CVOE_C",1003,1,2,100,"I 11","","",TRUE,"CV","p",568,"cv","I",1,"v","v",TRUE,1,-0.582728089036253
"CVOE_C",1003,1,2,101,"A 98","","",FALSE,"CV","q",617,"cv","A",8,"v","c",FALSE,0,-0.558386675334846
"CVOE_C",1003,1,2,102,"H 29","","",FALSE,"CV","q",1986,"cv","H",9,"c","c",TRUE,1,0.121682617669788
"CVOE_C",1003,1,2,103,"E 83","","",TRUE,"CV","p",1006,"cv","E",3,"v","v",TRUE,1,-0.365145656358365
"CVOE_C",1003,1,2,104,"D 43","","",FALSE,"CV","q",620,"cv","D",3,"c","c",TRUE,1,-0.556896384700066
"CVOE_C",1003,1,2,105,"P 45","","",TRUE,"CV","q",1207,"cv","P",5,"c","c",TRUE,1,-0.265296183828101
"CVOE_C",1003,1,2,106,"J 17","","",TRUE,"CV","q",816,"cv","J",7,"c","c",TRUE,1,-0.459530729894435
"CVOE updated",1009,1,1,11,"A 71","","",FALSE,"CV","p",5184,"cv","A",1,"v","v",TRUE,1,1.71033243434533
"CVOE updated",1009,1,1,12,"I 66","","",TRUE,"CV","p",1673,"cv","I",6,"v","v",TRUE,1,-0.0338043718922649
"CVOE updated",1009,1,1,13,"S 30","","",FALSE,"CV","q",1752,"cv","S",0,"c","c",TRUE,1,0.00543994815694328
"CVOE updated",1009,1,1,14,"D 20","","",FALSE,"CV","q",3618,"cv","D",0,"c","c",TRUE,1,0.93240072299014
"CVOE updated",1009,1,1,15,"I 31","","",FALSE,"CV","p",2675,"cv","I",1,"v","v",TRUE,1,0.463952700124275
"CVOE updated",1009,1,1,16,"P 16","","",FALSE,"CV","q",1694,"cv","P",6,"c","c",TRUE,1,-0.0233723374488045
"CVOE updated",1009,1,1,17,"A 49","","",FALSE,"CV","p",2006,"cv","A",9,"v","v",TRUE,1,0.131617888568322
"CVOE updated",1009,1,1,18,"O 64","","",TRUE,"CV","p",1859,"cv","O",4,"v","v",TRUE,1,0.0585936474640987
"CVOE updated",1009,1,1,19,"D 02","","",FALSE,"CV","q",2697,"cv","D",2,"c","c",TRUE,1,0.474881498112662
"CVOE updated",1009,1,1,20,"P 81","","",TRUE,"CV","q",2068,"cv","P",1,"c","c",TRUE,1,0.162417228353776
"CVOE updated",1009,1,1,21,"J 58","","",FALSE,"CV","q",2107,"cv","J",8,"c","c",TRUE,1,0.181791006605917
"CVOE updated",1009,1,1,22,"A 22","","",TRUE,"CV","p",2681,"cv","A",2,"v","v",TRUE,1,0.466933281393835
"CVOE updated",1009,1,1,23,"J 72","","",FALSE,"CV","q",1745,"cv","J",2,"c","c",TRUE,1,0.00196260334245647
"CVOE updated",1009,1,1,24,"P 91","","",TRUE,"CV","q",1807,"cv","P",1,"c","c",TRUE,1,0.032761943127911
"CVOE updated",1009,1,1,25,"E 19","","",FALSE,"CV","p",2815,"cv","E",9,"v","v",TRUE,1,0.533499596414011
"CVOE updated",1009,1,1,26,"I 30","","",TRUE,"CV","p",1552,"cv","I",0,"v","v",TRUE,1,-0.093912760828394
"CVOE updated",1009,1,1,27,"D 91","","",TRUE,"CV","q",1721,"cv","D",1,"c","c",TRUE,1,-0.009959721735784
"CVOE updated",1009,1,1,28,"O 48","","",TRUE,"CV","p",3037,"cv","O",8,"v","v",TRUE,1,0.643781103387735
"CVOE updated",1009,1,1,29,"A 89","","",FALSE,"CV","p",1471,"cv","A",9,"v","v",TRUE,1,-0.134150607967456
"CVOE updated",1009,1,1,30,"U 11","","",FALSE,"CV","p",1771,"cv","U",1,"v","v",TRUE,1,0.0148784555105503
"CVOE updated",1009,1,1,31,"I 76","","",TRUE,"CV","p",1617,"cv","I",6,"v","v",TRUE,1,-0.0616231304081594
"CVOE updated",1009,1,1,32,"U 89","","",FALSE,"CV","p",1681,"cv","U",9,"v","v",TRUE,1,-0.0298302635328515
"CVOE updated",1009,1,1,33,"D 63","","",TRUE,"CV","q",1772,"cv","D",3,"c","c",TRUE,1,0.015375219055477
"CVOE updated",1009,1,1,34,"H 70","","",FALSE,"CV","q",1838,"cv","H",0,"c","c",TRUE,1,0.0481616130206383
"CVOE updated",1009,1,1,35,"D 48","","",FALSE,"CV","q",1785,"cv","D",8,"c","c",TRUE,1,0.0218331451395239
"CVOE updated",1009,1,1,36,"P 56","","",FALSE,"CV","q",1748,"cv","P",6,"c","c",TRUE,1,0.00345289397723653
"CVOE updated",1009,1,1,37,"O 77","","",FALSE,"CV","p",1928,"cv","O",7,"v","v",TRUE,1,0.0928703320640401
"CVOE updated",1009,1,1,38,"P 42","","",FALSE,"CV","q",1691,"cv","P",2,"c","c",TRUE,1,-0.0248626280835846
"CVOE updated",1009,1,1,39,"H 22","","",FALSE,"CV","q",1403,"cv","H",2,"c","c",TRUE,1,-0.16793052902247
"CVOE updated",1009,1,1,40,"E 42","","",TRUE,"CV","p",1928,"cv","E",2,"v","v",TRUE,1,0.0928703320640401
"CVOE updated",1009,1,1,41,"J 28","","",FALSE,"CV","q",1553,"cv","J",8,"c","c",TRUE,1,-0.0934159972834673
"CVOE updated",1009,1,1,42,"E 95","","",FALSE,"CV","p",1905,"cv","E",5,"v","v",TRUE,1,0.0814447705307263
"CVOE updated",1009,1,1,43,"S 63","","",TRUE,"CV","q",2372,"cv","S",3,"c","c",TRUE,1,0.313433346011489
"CVOE updated",1009,1,1,44,"H 50","","",FALSE,"CV","q",1785,"cv","H",0,"c","c",TRUE,1,0.0218331451395239
"CVOE updated",1009,1,1,45,"S 33","","",TRUE,"CV","q",1769,"cv","S",3,"c","c",TRUE,1,0.0138849284206969
"CVOE updated",1009,1,1,46,"P 57","","",TRUE,"CV","q",1669,"cv","P",7,"c","c",TRUE,1,-0.0357914260719717
"CVOE updated",1009,1,1,47,"E 23","","",FALSE,"CV","p",2986,"cv","E",3,"v","v",TRUE,1,0.618446162596474
"CVOE updated",1009,1,1,48,"S 61","","",TRUE,"CV","q",1508,"cv","S",1,"c","c",TRUE,1,-0.115770356805168
"CVOE updated",1009,1,1,49,"U 67","","",FALSE,"CV","p",2028,"cv","U",7,"v","v",TRUE,1,0.142546686556709
"CVOE updated",1009,1,1,50,"H 32","","",FALSE,"CV","q",1544,"cv","H",2,"c","c",TRUE,1,-0.0978868691878075
"CVOE updated",1009,1,1,51,"U 50","","",TRUE,"CV","p",2143,"cv","U",0,"v","v",TRUE,1,0.199674494223278
"CVOE updated",1009,1,1,52,"O 49","","",FALSE,"CV","p",1643,"cv","O",9,"v","v",TRUE,1,-0.0487072782400655
"CVOE updated",1009,1,1,53,"U 32","","",TRUE,"CV","p",1303,"cv","U",2,"v","v",TRUE,1,-0.217606883515139
"CVOE updated",1009,1,1,54,"J 78","","",FALSE,"CV","q",1521,"cv","J",8,"c","c",TRUE,1,-0.109312430721121
"CVOE updated",1009,1,1,55,"S 54","","",FALSE,"CV","q",1678,"cv","S",4,"c","c",TRUE,1,-0.0313205541676315
"CVOE updated",1009,1,1,56,"J 27","","",TRUE,"CV","q",1401,"cv","J",7,"c","c",TRUE,1,-0.168924056112324
"CVOE updated",1009,1,1,57,"S 06","","",FALSE,"CV","q",1630,"cv","S",6,"c","c",TRUE,1,-0.0551652043241125
"CVOE updated",1009,1,1,58,"D 67","","",TRUE,"CV","q",1794,"cv","D",7,"c","c",TRUE,1,0.0263040170438641
"CVOE updated",1009,1,1,59,"A 79","","",FALSE,"CV","p",2322,"cv","A",9,"v","v",TRUE,1,0.288595168765155
"CVOE updated",1009,1,1,60,"S 52","","",FALSE,"CV","q",3120,"cv","S",2,"c","c",TRUE,1,0.68501247761665
"CVOE updated",1009,1,1,61,"U 16","","",TRUE,"CV","p",2412,"cv","U",6,"v","v",TRUE,1,0.333303887808556
"CVOE updated",1009,1,1,62,"O 82","","",TRUE,"CV","p",1818,"cv","O",2,"v","v",TRUE,1,0.0382263421221046
"CVOE updated",1009,1,1,63,"H 87","","",TRUE,"CV","q",1485,"cv","H",7,"c","c",TRUE,1,-0.127195918338482
"CVOE updated",1009,1,1,64,"I 32","","",TRUE,"CV","p",1682,"cv","I",2,"v","v",TRUE,1,-0.0293334999879248
"CVOE updated",1009,1,1,65,"U 37","","",FALSE,"CV","p",1235,"cv","U",7,"v","v",TRUE,1,-0.251386804570154
"CVOE updated",1009,1,1,66,"I 42","","",TRUE,"CV","p",1245,"cv","I",2,"v","v",TRUE,1,-0.246419169120887
"CVOE updated",1009,1,1,67,"D 65","","",TRUE,"CV","q",1536,"cv","D",5,"c","c",TRUE,1,-0.101860977547221
"CVOE updated",1009,1,1,68,"U 77","","",FALSE,"CV","p",1839,"cv","U",7,"v","v",TRUE,1,0.048658376565565
"CVOE updated",1009,1,1,69,"E 12","","",TRUE,"CV","p",981,"cv","E",2,"v","v",TRUE,1,-0.377564744981532
"CVOE updated",1009,1,1,70,"I 60","","",TRUE,"CV","p",1152,"cv","I",0,"v","v",TRUE,1,-0.292618178799069
"CVOE updated",1009,1,1,71,"J 36","","",FALSE,"CV","q",1496,"cv","J",6,"c","c",TRUE,1,-0.121731519344288
"CVOE updated",1009,1,1,72,"H 75","","",TRUE,"CV","q",1657,"cv","H",5,"c","c",TRUE,1,-0.0417525886110919
"CVOE updated",1009,1,1,73,"I 50","","",TRUE,"CV","p",1517,"cv","I",0,"v","v",TRUE,1,-0.111299484900828
"CVOE updated",1009,1,1,74,"E 99","","",FALSE,"CV","p",1154,"cv","E",9,"v","v",TRUE,1,-0.291624651709215
"CVOE updated",1009,1,1,75,"A 86","","",TRUE,"CV","p",1045,"cv","A",6,"v","v",TRUE,1,-0.345771878106224
"CVOE updated",1009,1,1,76,"U 48","","",TRUE,"CV","p",1069,"cv","U",8,"v","v",TRUE,1,-0.333849553027984
"CVOE updated",1009,1,1,77,"E 01","","",FALSE,"CV","p",1204,"cv","E",1,"v","v",TRUE,1,-0.266786474462881
"CVOE updated",1009,1,1,78,"A 78","","",TRUE,"CV","p",1239,"cv","A",8,"v","v",TRUE,1,-0.249399750390447
"CVOE updated",1009,1,1,79,"P 60","","",FALSE,"CV","q",1616,"cv","P",0,"c","c",TRUE,1,-0.0621198939530861
"CVOE updated",1009,1,1,80,"E 43","","",FALSE,"CV","p",2533,"cv","E",3,"v","v",TRUE,1,0.393412276744685
"CVOE updated",1009,1,1,81,"D 69","","",TRUE,"CV","q",1498,"cv","D",9,"c","c",TRUE,1,-0.120737992254435
"CVOE updated",1009,1,1,82,"H 11","","",TRUE,"CV","q",1287,"cv","H",1,"c","c",TRUE,1,-0.225555100233966
"CVOE updated",1009,1,1,83,"P 43","","",TRUE,"CV","q",1154,"cv","P",3,"c","c",TRUE,1,-0.291624651709215
"CVOE updated",1009,1,1,84,"O 67","","",FALSE,"CV","p",1994,"cv","O",7,"v","v",TRUE,1,0.125656726029201
"CVOE updated",1009,1,1,85,"S 91","","",FALSE,"CV","q",1569,"cv","S",1,"c","c",TRUE,1,-0.0854677805646403
"CVOE updated",1009,1,1,86,"J 68","","",TRUE,"CV","q",1500,"cv","J",8,"c","c",TRUE,1,-0.119744465164582
"CVOE updated",1009,1,1,87,"S 47","","",FALSE,"CV","q",1616,"cv","S",7,"c","c",TRUE,1,-0.0621198939530861
"CVOE updated",1009,1,1,88,"I 81","","",TRUE,"CV","p",1863,"cv","I",1,"v","v",TRUE,1,0.0605807016438055
"CVOE updated",1009,1,1,89,"J 39","","",FALSE,"CV","q",1793,"cv","J",9,"c","c",TRUE,1,0.0258072534989374
"CVOE updated",1009,1,1,90,"A 11","","",TRUE,"CV","p",1906,"cv","A",1,"v","v",TRUE,1,0.081941534075653
"CVOE updated",1009,1,1,91,"O 76","","",FALSE,"CV","p",1399,"cv","O",6,"v","v",TRUE,1,-0.169917583202177
"CVOE updated",1009,1,1,92,"A 62","","",FALSE,"CV","p",1398,"cv","A",2,"v","v",TRUE,1,-0.170414346747104
"CVOE updated",1009,1,1,93,"O 27","","",TRUE,"CV","p",1319,"cv","O",7,"v","v",TRUE,1,-0.209658666796312
"CVOE updated",1009,1,1,94,"E 66","","",FALSE,"CV","p",1192,"cv","E",6,"v","v",TRUE,1,-0.272747637002001
"CVOE updated",1009,1,1,95,"J 62","","",TRUE,"CV","q",1511,"cv","J",2,"c","c",TRUE,1,-0.114280066170388
"CVOE updated",1009,1,1,96,"H 72","","",TRUE,"CV","q",1245,"cv","H",2,"c","c",TRUE,1,-0.246419169120887
"CVOE updated",1009,1,1,97,"E 49","","",TRUE,"CV","p",1944,"cv","E",9,"v","v",TRUE,1,0.100818548782867
"CVOE updated",1009,1,1,98,"D 52","","",TRUE,"CV","q",1773,"cv","D",2,"c","c",TRUE,1,0.0158719826004037
"CVOE updated",1009,1,1,99,"H 62","","",TRUE,"CV","q",1286,"cv","H",2,"c","c",TRUE,1,-0.226051863778893
"CVOE updated",1009,1,1,100,"I 11","","",TRUE,"CV","p",1689,"cv","I",1,"v","v",TRUE,1,-0.025856155173438
"CVOE updated",1009,1,1,101,"A 98","","",FALSE,"CV","p",1092,"cv","A",8,"v","v",TRUE,1,-0.32242399149467
"CVOE updated",1009,1,1,102,"H 29","","",FALSE,"CV","q",1536,"cv","H",9,"c","c",TRUE,1,-0.101860977547221
"CVOE updated",1009,1,1,103,"E 83","","",TRUE,"CV","p",1475,"cv","E",3,"v","v",TRUE,1,-0.132163553787749
"CVOE updated",1009,1,1,104,"D 43","","",FALSE,"CV","q",1447,"cv","D",3,"c","c",TRUE,1,-0.146072933045696
"CVOE updated",1009,1,1,105,"P 45","","",TRUE,"CV","q",1377,"cv","P",5,"c","c",TRUE,1,-0.180846381190564
"CVOE updated",1009,1,1,106,"J 17","","",TRUE,"CV","q",1174,"cv","J",7,"c","c",TRUE,1,-0.281689380810681
"CVOE updated",1013,1,1,11,"A 71","","",FALSE,"CV","q",1358,"cv","A",1,"v","c",FALSE,0,-0.190284888544171
"CVOE updated",1013,1,1,12,"I 66","","",TRUE,"CV","q",1056,"cv","I",6,"v","c",FALSE,0,-0.34030747911203
"CVOE updated",1013,1,1,13,"S 30","","",FALSE,"CV","p",1960,"cv","S",0,"c","v",FALSE,0,0.108766765501694
"CVOE updated",1013,1,1,14,"D 20","","",FALSE,"CV","p",1382,"cv","D",0,"c","v",FALSE,0,-0.178362563465931
"CVOE updated",1013,1,1,15,"I 31","","",FALSE,"CV","q",1088,"cv","I",1,"v","c",FALSE,0,-0.324411045674377
"CVOE updated",1013,1,1,16,"P 16","","",FALSE,"CV","p",777,"cv","P",6,"c","v",FALSE,0,-0.478904508146576
"CVOE updated",1013,1,1,17,"A 49","","",FALSE,"CV","q",573,"cv","A",9,"v","c",FALSE,0,-0.58024427131162
"CVOE updated",1013,1,1,18,"O 64","","",TRUE,"CV","q",1114,"cv","O",4,"v","c",FALSE,0,-0.311495193506283
"CVOE updated",1013,1,1,19,"D 02","","",FALSE,"CV","p",785,"cv","D",2,"c","v",FALSE,0,-0.474930399787162
"CVOE updated",1013,1,1,20,"P 81","","",TRUE,"CV","p",1114,"cv","P",1,"c","v",FALSE,0,-0.311495193506283
"CVOE updated",1013,1,1,21,"J 58","","",FALSE,"CV","p",629,"cv","J",8,"c","v",FALSE,0,-0.552425512795726
"CVOE updated",1013,1,1,22,"A 22","","",TRUE,"CV","q",493,"cv","A",2,"v","c",FALSE,0,-0.619985354905755
"CVOE updated",1013,1,1,23,"J 72","","",FALSE,"CV","p",733,"cv","J",2,"c","v",FALSE,0,-0.50076210412335
"CVOE updated",1013,1,1,24,"P 91","","",TRUE,"CV","p",789,"cv","P",1,"c","v",FALSE,0,-0.472943345607456
"CVOE updated",1013,1,1,25,"E 19","","",FALSE,"CV","q",735,"cv","E",9,"v","c",FALSE,0,-0.499768577033497
"CVOE updated",1013,1,1,26,"I 30","","",TRUE,"CV","q",783,"cv","I",0,"v","c",FALSE,0,-0.475923926877016
"CVOE updated",1013,1,1,27,"D 91","","",TRUE,"CV","p",732,"cv","D",1,"c","v",FALSE,0,-0.501258867668277
"CVOE updated",1013,1,1,28,"O 48","","",TRUE,"CV","q",882,"cv","O",8,"v","c",FALSE,0,-0.426744335929274
"CVOE updated",1013,1,1,29,"A 89","","",FALSE,"CV","q",672,"cv","A",9,"v","c",FALSE,0,-0.531064680363878
"CVOE updated",1013,1,1,30,"U 11","","",FALSE,"CV","q",1017,"cv","U",1,"v","c",FALSE,0,-0.359681257364171
"CVOE updated",1013,1,1,31,"I 76","","",TRUE,"CV","q",1934,"cv","I",6,"v","c",FALSE,0,0.0958509133336002
"CVOE updated",1013,1,1,32,"U 89","","",FALSE,"CV","p",778,"cv","U",9,"v","v",TRUE,1,-0.478407744601649
"CVOE updated",1013,1,1,33,"D 63","","",TRUE,"CV","p",2430,"cv","D",3,"c","v",FALSE,0,0.342245631617237
"CVOE updated",1013,1,1,34,"H 70","","",FALSE,"CV","p",2537,"cv","H",0,"c","v",FALSE,0,0.395399330924392
"CVOE updated",1013,1,1,35,"D 48","","",FALSE,"CV","p",739,"cv","D",8,"c","v",FALSE,0,-0.49778152285379
"CVOE updated",1013,1,1,36,"P 56","","",FALSE,"CV","p",977,"cv","P",6,"c","v",FALSE,0,-0.379551799161239
"CVOE updated",1013,1,1,37,"O 77","","",FALSE,"CV","q",729,"cv","O",7,"v","c",FALSE,0,-0.502749158303057
"CVOE updated",1013,1,1,38,"P 42","","",FALSE,"CV","p",877,"cv","P",2,"c","v",FALSE,0,-0.429228153653907
"CVOE updated",1013,1,1,39,"H 22","","",FALSE,"CV","p",736,"cv","H",2,"c","v",FALSE,0,-0.49927181348857
"CVOE updated",1013,1,1,40,"E 42","","",TRUE,"CV","q",2277,"cv","E",2,"v","c",FALSE,0,0.266240809243454
"CVOE updated",1013,1,1,41,"J 28","","",FALSE,"CV","p",836,"cv","J",8,"c","v",FALSE,0,-0.449595458995901
"CVOE updated",1013,1,1,42,"E 95","","",FALSE,"CV","q",683,"cv","E",5,"v","c",FALSE,0,-0.525600281369685
"CVOE updated",1013,1,1,43,"S 63","","",TRUE,"CV","p",728,"cv","S",3,"c","v",FALSE,0,-0.503245921847984
"CVOE updated",1013,1,1,44,"H 50","","",FALSE,"CV","p",1008,"cv","H",0,"c","v",FALSE,0,-0.364152129268511
"CVOE updated",1013,1,1,45,"S 33","","",TRUE,"CV","p",690,"cv","S",3,"c","v",FALSE,0,-0.522122936555198
"CVOE updated",1013,1,1,46,"P 57","","",TRUE,"CV","p",1003,"cv","P",7,"c","v",FALSE,0,-0.366635946993145
"CVOE updated",1013,1,1,47,"E 23","","",FALSE,"CV","q",708,"cv","E",3,"v","c",FALSE,0,-0.513181192746517
"CVOE updated",1013,1,1,48,"S 61","","",TRUE,"CV","p",889,"cv","S",1,"c","v",FALSE,0,-0.423266991114787
"CVOE updated",1013,1,1,49,"U 67","","",FALSE,"CV","q",2346,"cv","U",7,"v","c",FALSE,0,0.300517493843395
"CVOE updated",1013,1,1,50,"H 32","","",FALSE,"CV","p",650,"cv","H",2,"c","v",FALSE,0,-0.541993478352265
"CVOE updated",1013,1,1,51,"U 50","","",TRUE,"CV","q",919,"cv","U",0,"v","c",FALSE,0,-0.408364084766986
"CVOE updated",1013,1,1,52,"O 49","","",FALSE,"CV","q",1195,"cv","O",9,"v","c",FALSE,0,-0.271257346367221
"CVOE updated",1013,1,1,53,"U 32","","",TRUE,"CV","q",1870,"cv","U",2,"v","c",FALSE,0,0.0640580464582923
"CVOE updated",1013,1,1,54,"J 78","","",FALSE,"CV","p",659,"cv","J",8,"c","v",FALSE,0,-0.537522606447925
"CVOE updated",1013,1,1,55,"S 54","","",FALSE,"CV","p",770,"cv","S",4,"c","v",FALSE,0,-0.482381852961063
"CVOE updated",1013,1,1,56,"J 27","","",TRUE,"CV","p",641,"cv","J",7,"c","v",FALSE,0,-0.546464350256605
"CVOE updated",1013,1,1,57,"S 06","","",FALSE,"CV","p",945,"cv","S",6,"c","v",FALSE,0,-0.395448232598893
"CVOE updated",1013,1,1,58,"D 67","","",TRUE,"CV","p",919,"cv","D",7,"c","v",FALSE,0,-0.408364084766986
"CVOE updated",1013,1,1,59,"A 79","","",FALSE,"CV","q",584,"cv","A",9,"v","c",FALSE,0,-0.574779872317426
"CVOE updated",1013,1,1,60,"S 52","","",FALSE,"CV","p",858,"cv","S",2,"c","v",FALSE,0,-0.438666661007514
"CVOE updated",1013,1,1,61,"U 16","","",TRUE,"CV","q",838,"cv","U",6,"v","c",FALSE,0,-0.448601931906048
"CVOE updated",1013,1,1,62,"O 82","","",TRUE,"CV","q",684,"cv","O",2,"v","c",FALSE,0,-0.525103517824758
"CVOE updated",1013,1,1,63,"H 87","","",TRUE,"CV","p",631,"cv","H",7,"c","v",FALSE,0,-0.551431985705872
"CVOE updated",1013,1,1,64,"I 32","","",TRUE,"CV","q",596,"cv","I",2,"v","c",FALSE,0,-0.568818709778306
"CVOE updated",1013,1,1,65,"U 37","","",FALSE,"CV","q",1340,"cv","U",7,"v","c",FALSE,0,-0.199226632352852
"CVOE updated",1013,1,1,66,"I 42","","",TRUE,"CV","q",623,"cv","I",2,"v","c",FALSE,0,-0.555406094065286
"CVOE updated",1013,1,1,67,"D 65","","",TRUE,"CV","p",640,"cv","D",5,"c","v",FALSE,0,-0.546961113801532
"CVOE updated",1013,1,1,68,"U 77","","",FALSE,"CV","q",711,"cv","U",7,"v","c",FALSE,0,-0.511690902111737
"CVOE updated",1013,1,1,69,"E 12","","",TRUE,"CV","q",1073,"cv","E",2,"v","c",FALSE,0,-0.331862498848277
"CVOE updated",1013,1,1,70,"I 60","","",TRUE,"CV","q",1909,"cv","I",0,"v","c",FALSE,0,0.083431824710433
"CVOE updated",1013,1,1,71,"J 36","","",FALSE,"CV","p",847,"cv","J",6,"c","v",FALSE,0,-0.444131060001708
"CVOE updated",1013,1,1,72,"H 75","","",TRUE,"CV","p",771,"cv","H",5,"c","v",FALSE,0,-0.481885089416136
"CVOE updated",1013,1,1,73,"I 50","","",TRUE,"CV","q",658,"cv","I",0,"v","c",FALSE,0,-0.538019369992852
"CVOE updated",1013,1,1,74,"E 99","","",FALSE,"CV","q",724,"cv","E",9,"v","c",FALSE,0,-0.50523297602769
"CVOE updated",1013,1,1,75,"A 86","","",TRUE,"CV","q",645,"cv","A",6,"v","c",FALSE,0,-0.544477296076899
"CVOE updated",1013,1,1,76,"U 48","","",TRUE,"CV","q",844,"cv","U",8,"v","c",FALSE,0,-0.445621350636488
"CVOE updated",1013,1,1,77,"E 01","","",FALSE,"CV","q",527,"cv","E",1,"v","c",FALSE,0,-0.603095394378248
"CVOE updated",1013,1,1,78,"A 78","","",TRUE,"CV","q",573,"cv","A",8,"v","c",FALSE,0,-0.58024427131162
"CVOE updated",1013,1,1,79,"P 60","","",FALSE,"CV","p",576,"cv","P",0,"c","v",FALSE,0,-0.57875398067684
"CVOE updated",1013,1,1,80,"E 43","","",FALSE,"CV","q",681,"cv","E",3,"v","c",FALSE,0,-0.526593808459538
"CVOE updated",1013,1,1,81,"D 69","","",TRUE,"CV","p",682,"cv","D",9,"c","v",FALSE,0,-0.526097044914611
"CVOE updated",1013,1,1,82,"H 11","","",TRUE,"CV","p",666,"cv","H",1,"c","v",FALSE,0,-0.534045261633438
"CVOE updated",1013,1,1,83,"P 43","","",TRUE,"CV","p",696,"cv","P",3,"c","v",FALSE,0,-0.519142355285638
"CVOE updated",1013,1,1,84,"O 67","","",FALSE,"CV","p",556,"cv","O",7,"v","v",TRUE,1,-0.588689251575374
"CVOE updated",1013,1,1,85,"S 91","","",FALSE,"CV","p",3263,"cv","S",1,"c","v",FALSE,0,0.756049664541166
"CVOE updated",1013,1,1,86,"J 68","","",TRUE,"CV","p",739,"cv","J",8,"c","v",FALSE,0,-0.49778152285379
"CVOE updated",1013,1,1,87,"S 47","","",FALSE,"CV","p",762,"cv","S",7,"c","v",FALSE,0,-0.486355961320476
"CVOE updated",1013,1,1,88,"I 81","","",TRUE,"CV","q",651,"cv","I",1,"v","c",FALSE,0,-0.541496714807338
"CVOE updated",1013,1,1,89,"J 39","","",FALSE,"CV","p",590,"cv","J",9,"c","v",FALSE,0,-0.571799291047866
"CVOE updated",1013,1,1,90,"A 11","","",TRUE,"CV","q",505,"cv","A",1,"v","c",FALSE,0,-0.614024192366635
"CVOE updated",1013,1,1,91,"O 76","","",FALSE,"CV","q",630,"cv","O",6,"v","c",FALSE,0,-0.551928749250799
"CVOE updated",1013,1,1,92,"A 62","","",FALSE,"CV","q",654,"cv","A",2,"v","c",FALSE,0,-0.540006424172558
"CVOE updated",1013,1,1,93,"O 27","","",TRUE,"CV","q",1091,"cv","O",7,"v","c",FALSE,0,-0.322920755039596
"CVOE updated",1013,1,1,94,"E 66","","",FALSE,"CV","q",796,"cv","E",6,"v","c",FALSE,0,-0.469466000792969
"CVOE updated",1013,1,1,95,"J 62","","",TRUE,"CV","p",657,"cv","J",2,"c","v",FALSE,0,-0.538516133537778
"CVOE updated",1013,1,1,96,"H 72","","",TRUE,"CV","p",1154,"cv","H",2,"c","v",FALSE,0,-0.291624651709215
"CVOE updated",1013,1,1,97,"E 49","","",TRUE,"CV","q",803,"cv","E",9,"v","c",FALSE,0,-0.465988655978482
"CVOE updated",1013,1,1,98,"D 52","","",TRUE,"CV","p",1189,"cv","D",2,"c","v",FALSE,0,-0.274237927636781
"CVOE updated",1013,1,1,99,"H 62","","",TRUE,"CV","p",1600,"cv","H",2,"c","v",FALSE,0,-0.0700681106719131
"CVOE updated",1013,1,1,100,"I 11","","",TRUE,"CV","q",674,"cv","I",1,"v","c",FALSE,0,-0.530071153274025
"CVOE updated",1013,1,1,101,"A 98","","",FALSE,"CV","q",562,"cv","A",8,"v","c",FALSE,0,-0.585708670305814
"CVOE updated",1013,1,1,102,"H 29","","",FALSE,"CV","p",642,"cv","H",9,"c","v",FALSE,0,-0.545967586711679
"CVOE updated",1013,1,1,103,"E 83","","",TRUE,"CV","q",660,"cv","E",3,"v","c",FALSE,0,-0.537025842902998
"CVOE updated",1013,1,1,104,"D 43","","",FALSE,"CV","p",681,"cv","D",3,"c","v",FALSE,0,-0.526593808459538
"CVOE updated",1013,1,1,105,"P 45","","",TRUE,"CV","p",722,"cv","P",5,"c","v",FALSE,0,-0.506226503117544
"CVOE updated",1013,1,1,106,"J 17","","",TRUE,"CV","p",671,"cv","J",7,"c","v",FALSE,0,-0.531561443908805
"CVOE updated",2005,1,1,11,"A 71","","",FALSE,"CV","q",1858,"cv","A",1,"v","c",FALSE,0,0.058096883919172
"CVOE updated",2005,1,1,12,"I 66","","",TRUE,"CV","q",1208,"cv","I",6,"v","c",FALSE,0,-0.264799420283174
"CVOE updated",2005,1,1,13,"S 30","","",FALSE,"CV","p",738,"cv","S",0,"c","v",FALSE,0,-0.498278286398717
"CVOE updated",2005,1,1,14,"D 20","","",FALSE,"CV","p",1089,"cv","D",0,"c","v",FALSE,0,-0.32391428212945
"CVOE updated",2005,1,1,15,"I 31","","",FALSE,"CV","q",1049,"cv","I",1,"v","c",FALSE,0,-0.343784823926517
"CVOE updated",2005,1,1,16,"P 16","","",FALSE,"CV","p",848,"cv","P",6,"c","v",FALSE,0,-0.443634296456781
"CVOE updated",2005,1,1,17,"A 49","","",FALSE,"CV","q",690,"cv","A",9,"v","c",FALSE,0,-0.522122936555198
"CVOE updated",2005,1,1,18,"O 64","","",TRUE,"CV","q",957,"cv","O",4,"v","c",FALSE,0,-0.389487070059772
"CVOE updated",2005,1,1,19,"D 02","","",FALSE,"CV","p",895,"cv","D",2,"c","v",FALSE,0,-0.420286409845227
"CVOE updated",2005,1,1,20,"P 81","","",TRUE,"CV","p",1314,"cv","P",1,"c","v",FALSE,0,-0.212142484520945
"CVOE updated",2005,1,1,21,"J 58","","",FALSE,"CV","p",727,"cv","J",8,"c","v",FALSE,0,-0.50374268539291
"CVOE updated",2005,1,1,22,"A 22","","",TRUE,"CV","q",647,"cv","A",2,"v","c",FALSE,0,-0.543483768987045
"CVOE updated",2005,1,1,23,"J 72","","",FALSE,"CV","p",769,"cv","J",2,"c","v",FALSE,0,-0.482878616505989
"CVOE updated",2005,1,1,24,"P 91","","",TRUE,"CV","p",930,"cv","P",1,"c","v",FALSE,0,-0.402899685772793
"CVOE updated",2005,1,1,25,"E 19","","",FALSE,"CV","q",2136,"cv","E",9,"v","c",FALSE,0,0.196197149408791
"CVOE updated",2005,1,1,26,"I 30","","",TRUE,"CV","q",1161,"cv","I",0,"v","c",FALSE,0,-0.288147306894728
"CVOE updated",2005,1,1,27,"D 91","","",TRUE,"CV","p",843,"cv","D",1,"c","v",FALSE,0,-0.446118114181415
"CVOE updated",2005,1,1,28,"O 48","","",TRUE,"CV","q",920,"cv","O",8,"v","c",FALSE,0,-0.40786732122206
"CVOE updated",2005,1,1,29,"A 89","","",FALSE,"CV","q",892,"cv","A",9,"v","c",FALSE,0,-0.421776700480007
"CVOE updated",2005,1,1,30,"U 11","","",FALSE,"CV","q",2837,"cv","U",1,"v","c",FALSE,0,0.544428394402398
"CVOE updated",2005,1,1,31,"I 76","","",TRUE,"CV","q",1276,"cv","I",6,"v","c",FALSE,0,-0.231019499228159
"CVOE updated",2005,1,1,32,"U 89","","",FALSE,"CV","q",1467,"cv","U",9,"v","c",FALSE,0,-0.136137662147162
"CVOE updated",2005,1,1,33,"D 63","","",TRUE,"CV","p",692,"cv","D",3,"c","v",FALSE,0,-0.521129409465344
"CVOE updated",2005,1,1,34,"H 70","","",FALSE,"CV","p",1036,"cv","H",0,"c","v",FALSE,0,-0.350242750010564
"CVOE updated",2005,1,1,35,"D 48","","",FALSE,"CV","p",1087,"cv","D",8,"c","v",FALSE,0,-0.324907809219303
"CVOE updated",2005,1,1,36,"P 56","","",FALSE,"CV","p",773,"cv","P",6,"c","v",FALSE,0,-0.480891562326283
"CVOE updated",2005,1,1,37,"O 77","","",FALSE,"CV","q",874,"cv","O",7,"v","c",FALSE,0,-0.430718444288687
"CVOE updated",2005,1,1,38,"P 42","","",FALSE,"CV","p",1247,"cv","P",2,"c","v",FALSE,0,-0.245425642031033
"CVOE updated",2005,1,1,39,"H 22","","",FALSE,"CV","p",806,"cv","H",2,"c","v",FALSE,0,-0.464498365343702
"CVOE updated",2005,1,1,40,"E 42","","",TRUE,"CV","q",1089,"cv","E",2,"v","c",FALSE,0,-0.32391428212945
"CVOE updated",2005,1,1,41,"J 28","","",FALSE,"CV","p",934,"cv","J",8,"c","v",FALSE,0,-0.400912631593086
"CVOE updated",2005,1,1,42,"E 95","","",FALSE,"CV","q",848,"cv","E",5,"v","c",FALSE,0,-0.443634296456781
"CVOE updated",2005,1,1,43,"S 63","","",TRUE,"CV","p",769,"cv","S",3,"c","v",FALSE,0,-0.482878616505989
"CVOE updated",2005,1,1,44,"H 50","","",FALSE,"CV","p",948,"cv","H",0,"c","v",FALSE,0,-0.393957941964113
"CVOE updated",2005,1,1,45,"S 33","","",TRUE,"CV","p",807,"cv","S",3,"c","v",FALSE,0,-0.464001601798775
"CVOE updated",2005,1,1,46,"P 57","","",TRUE,"CV","p",840,"cv","P",7,"c","v",FALSE,0,-0.447608404816195
"CVOE updated",2005,1,1,47,"E 23","","",FALSE,"CV","q",722,"cv","E",3,"v","c",FALSE,0,-0.506226503117544
"CVOE updated",2005,1,1,48,"S 61","","",TRUE,"CV","p",894,"cv","S",1,"c","v",FALSE,0,-0.420783173390154
"CVOE updated",2005,1,1,49,"U 67","","",FALSE,"CV","q",999,"cv","U",7,"v","c",FALSE,0,-0.368623001172852
"CVOE updated",2005,1,1,50,"H 32","","",FALSE,"CV","p",1475,"cv","H",2,"c","v",FALSE,0,-0.132163553787749
"CVOE updated",2005,1,1,51,"U 50","","",TRUE,"CV","q",1011,"cv","U",0,"v","c",FALSE,0,-0.362661838633731
"CVOE updated",2005,1,1,52,"O 49","","",FALSE,"CV","p",1430,"cv","O",9,"v","v",TRUE,1,-0.15451791330945
"CVOE updated",2005,1,1,53,"U 32","","",TRUE,"CV","q",1863,"cv","U",2,"v","c",FALSE,0,0.0605807016438055
"CVOE updated",2005,1,1,54,"J 78","","",FALSE,"CV","p",1781,"cv","J",8,"c","v",FALSE,0,0.0198460909598172
"CVOE updated",2005,1,1,55,"S 54","","",FALSE,"CV","p",1157,"cv","S",4,"c","v",FALSE,0,-0.290134361074435
"CVOE updated",2005,1,1,56,"J 27","","",TRUE,"CV","p",1364,"cv","J",7,"c","v",FALSE,0,-0.187304307274611
"CVOE updated",2005,1,1,57,"S 06","","",FALSE,"CV","p",727,"cv","S",6,"c","v",FALSE,0,-0.50374268539291
"CVOE updated",2005,1,1,58,"D 67","","",TRUE,"CV","p",843,"cv","D",7,"c","v",FALSE,0,-0.446118114181415
"CVOE updated",2005,1,1,59,"A 79","","",FALSE,"CV","q",961,"cv","A",9,"v","c",FALSE,0,-0.387500015880066
"CVOE updated",2005,1,1,60,"S 52","","",FALSE,"CV","p",843,"cv","S",2,"c","v",FALSE,0,-0.446118114181415
"CVOE updated",2005,1,1,61,"U 16","","",TRUE,"CV","q",920,"cv","U",6,"v","c",FALSE,0,-0.40786732122206
"CVOE updated",2005,1,1,62,"O 82","","",TRUE,"CV","q",891,"cv","O",2,"v","c",FALSE,0,-0.422273464024934
"CVOE updated",2005,1,1,63,"H 87","","",TRUE,"CV","p",684,"cv","H",7,"c","v",FALSE,0,-0.525103517824758
"CVOE updated",2005,1,1,64,"I 32","","",TRUE,"CV","q",851,"cv","I",2,"v","c",FALSE,0,-0.442144005822001
"CVOE updated",2005,1,1,65,"U 37","","",FALSE,"CV","q",1437,"cv","U",7,"v","c",FALSE,0,-0.151040568494963
"CVOE updated",2005,1,1,66,"I 42","","",TRUE,"CV","q",1284,"cv","I",2,"v","c",FALSE,0,-0.227045390868746
"CVOE updated",2005,1,1,67,"D 65","","",TRUE,"CV","p",653,"cv","D",5,"c","v",FALSE,0,-0.540503187717485
"CVOE updated",2005,1,1,68,"U 77","","",FALSE,"CV","q",853,"cv","U",7,"v","c",FALSE,0,-0.441150478732148
"CVOE updated",2005,1,1,69,"E 12","","",TRUE,"CV","q",852,"cv","E",2,"v","c",FALSE,0,-0.441647242277074
"CVOE updated",2005,1,1,70,"I 60","","",TRUE,"CV","q",812,"cv","I",0,"v","c",FALSE,0,-0.461517784074142
"CVOE updated",2005,1,1,71,"J 36","","",FALSE,"CV","p",1276,"cv","J",6,"c","v",FALSE,0,-0.231019499228159
"CVOE updated",2005,1,1,72,"H 75","","",TRUE,"CV","p",1583,"cv","H",5,"c","v",FALSE,0,-0.0785130909356667
"CVOE updated",2005,1,1,73,"I 50","","",TRUE,"CV","q",1630,"cv","I",0,"v","c",FALSE,0,-0.0551652043241125
"CVOE updated",2005,1,1,74,"E 99","","",FALSE,"CV","q",765,"cv","E",9,"v","c",FALSE,0,-0.484865670685696
"CVOE updated",2005,1,1,75,"A 86","","",TRUE,"CV","q",809,"cv","A",6,"v","c",FALSE,0,-0.463008074708922
"CVOE updated",2005,1,1,76,"U 48","","",TRUE,"CV","q",1077,"cv","U",8,"v","c",FALSE,0,-0.32987544466857
"CVOE updated",2005,1,1,77,"E 01","","",FALSE,"CV","q",842,"cv","E",1,"v","c",FALSE,0,-0.446614877726341
"CVOE updated",2005,1,1,78,"A 78","","",TRUE,"CV","q",841,"cv","A",8,"v","c",FALSE,0,-0.447111641271268
"CVOE updated",2005,1,1,79,"P 60","","",FALSE,"CV","p",644,"cv","P",0,"c","v",FALSE,0,-0.544974059621825
"CVOE updated",2005,1,1,80,"E 43","","",FALSE,"CV","q",1040,"cv","E",3,"v","c",FALSE,0,-0.348255695830857
"CVOE updated",2005,1,1,81,"D 69","","",TRUE,"CV","p",1286,"cv","D",9,"c","v",FALSE,0,-0.226051863778893
"CVOE updated",2005,1,1,82,"H 11","","",TRUE,"CV","p",672,"cv","H",1,"c","v",FALSE,0,-0.531064680363878
"CVOE updated",2005,1,1,83,"P 43","","",TRUE,"CV","p",660,"cv","P",3,"c","v",FALSE,0,-0.537025842902998
"CVOE updated",2005,1,1,84,"O 67","","",FALSE,"CV","q",921,"cv","O",7,"v","c",FALSE,0,-0.407370557677133
"CVOE updated",2005,1,1,85,"S 91","","",FALSE,"CV","p",814,"cv","S",1,"c","v",FALSE,0,-0.460524256984289
"CVOE updated",2005,1,1,86,"J 68","","",TRUE,"CV","p",1434,"cv","J",8,"c","v",FALSE,0,-0.152530859129743
"CVOE updated",2005,1,1,87,"S 47","","",FALSE,"CV","p",1827,"cv","S",7,"c","v",FALSE,0,0.0426972140264448
"CVOE updated",2005,1,1,88,"I 81","","",TRUE,"CV","q",997,"cv","I",1,"v","c",FALSE,0,-0.369616528262705
"CVOE updated",2005,1,1,89,"J 39","","",FALSE,"CV","p",650,"cv","J",9,"c","v",FALSE,0,-0.541993478352265
"CVOE updated",2005,1,1,90,"A 11","","",TRUE,"CV","q",654,"cv","A",1,"v","c",FALSE,0,-0.540006424172558
"CVOE updated",2005,1,1,91,"O 76","","",FALSE,"CV","q",815,"cv","O",6,"v","c",FALSE,0,-0.460027493439362
"CVOE updated",2005,1,1,92,"A 62","","",FALSE,"CV","q",730,"cv","A",2,"v","c",FALSE,0,-0.50225239475813
"CVOE updated",2005,1,1,93,"O 27","","",TRUE,"CV","q",1003,"cv","O",7,"v","c",FALSE,0,-0.366635946993145
"CVOE updated",2005,1,1,94,"E 66","","",FALSE,"CV","q",1009,"cv","E",6,"v","c",FALSE,0,-0.363655365723585
"CVOE updated",2005,1,1,95,"J 62","","",TRUE,"CV","p",880,"cv","J",2,"c","v",FALSE,0,-0.427737863019127
"CVOE updated",2005,1,1,96,"H 72","","",TRUE,"CV","p",1394,"cv","H",2,"c","v",FALSE,0,-0.17240140092681
"CVOE updated",2005,1,1,97,"E 49","","",TRUE,"CV","q",841,"cv","E",9,"v","c",FALSE,0,-0.447111641271268
"CVOE updated",2005,1,1,98,"D 52","","",TRUE,"CV","p",802,"cv","D",2,"c","v",FALSE,0,-0.466485419523409
"CVOE updated",2005,1,1,99,"H 62","","",TRUE,"CV","p",1477,"cv","H",2,"c","v",FALSE,0,-0.131170026697895
"CVOE updated",2005,1,1,100,"I 11","","",TRUE,"CV","q",842,"cv","I",1,"v","c",FALSE,0,-0.446614877726341
"CVOE updated",2005,1,1,101,"A 98","","",FALSE,"CV","q",763,"cv","A",8,"v","c",FALSE,0,-0.48585919777555
"CVOE updated",2005,1,1,102,"H 29","","",FALSE,"CV","p",728,"cv","H",9,"c","v",FALSE,0,-0.503245921847984
"CVOE updated",2005,1,1,103,"E 83","","",TRUE,"CV","q",884,"cv","E",3,"v","c",FALSE,0,-0.425750808839421
"CVOE updated",2005,1,1,104,"D 43","","",FALSE,"CV","p",732,"cv","D",3,"c","v",FALSE,0,-0.501258867668277
"CVOE updated",2005,1,1,105,"P 45","","",TRUE,"CV","p",1318,"cv","P",5,"c","v",FALSE,0,-0.210155430341239
"CVOE updated",2005,1,1,106,"J 17","","",TRUE,"CV","p",967,"cv","J",7,"c","v",FALSE,0,-0.384519434610506
"CVOE updated",2009,1,1,12,"I 66","","",TRUE,"CV","p",2383,"cv","I",6,"v","v",TRUE,1,0.318897745005682
"CVOE updated",2009,1,1,13,"S 30","","",FALSE,"CV","q",1711,"cv","S",0,"c","c",TRUE,1,-0.0149273571850509
"CVOE updated",2009,1,1,14,"D 20","","",FALSE,"CV","q",1867,"cv","D",0,"c","c",TRUE,1,0.0625677558235122
"CVOE updated",2009,1,1,15,"I 31","","",FALSE,"CV","p",1086,"cv","I",1,"v","v",TRUE,1,-0.32540457276423
"CVOE updated",2009,1,1,16,"P 16","","",FALSE,"CV","q",1951,"cv","P",6,"c","c",TRUE,1,0.104295893597354
"CVOE updated",2009,1,1,17,"A 49","","",FALSE,"CV","p",1206,"cv","A",9,"v","v",TRUE,1,-0.265792947373027
"CVOE updated",2009,1,1,18,"O 64","","",TRUE,"CV","p",2015,"cv","O",4,"v","v",TRUE,1,0.136088760472662
"CVOE updated",2009,1,1,19,"D 02","","",FALSE,"CV","q",1610,"cv","D",2,"c","c",TRUE,1,-0.0651004752226462
"CVOE updated",2009,1,1,20,"P 81","","",TRUE,"CV","q",1724,"cv","P",1,"c","c",TRUE,1,-0.00846943110100394
"CVOE updated",2009,1,1,21,"J 58","","",FALSE,"CV","q",1314,"cv","J",8,"c","c",TRUE,1,-0.212142484520945
"CVOE updated",2009,1,1,22,"A 22","","",TRUE,"CV","p",1016,"cv","A",2,"v","v",TRUE,1,-0.360178020909098
"CVOE updated",2009,1,1,23,"J 72","","",FALSE,"CV","q",1259,"cv","J",2,"c","c",TRUE,1,-0.239464479491913
"CVOE updated",2009,1,1,24,"P 91","","",TRUE,"CV","p",1121,"cv","P",1,"c","v",FALSE,0,-0.308017848691796
"CVOE updated",2009,1,1,25,"E 19","","",FALSE,"CV","p",1676,"cv","E",9,"v","v",TRUE,1,-0.0323140812574849
"CVOE updated",2009,1,1,26,"I 30","","",TRUE,"CV","p",3608,"cv","I",0,"v","v",TRUE,1,0.927433087540873
"CVOE updated",2009,1,1,27,"D 91","","",TRUE,"CV","q",1157,"cv","D",1,"c","c",TRUE,1,-0.290134361074435
"CVOE updated",2009,1,1,28,"O 48","","",TRUE,"CV","p",1850,"cv","O",8,"v","v",TRUE,1,0.0541227755597585
"CVOE updated",2009,1,1,29,"A 89","","",FALSE,"CV","p",1347,"cv","A",9,"v","v",TRUE,1,-0.195749287538365
"CVOE updated",2009,1,1,30,"U 11","","",FALSE,"CV","p",1107,"cv","U",1,"v","v",TRUE,1,-0.314972538320769
"CVOE updated",2009,1,1,31,"I 76","","",TRUE,"CV","p",1305,"cv","I",6,"v","v",TRUE,1,-0.216613356425286
"CVOE updated",2009,1,1,32,"U 89","","",FALSE,"CV","p",1382,"cv","U",9,"v","v",TRUE,1,-0.178362563465931
"CVOE updated",2009,1,1,33,"D 63","","",TRUE,"CV","q",1079,"cv","D",3,"c","c",TRUE,1,-0.328881917578717
"CVOE updated",2009,1,1,34,"H 70","","",FALSE,"CV","p",1071,"cv","H",0,"c","v",FALSE,0,-0.33285602593813
"CVOE updated",2009,1,1,35,"D 48","","",FALSE,"CV","p",877,"cv","D",8,"c","v",FALSE,0,-0.429228153653907
"CVOE updated",2009,1,1,36,"P 56","","",FALSE,"CV","p",1122,"cv","P",6,"c","v",FALSE,0,-0.307521085146869
"CVOE updated",2009,1,1,38,"P 42","","",FALSE,"CV","q",1956,"cv","P",2,"c","c",TRUE,1,0.106779711321987
"CVOE updated",2009,1,1,39,"H 22","","",FALSE,"CV","q",1916,"cv","H",2,"c","c",TRUE,1,0.0869091695249199
"CVOE updated",2009,1,1,40,"E 42","","",TRUE,"CV","p",950,"cv","E",2,"v","v",TRUE,1,-0.392964414874259
"CVOE updated",2009,1,1,41,"J 28","","",FALSE,"CV","q",1536,"cv","J",8,"c","c",TRUE,1,-0.101860977547221
"CVOE updated",2009,1,1,42,"E 95","","",FALSE,"CV","p",858,"cv","E",5,"v","v",TRUE,1,-0.438666661007514
"CVOE updated",2009,1,1,43,"S 63","","",TRUE,"CV","q",1189,"cv","S",3,"c","c",TRUE,1,-0.274237927636781
"CVOE updated",2009,1,1,44,"H 50","","",FALSE,"CV","q",2180,"cv","H",0,"c","c",TRUE,1,0.218054745385565
"CVOE updated",2009,1,1,45,"S 33","","",TRUE,"CV","q",1356,"cv","S",3,"c","c",TRUE,1,-0.191278415634025
"CVOE updated",2009,1,1,46,"P 57","","",TRUE,"CV","q",3644,"cv","P",7,"c","c",TRUE,1,0.945316575158234
"CVOE updated",2009,1,1,47,"E 23","","",FALSE,"CV","p",1902,"cv","E",3,"v","v",TRUE,1,0.0799544798959462
"CVOE updated",2009,1,1,48,"S 61","","",TRUE,"CV","q",3401,"cv","S",1,"c","c",TRUE,1,0.824603033741049
"CVOE updated",2009,1,1,49,"U 67","","",FALSE,"CV","p",2026,"cv","U",7,"v","v",TRUE,1,0.141553159466855
"CVOE updated",2009,1,1,50,"H 32","","",FALSE,"CV","q",1099,"cv","H",2,"c","c",TRUE,1,-0.318946646680183
"CVOE updated",2009,1,1,51,"U 50","","",TRUE,"CV","p",1135,"cv","U",0,"v","v",TRUE,1,-0.301063159062822
"CVOE updated",2009,1,1,52,"O 49","","",FALSE,"CV","p",1655,"cv","O",9,"v","v",TRUE,1,-0.0427461157009453
"CVOE updated",2009,1,1,53,"U 32","","",TRUE,"CV","p",1725,"cv","U",2,"v","v",TRUE,1,-0.00797266755607726
"CVOE updated",2009,1,1,54,"J 78","","",FALSE,"CV","q",994,"cv","J",8,"c","c",TRUE,1,-0.371106818897485
"CVOE updated",2009,1,1,55,"S 54","","",FALSE,"CV","q",1545,"cv","S",4,"c","c",TRUE,1,-0.0973901056428808
"CVOE updated",2009,1,1,56,"J 27","","",TRUE,"CV","q",1733,"cv","J",7,"c","c",TRUE,1,-0.00399855919666376
"CVOE updated",2009,1,1,57,"S 06","","",FALSE,"CV","q",1800,"cv","S",6,"c","c",TRUE,1,0.0292845983134242
"CVOE updated",2009,1,1,58,"D 67","","",TRUE,"CV","q",1327,"cv","D",7,"c","c",TRUE,1,-0.205684558436898
"CVOE updated",2009,1,1,59,"A 79","","",FALSE,"CV","p",886,"cv","A",9,"v","v",TRUE,1,-0.424757281749567
"CVOE updated",2009,1,1,60,"S 52","","",FALSE,"CV","q",1979,"cv","S",2,"c","c",TRUE,1,0.118205272855301
"CVOE updated",2009,1,1,61,"U 16","","",TRUE,"CV","p",1199,"cv","U",6,"v","v",TRUE,1,-0.269270292187514
"CVOE updated",2009,1,1,62,"O 82","","",TRUE,"CV","p",1391,"cv","O",2,"v","v",TRUE,1,-0.173891691561591
"CVOE updated",2009,1,1,63,"H 87","","",TRUE,"CV","q",1116,"cv","H",7,"c","c",TRUE,1,-0.310501666416429
"CVOE updated",2009,1,1,64,"I 32","","",TRUE,"CV","p",1239,"cv","I",2,"v","v",TRUE,1,-0.249399750390447
"CVOE updated",2009,1,1,65,"U 37","","",FALSE,"CV","p",1311,"cv","U",7,"v","v",TRUE,1,-0.213632775155725
"CVOE updated",2009,1,1,66,"I 42","","",TRUE,"CV","p",1369,"cv","I",2,"v","v",TRUE,1,-0.184820489549978
"CVOE updated",2009,1,1,67,"D 65","","",TRUE,"CV","q",1020,"cv","D",5,"c","c",TRUE,1,-0.358190966729391
"CVOE updated",2009,1,1,68,"U 77","","",FALSE,"CV","p",1122,"cv","U",7,"v","v",TRUE,1,-0.307521085146869
"CVOE updated",2009,1,1,69,"E 12","","",TRUE,"CV","p",1271,"cv","E",2,"v","v",TRUE,1,-0.233503316952793
"CVOE updated",2009,1,1,70,"I 60","","",TRUE,"CV","p",959,"cv","I",0,"v","v",TRUE,1,-0.388493542969919
"CVOE updated",2009,1,1,71,"J 36","","",FALSE,"CV","q",908,"cv","J",6,"c","c",TRUE,1,-0.41382848376118
"CVOE updated",2009,1,1,72,"H 75","","",TRUE,"CV","p",1199,"cv","H",5,"c","v",FALSE,0,-0.269270292187514
"CVOE updated",2009,1,1,73,"I 50","","",TRUE,"CV","p",1844,"cv","I",0,"v","v",TRUE,1,0.0511421942901984
"CVOE updated",2009,1,1,74,"E 99","","",FALSE,"CV","p",4705,"cv","E",9,"v","v",TRUE,1,1.47238269632545
"CVOE updated",2009,1,1,75,"A 86","","",TRUE,"CV","p",1130,"cv","A",6,"v","v",TRUE,1,-0.303546976787456
"CVOE updated",2009,1,1,76,"U 48","","",TRUE,"CV","p",1251,"cv","U",8,"v","v",TRUE,1,-0.243438587851327
"CVOE updated",2009,1,1,77,"E 01","","",FALSE,"CV","p",1079,"cv","E",1,"v","v",TRUE,1,-0.328881917578717
"CVOE updated",2009,1,1,78,"A 78","","",TRUE,"CV","p",1146,"cv","A",8,"v","v",TRUE,1,-0.295598760068629
"CVOE updated",2009,1,1,79,"P 60","","",FALSE,"CV","q",1904,"cv","P",0,"c","c",TRUE,1,0.0809480069857996
"CVOE updated",2009,1,1,80,"E 43","","",FALSE,"CV","p",1279,"cv","E",3,"v","v",TRUE,1,-0.229529208593379
"CVOE updated",2009,1,1,81,"D 69","","",TRUE,"CV","q",2209,"cv","D",9,"c","c",TRUE,1,0.232460888188439
"CVOE updated",2009,1,1,82,"H 11","","",TRUE,"CV","q",2559,"cv","H",1,"c","c",TRUE,1,0.406328128912779
"CVOE updated",2009,1,1,83,"P 43","","",TRUE,"CV","q",1231,"cv","P",3,"c","c",TRUE,1,-0.25337385874986
"CVOE updated",2009,1,1,84,"O 67","","",FALSE,"CV","p",1379,"cv","O",7,"v","v",TRUE,1,-0.179852854100711
"CVOE updated",2009,1,1,85,"S 91","","",FALSE,"CV","q",1360,"cv","S",1,"c","c",TRUE,1,-0.189291361454318
"CVOE updated",2009,1,1,86,"J 68","","",TRUE,"CV","q",1170,"cv","J",8,"c","c",TRUE,1,-0.283676434990388
"CVOE updated",2009,1,1,87,"S 47","","",FALSE,"CV","q",559,"cv","S",7,"c","c",TRUE,1,-0.587198960940594
"CVOE updated",2009,1,1,88,"I 81","","",TRUE,"CV","p",828,"cv","I",1,"v","v",TRUE,1,-0.453569567355315
"CVOE updated",2009,1,1,89,"J 39","","",FALSE,"CV","q",1027,"cv","J",9,"c","c",TRUE,1,-0.354713621914904
"CVOE updated",2009,1,1,90,"A 11","","",TRUE,"CV","p",962,"cv","A",1,"v","v",TRUE,1,-0.387003252335139
"CVOE updated",2009,1,1,91,"O 76","","",FALSE,"CV","p",946,"cv","O",6,"v","v",TRUE,1,-0.394951469053966
"CVOE updated",2009,1,1,92,"A 62","","",FALSE,"CV","p",705,"cv","A",2,"v","v",TRUE,1,-0.514671483381297
"CVOE updated",2009,1,1,93,"O 27","","",TRUE,"CV","p",877,"cv","O",7,"v","v",TRUE,1,-0.429228153653907
"CVOE updated",2009,1,1,94,"E 66","","",FALSE,"CV","p",1030,"cv","E",6,"v","v",TRUE,1,-0.353223331280124
"CVOE updated",2009,1,1,95,"J 62","","",TRUE,"CV","q",1111,"cv","J",2,"c","c",TRUE,1,-0.312985484141063
"CVOE updated",2009,1,1,96,"H 72","","",TRUE,"CV","q",1183,"cv","H",2,"c","c",TRUE,1,-0.277218508906341
"CVOE updated",2009,1,1,97,"E 49","","",TRUE,"CV","p",985,"cv","E",9,"v","v",TRUE,1,-0.375577690801825
"CVOE updated",2009,1,1,98,"D 52","","",TRUE,"CV","q",1248,"cv","D",2,"c","c",TRUE,1,-0.244928878486107
"CVOE updated",2009,1,1,99,"H 62","","",TRUE,"CV","q",1315,"cv","H",2,"c","c",TRUE,1,-0.211645720976019
"CVOE updated",2009,1,1,100,"I 11","","",TRUE,"CV","p",831,"cv","I",1,"v","v",TRUE,1,-0.452079276720535
"CVOE updated",2009,1,1,101,"A 98","","",FALSE,"CV","p",954,"cv","A",8,"v","v",TRUE,1,-0.390977360694552
"CVOE updated",2009,1,1,102,"H 29","","",FALSE,"CV","q",1081,"cv","H",9,"c","c",TRUE,1,-0.327888390488863
"CVOE updated",2009,1,1,103,"E 83","","",TRUE,"CV","p",888,"cv","E",3,"v","v",TRUE,1,-0.423763754659714
"CVOE updated",2009,1,1,104,"D 43","","",FALSE,"CV","q",848,"cv","D",3,"c","c",TRUE,1,-0.443634296456781
"CVOE updated",2009,1,1,105,"P 45","","",TRUE,"CV","q",764,"cv","P",5,"c","c",TRUE,1,-0.485362434230623
"CVOE updated",2009,1,1,106,"J 17","","",TRUE,"CV","q",789,"cv","J",7,"c","c",TRUE,1,-0.472943345607456
"CVOE_B",1006,1,2,11,"A 71","","",FALSE,"CV","p",2229,"cv","A",1,"v","v",TRUE,1,0.242396159086973
"CVOE_B",1006,1,2,12,"I 66","","",TRUE,"CV","p",710,"cv","I",6,"v","v",TRUE,1,-0.512187665656664
"CVOE_B",1006,1,2,13,"S 30","","",FALSE,"CV","q",682,"cv","S",0,"c","c",TRUE,1,-0.526097044914611
"CVOE_B",1006,1,2,14,"D 20","","",FALSE,"CV","q",1436,"cv","D",0,"c","c",TRUE,1,-0.15153733203989
"CVOE_B",1006,1,2,15,"I 31","","",FALSE,"CV","p",672,"cv","I",1,"v","v",TRUE,1,-0.531064680363878
"CVOE_B",1006,1,2,16,"P 16","","",FALSE,"CV","q",745,"cv","P",6,"c","c",TRUE,1,-0.49480094158423
"CVOE_B",1006,1,2,17,"A 49","","",FALSE,"CV","p",1061,"cv","A",9,"v","v",TRUE,1,-0.337823661387397
"CVOE_B",1006,1,2,18,"O 64","","",TRUE,"CV","p",693,"cv","O",4,"v","v",TRUE,1,-0.520632645920418
"CVOE_B",1006,1,2,19,"D 02","","",FALSE,"CV","q",761,"cv","D",2,"c","c",TRUE,1,-0.486852724865403
"CVOE_B",1006,1,2,20,"P 81","","",TRUE,"CV","q",2443,"cv","P",1,"c","c",TRUE,1,0.348703557701284
"CVOE_B",1006,1,2,21,"J 58","","",FALSE,"CV","q",1440,"cv","J",8,"c","c",TRUE,1,-0.149550277860183
"CVOE_B",1006,1,2,22,"A 22","","",TRUE,"CV","p",666,"cv","A",2,"v","v",TRUE,1,-0.534045261633438
"CVOE_B",1006,1,2,23,"J 72","","",FALSE,"CV","q",606,"cv","J",2,"c","c",TRUE,1,-0.563851074329039
"CVOE_B",1006,1,2,24,"P 91","","",TRUE,"CV","q",563,"cv","P",1,"c","c",TRUE,1,-0.585211906760887
"CVOE_B",1006,1,2,25,"E 19","","",FALSE,"CV","p",605,"cv","E",9,"v","v",TRUE,1,-0.564347837873966
"CVOE_B",1006,1,2,26,"I 30","","",TRUE,"CV","p",1724,"cv","I",0,"v","v",TRUE,1,-0.00846943110100394
"CVOE_B",1006,1,2,27,"D 91","","",TRUE,"CV","q",536,"cv","D",1,"c","c",TRUE,1,-0.598624522473907
"CVOE_B",1006,1,2,28,"O 48","","",TRUE,"CV","p",619,"cv","O",8,"v","v",TRUE,1,-0.557393148244992
"CVOE_B",1006,1,2,29,"A 89","","",FALSE,"CV","p",887,"cv","A",9,"v","v",TRUE,1,-0.42426051820464
"CVOE_B",1006,1,2,30,"U 11","","",FALSE,"CV","p",800,"cv","U",1,"v","v",TRUE,1,-0.467478946613262
"CVOE_B",1006,1,2,31,"I 76","","",TRUE,"CV","p",1328,"cv","I",6,"v","v",TRUE,1,-0.205187794891972
"CVOE_B",1006,1,2,32,"U 89","","",FALSE,"CV","p",897,"cv","U",9,"v","v",TRUE,1,-0.419292882755374
"CVOE_B",1006,1,2,33,"D 63","","",TRUE,"CV","q",542,"cv","D",3,"c","c",TRUE,1,-0.595643941204347
"CVOE_B",1006,1,2,34,"H 70","","",FALSE,"CV","q",566,"cv","H",0,"c","c",TRUE,1,-0.583721616126107
"CVOE_B",1006,1,2,35,"D 48","","",FALSE,"CV","q",634,"cv","D",8,"c","c",TRUE,1,-0.549941695071092
"CVOE_B",1006,1,2,36,"P 56","","",FALSE,"CV","q",740,"cv","P",6,"c","c",TRUE,1,-0.497284759308863
"CVOE_B",1006,1,2,37,"O 77","","",FALSE,"CV","p",604,"cv","O",7,"v","v",TRUE,1,-0.564844601418893
"CVOE_B",1006,1,2,38,"P 42","","",FALSE,"CV","q",646,"cv","P",2,"c","c",TRUE,1,-0.543980532531972
"CVOE_B",1006,1,2,39,"H 22","","",FALSE,"CV","q",625,"cv","H",2,"c","c",TRUE,1,-0.554412566975432
"CVOE_B",1006,1,2,40,"E 42","","",TRUE,"CV","p",623,"cv","E",2,"v","v",TRUE,1,-0.555406094065286
"CVOE_B",1006,1,2,41,"J 28","","",FALSE,"CV","q",571,"cv","J",8,"c","c",TRUE,1,-0.581237798401473
"CVOE_B",1006,1,2,42,"E 95","","",FALSE,"CV","p",557,"cv","E",5,"v","v",TRUE,1,-0.588192488030447
"CVOE_B",1006,1,2,43,"S 63","","",TRUE,"CV","q",683,"cv","S",3,"c","c",TRUE,1,-0.525600281369685
